file_path,trial_type,trial_index,time_elapsed,internal_node_id,subject_id,seed,success,timeout,failed_images,failed_audio,failed_video,rt,stimulus,response,target,foil,choices,combination_order,choices_in_order,round,condition,trial_counter,target_location,trial_kind,correct,old_subject_id
/Users/martincz/Documents/Madison/Sapirlab/colorRuleKid/norming/v1/analysis/../data/raw_data/adults/color-rule-kid-norming_CAN_101_FINAL_SESSION_2023-03-06_12h01.16.859.csv,html-button-response,5,797539,0.0-5.0-0.0,CAN_101,101,NA,NA,NA,NA,NA,7057,"<button class=""jspsych-btn""><img src=""stimuli/star.png"" style=""width: 200px;height: 200px;""></button>",1,star,square,"[""square"",""star""]",left-right,"[""square"",""star""]",1,practice,1,right,response,1,CAN_101
/Users/martincz/Documents/Madison/Sapirlab/colorRuleKid/norming/v1/analysis/../data/raw_data/adults/color-rule-kid-norming_CAN_101_FINAL_SESSION_2023-03-06_12h01.16.859.csv,html-button-response,9,801327,0.0-8.0-0.0,CAN_101,101,NA,NA,NA,NA,NA,1007,"<button class=""jspsych-btn""><img src=""stimuli/triangle.png"" style=""width: 200px;height: 200px;""></button>",0,triangle,pentagram,"[""triangle"",""pentagram""]",left-right,"[""triangle"",""pentagram""]",1,practice,1,left,response,1,CAN_101
/Users/martincz/Documents/Madison/Sapirlab/colorRuleKid/norming/v1/analysis/../data/raw_data/adults/color-rule-kid-norming_CAN_101_FINAL_SESSION_2023-03-06_12h01.16.859.csv,html-button-response,13,803915,0.0-11.0-0.0,CAN_101,101,NA,NA,NA,NA,NA,1036,"<button class=""jspsych-btn""><img src=""stimuli/diamond.png"" style=""width: 200px;height: 200px;""></button>",1,diamond,rectangle,"[""rectangle"",""diamond""]",left-right,"[""rectangle"",""diamond""]",1,practice,1,right,response,1,CAN_101
/Users/martincz/Documents/Madison/Sapirlab/colorRuleKid/norming/v1/analysis/../data/raw_data/adults/color-rule-kid-norming_CAN_101_FINAL_SESSION_2023-03-06_12h01.16.859.csv,html-button-response,17,806369,0.0-14.0-0.0,CAN_101,101,NA,NA,NA,NA,NA,869,"<button class=""jspsych-btn""><img src=""stimuli/pentagram.png"" style=""width: 200px;height: 200px;""></button>",0,pentagram,star,"[""pentagram"",""star""]",left-right,"[""pentagram"",""star""]",1,practice,1,left,response,1,CAN_101
/Users/martincz/Documents/Madison/Sapirlab/colorRuleKid/norming/v1/analysis/../data/raw_data/adults/color-rule-kid-norming_CAN_101_FINAL_SESSION_2023-03-06_12h01.16.859.csv,html-button-response,22,821856,0.0-18.0-0.0,CAN_101,101,NA,NA,NA,NA,NA,736,"<button class=""jspsych-btn""><img src=""stimuli/pink.png"" style=""width: 200px;height: 200px;""></button>",0,pink,darkgreenblue,"[""pink"",""darkgreenblue"",""low nameability""]",left-right,"[""pink"",""darkgreenblue"",""low nameability""]",1,low nameability,1,left,response,1,CAN_101
/Users/martincz/Documents/Madison/Sapirlab/colorRuleKid/norming/v1/analysis/../data/raw_data/adults/color-rule-kid-norming_CAN_101_FINAL_SESSION_2023-03-06_12h01.16.859.csv,html-button-response,26,824045,0.0-21.0-0.0,CAN_101,101,NA,NA,NA,NA,NA,740,"<button class=""jspsych-btn""><img src=""stimuli/yellow.png"" style=""width: 200px;height: 200px;""></button>",1,yellow,red,"[""yellow"",""red"",""high nameability""]",right-left,"[""red"",""yellow""]",1,high nameability,2,right,response,1,CAN_101
/Users/martincz/Documents/Madison/Sapirlab/colorRuleKid/norming/v1/analysis/../data/raw_data/adults/color-rule-kid-norming_CAN_101_FINAL_SESSION_2023-03-06_12h01.16.859.csv,html-button-response,30,826235,0.0-24.0-0.0,CAN_101,101,NA,NA,NA,NA,NA,678,"<button class=""jspsych-btn""><img src=""stimuli/purple.png"" style=""width: 200px;height: 200px;""></button>",1,purple,brown,"[""purple"",""brown"",""high nameability""]",right-left,"[""brown"",""purple""]",1,high nameability,3,right,response,1,CAN_101
/Users/martincz/Documents/Madison/Sapirlab/colorRuleKid/norming/v1/analysis/../data/raw_data/adults/color-rule-kid-norming_CAN_101_FINAL_SESSION_2023-03-06_12h01.16.859.csv,html-button-response,34,828299,0.0-27.0-0.0,CAN_101,101,NA,NA,NA,NA,NA,656,"<button class=""jspsych-btn""><img src=""stimuli/darkgreenblue.png"" style=""width: 200px;height: 200px;""></button>",1,darkgreenblue,mustard,"[""darkgreenblue"",""mustard"",""low nameability""]",right-left,"[""mustard"",""darkgreenblue""]",1,low nameability,4,right,response,1,CAN_101
/Users/martincz/Documents/Madison/Sapirlab/colorRuleKid/norming/v1/analysis/../data/raw_data/adults/color-rule-kid-norming_CAN_101_FINAL_SESSION_2023-03-06_12h01.16.859.csv,html-button-response,38,830454,0.0-30.0-0.0,CAN_101,101,NA,NA,NA,NA,NA,750,"<button class=""jspsych-btn""><img src=""stimuli/purple.png"" style=""width: 200px;height: 200px;""></button>",1,purple,yellow,"[""purple"",""yellow"",""high nameability""]",right-left,"[""yellow"",""purple""]",1,high nameability,5,right,response,1,CAN_101
/Users/martincz/Documents/Madison/Sapirlab/colorRuleKid/norming/v1/analysis/../data/raw_data/adults/color-rule-kid-norming_CAN_101_FINAL_SESSION_2023-03-06_12h01.16.859.csv,html-button-response,42,833535,0.0-33.0-0.0,CAN_101,101,NA,NA,NA,NA,NA,1625,"<button class=""jspsych-btn""><img src=""stimuli/red.png"" style=""width: 200px;height: 200px;""></button>",0,red,purple,"[""red"",""purple"",""high nameability""]",left-right,"[""red"",""purple"",""high nameability""]",1,high nameability,6,left,response,1,CAN_101
/Users/martincz/Documents/Madison/Sapirlab/colorRuleKid/norming/v1/analysis/../data/raw_data/adults/color-rule-kid-norming_CAN_101_FINAL_SESSION_2023-03-06_12h01.16.859.csv,html-button-response,46,835841,0.0-36.0-0.0,CAN_101,101,NA,NA,NA,NA,NA,812,"<button class=""jspsych-btn""><img src=""stimuli/brown.png"" style=""width: 200px;height: 200px;""></button>",0,brown,orange,"[""brown"",""orange"",""high nameability""]",left-right,"[""brown"",""orange"",""high nameability""]",1,high nameability,7,left,response,1,CAN_101
/Users/martincz/Documents/Madison/Sapirlab/colorRuleKid/norming/v1/analysis/../data/raw_data/adults/color-rule-kid-norming_CAN_101_FINAL_SESSION_2023-03-06_12h01.16.859.csv,html-button-response,50,838250,0.0-39.0-0.0,CAN_101,101,NA,NA,NA,NA,NA,803,"<button class=""jspsych-btn""><img src=""stimuli/turquoise.png"" style=""width: 200px;height: 200px;""></button>",1,turquoise,pink,"[""turquoise"",""pink"",""low nameability""]",right-left,"[""pink"",""turquoise""]",1,low nameability,8,right,response,1,CAN_101
/Users/martincz/Documents/Madison/Sapirlab/colorRuleKid/norming/v1/analysis/../data/raw_data/adults/color-rule-kid-norming_CAN_101_FINAL_SESSION_2023-03-06_12h01.16.859.csv,html-button-response,54,840401,0.0-42.0-0.0,CAN_101,101,NA,NA,NA,NA,NA,724,"<button class=""jspsych-btn""><img src=""stimuli/darkgreenblue.png"" style=""width: 200px;height: 200px;""></button>",0,darkgreenblue,neonyellow,"[""darkgreenblue"",""neonyellow"",""low nameability""]",left-right,"[""darkgreenblue"",""neonyellow"",""low nameability""]",1,low nameability,9,left,response,1,CAN_101
/Users/martincz/Documents/Madison/Sapirlab/colorRuleKid/norming/v1/analysis/../data/raw_data/adults/color-rule-kid-norming_CAN_101_FINAL_SESSION_2023-03-06_12h01.16.859.csv,html-button-response,58,842378,0.0-45.0-0.0,CAN_101,101,NA,NA,NA,NA,NA,681,"<button class=""jspsych-btn""><img src=""stimuli/brown.png"" style=""width: 200px;height: 200px;""></button>",0,brown,red,"[""brown"",""red"",""high nameability""]",left-right,"[""brown"",""red"",""high nameability""]",1,high nameability,10,left,response,1,CAN_101
/Users/martincz/Documents/Madison/Sapirlab/colorRuleKid/norming/v1/analysis/../data/raw_data/adults/color-rule-kid-norming_CAN_101_FINAL_SESSION_2023-03-06_12h01.16.859.csv,html-button-response,66,851523,0.0-52.0-0.0,CAN_101,101,NA,NA,NA,NA,NA,766,"<button class=""jspsych-btn""><img src=""stimuli/yellow.png"" style=""width: 200px;height: 200px;""></button>",1,yellow,orange,"[""yellow"",""orange"",""high nameability""]",right-left,"[""orange"",""yellow""]",2,high nameability,11,right,response,1,CAN_101
/Users/martincz/Documents/Madison/Sapirlab/colorRuleKid/norming/v1/analysis/../data/raw_data/adults/color-rule-kid-norming_CAN_101_FINAL_SESSION_2023-03-06_12h01.16.859.csv,html-button-response,70,854015,0.0-55.0-0.0,CAN_101,101,NA,NA,NA,NA,NA,1149,"<button class=""jspsych-btn""><img src=""stimuli/purple.png"" style=""width: 200px;height: 200px;""></button>",0,purple,orange,"[""purple"",""orange"",""high nameability""]",left-right,"[""purple"",""orange"",""high nameability""]",2,high nameability,12,left,response,1,CAN_101
/Users/martincz/Documents/Madison/Sapirlab/colorRuleKid/norming/v1/analysis/../data/raw_data/adults/color-rule-kid-norming_CAN_101_FINAL_SESSION_2023-03-06_12h01.16.859.csv,html-button-response,74,856169,0.0-58.0-0.0,CAN_101,101,NA,NA,NA,NA,NA,904,"<button class=""jspsych-btn""><img src=""stimuli/brown.png"" style=""width: 200px;height: 200px;""></button>",0,brown,purple,"[""brown"",""purple"",""high nameability""]",left-right,"[""brown"",""purple"",""high nameability""]",2,high nameability,13,left,response,1,CAN_101
/Users/martincz/Documents/Madison/Sapirlab/colorRuleKid/norming/v1/analysis/../data/raw_data/adults/color-rule-kid-norming_CAN_101_FINAL_SESSION_2023-03-06_12h01.16.859.csv,html-button-response,78,858168,0.0-61.0-0.0,CAN_101,101,NA,NA,NA,NA,NA,631,"<button class=""jspsych-btn""><img src=""stimuli/mustard.png"" style=""width: 200px;height: 200px;""></button>",0,mustard,lightred,"[""mustard"",""lightred"",""low nameability""]",left-right,"[""mustard"",""lightred"",""low nameability""]",2,low nameability,14,left,response,1,CAN_101
/Users/martincz/Documents/Madison/Sapirlab/colorRuleKid/norming/v1/analysis/../data/raw_data/adults/color-rule-kid-norming_CAN_101_FINAL_SESSION_2023-03-06_12h01.16.859.csv,html-button-response,82,860239,0.0-64.0-0.0,CAN_101,101,NA,NA,NA,NA,NA,635,"<button class=""jspsych-btn""><img src=""stimuli/lightred.png"" style=""width: 200px;height: 200px;""></button>",0,lightred,turquoise,"[""lightred"",""turquoise"",""low nameability""]",left-right,"[""lightred"",""turquoise"",""low nameability""]",2,low nameability,15,left,response,1,CAN_101
/Users/martincz/Documents/Madison/Sapirlab/colorRuleKid/norming/v1/analysis/../data/raw_data/adults/color-rule-kid-norming_CAN_101_FINAL_SESSION_2023-03-06_12h01.16.859.csv,html-button-response,86,862223,0.0-67.0-0.0,CAN_101,101,NA,NA,NA,NA,NA,683,"<button class=""jspsych-btn""><img src=""stimuli/neonyellow.png"" style=""width: 200px;height: 200px;""></button>",1,neonyellow,lightred,"[""neonyellow"",""lightred"",""low nameability""]",right-left,"[""lightred"",""neonyellow""]",2,low nameability,16,right,response,1,CAN_101
/Users/martincz/Documents/Madison/Sapirlab/colorRuleKid/norming/v1/analysis/../data/raw_data/adults/color-rule-kid-norming_CAN_101_FINAL_SESSION_2023-03-06_12h01.16.859.csv,html-button-response,90,864391,0.0-70.0-0.0,CAN_101,101,NA,NA,NA,NA,NA,709,"<button class=""jspsych-btn""><img src=""stimuli/turquoise.png"" style=""width: 200px;height: 200px;""></button>",1,turquoise,darkgreenblue,"[""turquoise"",""darkgreenblue"",""low nameability""]",right-left,"[""darkgreenblue"",""turquoise""]",2,low nameability,17,right,response,1,CAN_101
/Users/martincz/Documents/Madison/Sapirlab/colorRuleKid/norming/v1/analysis/../data/raw_data/adults/color-rule-kid-norming_CAN_101_FINAL_SESSION_2023-03-06_12h01.16.859.csv,html-button-response,94,866471,0.0-73.0-0.0,CAN_101,101,NA,NA,NA,NA,NA,715,"<button class=""jspsych-btn""><img src=""stimuli/yellow.png"" style=""width: 200px;height: 200px;""></button>",1,yellow,blue,"[""yellow"",""blue"",""high nameability""]",right-left,"[""blue"",""yellow""]",2,high nameability,18,right,response,1,CAN_101
/Users/martincz/Documents/Madison/Sapirlab/colorRuleKid/norming/v1/analysis/../data/raw_data/adults/color-rule-kid-norming_CAN_101_FINAL_SESSION_2023-03-06_12h01.16.859.csv,html-button-response,98,868454,0.0-76.0-0.0,CAN_101,101,NA,NA,NA,NA,NA,632,"<button class=""jspsych-btn""><img src=""stimuli/red.png"" style=""width: 200px;height: 200px;""></button>",0,red,orange,"[""red"",""orange"",""high nameability""]",left-right,"[""red"",""orange"",""high nameability""]",2,high nameability,19,left,response,1,CAN_101
/Users/martincz/Documents/Madison/Sapirlab/colorRuleKid/norming/v1/analysis/../data/raw_data/adults/color-rule-kid-norming_CAN_101_FINAL_SESSION_2023-03-06_12h01.16.859.csv,html-button-response,102,870385,0.0-79.0-0.0,CAN_101,101,NA,NA,NA,NA,NA,647,"<button class=""jspsych-btn""><img src=""stimuli/orange.png"" style=""width: 200px;height: 200px;""></button>",1,orange,yellow,"[""orange"",""yellow"",""high nameability""]",right-left,"[""yellow"",""orange""]",2,high nameability,20,right,response,1,CAN_101
/Users/martincz/Documents/Madison/Sapirlab/colorRuleKid/norming/v1/analysis/../data/raw_data/adults/color-rule-kid-norming_CAN_101_FINAL_SESSION_2023-03-06_12h01.16.859.csv,html-button-response,110,877381,0.0-86.0-0.0,CAN_101,101,NA,NA,NA,NA,NA,745,"<button class=""jspsych-btn""><img src=""stimuli/neonyellow.png"" style=""width: 200px;height: 200px;""></button>",1,neonyellow,mustard,"[""neonyellow"",""mustard"",""low nameability""]",right-left,"[""mustard"",""neonyellow""]",3,low nameability,21,right,response,1,CAN_101
/Users/martincz/Documents/Madison/Sapirlab/colorRuleKid/norming/v1/analysis/../data/raw_data/adults/color-rule-kid-norming_CAN_101_FINAL_SESSION_2023-03-06_12h01.16.859.csv,html-button-response,114,879201,0.0-89.0-0.0,CAN_101,101,NA,NA,NA,NA,NA,568,"<button class=""jspsych-btn""><img src=""stimuli/yellow.png"" style=""width: 200px;height: 200px;""></button>",0,yellow,purple,"[""yellow"",""purple"",""high nameability""]",left-right,"[""yellow"",""purple"",""high nameability""]",3,high nameability,22,left,response,1,CAN_101
/Users/martincz/Documents/Madison/Sapirlab/colorRuleKid/norming/v1/analysis/../data/raw_data/adults/color-rule-kid-norming_CAN_101_FINAL_SESSION_2023-03-06_12h01.16.859.csv,html-button-response,118,881102,0.0-92.0-0.0,CAN_101,101,NA,NA,NA,NA,NA,600,"<button class=""jspsych-btn""><img src=""stimuli/darkgreenblue.png"" style=""width: 200px;height: 200px;""></button>",0,darkgreenblue,lightred,"[""darkgreenblue"",""lightred"",""low nameability""]",left-right,"[""darkgreenblue"",""lightred"",""low nameability""]",3,low nameability,23,left,response,1,CAN_101
/Users/martincz/Documents/Madison/Sapirlab/colorRuleKid/norming/v1/analysis/../data/raw_data/adults/color-rule-kid-norming_CAN_101_FINAL_SESSION_2023-03-06_12h01.16.859.csv,html-button-response,122,883042,0.0-95.0-0.0,CAN_101,101,NA,NA,NA,NA,NA,648,"<button class=""jspsych-btn""><img src=""stimuli/lightred.png"" style=""width: 200px;height: 200px;""></button>",0,lightred,neonyellow,"[""lightred"",""neonyellow"",""low nameability""]",left-right,"[""lightred"",""neonyellow"",""low nameability""]",3,low nameability,24,left,response,1,CAN_101
/Users/martincz/Documents/Madison/Sapirlab/colorRuleKid/norming/v1/analysis/../data/raw_data/adults/color-rule-kid-norming_CAN_101_FINAL_SESSION_2023-03-06_12h01.16.859.csv,html-button-response,126,884847,0.0-98.0-0.0,CAN_101,101,NA,NA,NA,NA,NA,560,"<button class=""jspsych-btn""><img src=""stimuli/turquoise.png"" style=""width: 200px;height: 200px;""></button>",0,turquoise,mustard,"[""turquoise"",""mustard"",""low nameability""]",left-right,"[""turquoise"",""mustard"",""low nameability""]",3,low nameability,25,left,response,1,CAN_101
/Users/martincz/Documents/Madison/Sapirlab/colorRuleKid/norming/v1/analysis/../data/raw_data/adults/color-rule-kid-norming_CAN_101_FINAL_SESSION_2023-03-06_12h01.16.859.csv,html-button-response,130,886917,0.0-101.0-0.0,CAN_101,101,NA,NA,NA,NA,NA,804,"<button class=""jspsych-btn""><img src=""stimuli/turquoise.png"" style=""width: 200px;height: 200px;""></button>",1,turquoise,lightred,"[""turquoise"",""lightred"",""low nameability""]",right-left,"[""lightred"",""turquoise""]",3,low nameability,26,right,response,1,CAN_101
/Users/martincz/Documents/Madison/Sapirlab/colorRuleKid/norming/v1/analysis/../data/raw_data/adults/color-rule-kid-norming_CAN_101_FINAL_SESSION_2023-03-06_12h01.16.859.csv,html-button-response,134,888890,0.0-104.0-0.0,CAN_101,101,NA,NA,NA,NA,NA,686,"<button class=""jspsych-btn""><img src=""stimuli/purple.png"" style=""width: 200px;height: 200px;""></button>",1,purple,red,"[""purple"",""red"",""high nameability""]",right-left,"[""red"",""purple""]",3,high nameability,27,right,response,1,CAN_101
/Users/martincz/Documents/Madison/Sapirlab/colorRuleKid/norming/v1/analysis/../data/raw_data/adults/color-rule-kid-norming_CAN_101_FINAL_SESSION_2023-03-06_12h01.16.859.csv,html-button-response,138,892088,0.0-107.0-0.0,CAN_101,101,NA,NA,NA,NA,NA,1926,"<button class=""jspsych-btn""><img src=""stimuli/blue.png"" style=""width: 200px;height: 200px;""></button>",1,blue,brown,"[""blue"",""brown"",""high nameability""]",right-left,"[""brown"",""blue""]",3,high nameability,28,right,response,1,CAN_101
/Users/martincz/Documents/Madison/Sapirlab/colorRuleKid/norming/v1/analysis/../data/raw_data/adults/color-rule-kid-norming_CAN_101_FINAL_SESSION_2023-03-06_12h01.16.859.csv,html-button-response,142,894216,0.0-110.0-0.0,CAN_101,101,NA,NA,NA,NA,NA,707,"<button class=""jspsych-btn""><img src=""stimuli/blue.png"" style=""width: 200px;height: 200px;""></button>",1,blue,yellow,"[""blue"",""yellow"",""high nameability""]",right-left,"[""yellow"",""blue""]",3,high nameability,29,right,response,1,CAN_101
/Users/martincz/Documents/Madison/Sapirlab/colorRuleKid/norming/v1/analysis/../data/raw_data/adults/color-rule-kid-norming_CAN_101_FINAL_SESSION_2023-03-06_12h01.16.859.csv,html-button-response,146,896211,0.0-113.0-0.0,CAN_101,101,NA,NA,NA,NA,NA,707,"<button class=""jspsych-btn""><img src=""stimuli/orange.png"" style=""width: 200px;height: 200px;""></button>",1,orange,red,"[""orange"",""red"",""high nameability""]",right-left,"[""red"",""orange""]",3,high nameability,30,right,response,1,CAN_101
/Users/martincz/Documents/Madison/Sapirlab/colorRuleKid/norming/v1/analysis/../data/raw_data/adults/color-rule-kid-norming_CAN_101_FINAL_SESSION_2023-03-06_12h01.16.859.csv,html-button-response,154,900273,0.0-120.0-0.0,CAN_101,101,NA,NA,NA,NA,NA,669,"<button class=""jspsych-btn""><img src=""stimuli/pink.png"" style=""width: 200px;height: 200px;""></button>",1,pink,neonyellow,"[""pink"",""neonyellow"",""low nameability""]",right-left,"[""neonyellow"",""pink""]",4,low nameability,31,right,response,1,CAN_101
/Users/martincz/Documents/Madison/Sapirlab/colorRuleKid/norming/v1/analysis/../data/raw_data/adults/color-rule-kid-norming_CAN_101_FINAL_SESSION_2023-03-06_12h01.16.859.csv,html-button-response,158,902101,0.0-123.0-0.0,CAN_101,101,NA,NA,NA,NA,NA,629,"<button class=""jspsych-btn""><img src=""stimuli/red.png"" style=""width: 200px;height: 200px;""></button>",0,red,yellow,"[""red"",""yellow"",""high nameability""]",left-right,"[""red"",""yellow"",""high nameability""]",4,high nameability,32,left,response,1,CAN_101
/Users/martincz/Documents/Madison/Sapirlab/colorRuleKid/norming/v1/analysis/../data/raw_data/adults/color-rule-kid-norming_CAN_101_FINAL_SESSION_2023-03-06_12h01.16.859.csv,html-button-response,162,904077,0.0-126.0-0.0,CAN_101,101,NA,NA,NA,NA,NA,715,"<button class=""jspsych-btn""><img src=""stimuli/neonyellow.png"" style=""width: 200px;height: 200px;""></button>",1,neonyellow,darkgreenblue,"[""neonyellow"",""darkgreenblue"",""low nameability""]",right-left,"[""darkgreenblue"",""neonyellow""]",4,low nameability,33,right,response,1,CAN_101
/Users/martincz/Documents/Madison/Sapirlab/colorRuleKid/norming/v1/analysis/../data/raw_data/adults/color-rule-kid-norming_CAN_101_FINAL_SESSION_2023-03-06_12h01.16.859.csv,html-button-response,166,906027,0.0-129.0-0.0,CAN_101,101,NA,NA,NA,NA,NA,658,"<button class=""jspsych-btn""><img src=""stimuli/pink.png"" style=""width: 200px;height: 200px;""></button>",1,pink,mustard,"[""pink"",""mustard"",""low nameability""]",right-left,"[""mustard"",""pink""]",4,low nameability,34,right,response,1,CAN_101
/Users/martincz/Documents/Madison/Sapirlab/colorRuleKid/norming/v1/analysis/../data/raw_data/adults/color-rule-kid-norming_CAN_101_FINAL_SESSION_2023-03-06_12h01.16.859.csv,html-button-response,170,908010,0.0-132.0-0.0,CAN_101,101,NA,NA,NA,NA,NA,648,"<button class=""jspsych-btn""><img src=""stimuli/orange.png"" style=""width: 200px;height: 200px;""></button>",1,orange,purple,"[""orange"",""purple"",""high nameability""]",right-left,"[""purple"",""orange""]",4,high nameability,35,right,response,1,CAN_101
/Users/martincz/Documents/Madison/Sapirlab/colorRuleKid/norming/v1/analysis/../data/raw_data/adults/color-rule-kid-norming_CAN_101_FINAL_SESSION_2023-03-06_12h01.16.859.csv,html-button-response,174,909926,0.0-135.0-0.0,CAN_101,101,NA,NA,NA,NA,NA,641,"<button class=""jspsych-btn""><img src=""stimuli/blue.png"" style=""width: 200px;height: 200px;""></button>",0,blue,orange,"[""blue"",""orange"",""high nameability""]",left-right,"[""blue"",""orange"",""high nameability""]",4,high nameability,36,left,response,1,CAN_101
/Users/martincz/Documents/Madison/Sapirlab/colorRuleKid/norming/v1/analysis/../data/raw_data/adults/color-rule-kid-norming_CAN_101_FINAL_SESSION_2023-03-06_12h01.16.859.csv,html-button-response,178,911922,0.0-138.0-0.0,CAN_101,101,NA,NA,NA,NA,NA,619,"<button class=""jspsych-btn""><img src=""stimuli/orange.png"" style=""width: 200px;height: 200px;""></button>",0,orange,brown,"[""orange"",""brown"",""high nameability""]",left-right,"[""orange"",""brown"",""high nameability""]",4,high nameability,37,left,response,1,CAN_101
/Users/martincz/Documents/Madison/Sapirlab/colorRuleKid/norming/v1/analysis/../data/raw_data/adults/color-rule-kid-norming_CAN_101_FINAL_SESSION_2023-03-06_12h01.16.859.csv,html-button-response,182,913770,0.0-141.0-0.0,CAN_101,101,NA,NA,NA,NA,NA,647,"<button class=""jspsych-btn""><img src=""stimuli/red.png"" style=""width: 200px;height: 200px;""></button>",0,red,brown,"[""red"",""brown"",""high nameability""]",left-right,"[""red"",""brown"",""high nameability""]",4,high nameability,38,left,response,1,CAN_101
/Users/martincz/Documents/Madison/Sapirlab/colorRuleKid/norming/v1/analysis/../data/raw_data/adults/color-rule-kid-norming_CAN_101_FINAL_SESSION_2023-03-06_12h01.16.859.csv,html-button-response,186,915710,0.0-144.0-0.0,CAN_101,101,NA,NA,NA,NA,NA,702,"<button class=""jspsych-btn""><img src=""stimuli/blue.png"" style=""width: 200px;height: 200px;""></button>",1,blue,red,"[""blue"",""red"",""high nameability""]",right-left,"[""red"",""blue""]",4,high nameability,39,right,response,1,CAN_101
/Users/martincz/Documents/Madison/Sapirlab/colorRuleKid/norming/v1/analysis/../data/raw_data/adults/color-rule-kid-norming_CAN_101_FINAL_SESSION_2023-03-06_12h01.16.859.csv,html-button-response,190,917695,0.0-147.0-0.0,CAN_101,101,NA,NA,NA,NA,NA,657,"<button class=""jspsych-btn""><img src=""stimuli/darkgreenblue.png"" style=""width: 200px;height: 200px;""></button>",0,darkgreenblue,turquoise,"[""darkgreenblue"",""turquoise"",""low nameability""]",left-right,"[""darkgreenblue"",""turquoise"",""low nameability""]",4,low nameability,40,left,response,1,CAN_101
/Users/martincz/Documents/Madison/Sapirlab/colorRuleKid/norming/v1/analysis/../data/raw_data/adults/color-rule-kid-norming_CAN_101_FINAL_SESSION_2023-03-06_12h01.16.859.csv,html-button-response,198,922537,0.0-154.0-0.0,CAN_101,101,NA,NA,NA,NA,NA,1254,"<button class=""jspsych-btn""><img src=""stimuli/lightred.png"" style=""width: 200px;height: 200px;""></button>",0,lightred,mustard,"[""lightred"",""mustard"",""low nameability""]",left-right,"[""lightred"",""mustard"",""low nameability""]",5,low nameability,41,left,response,1,CAN_101
/Users/martincz/Documents/Madison/Sapirlab/colorRuleKid/norming/v1/analysis/../data/raw_data/adults/color-rule-kid-norming_CAN_101_FINAL_SESSION_2023-03-06_12h01.16.859.csv,html-button-response,202,924726,0.0-157.0-0.0,CAN_101,101,NA,NA,NA,NA,NA,691,"<button class=""jspsych-btn""><img src=""stimuli/red.png"" style=""width: 200px;height: 200px;""></button>",1,red,blue,"[""red"",""blue"",""high nameability""]",right-left,"[""blue"",""red""]",5,high nameability,42,right,response,1,CAN_101
/Users/martincz/Documents/Madison/Sapirlab/colorRuleKid/norming/v1/analysis/../data/raw_data/adults/color-rule-kid-norming_CAN_101_FINAL_SESSION_2023-03-06_12h01.16.859.csv,html-button-response,206,926890,0.0-160.0-0.0,CAN_101,101,NA,NA,NA,NA,NA,746,"<button class=""jspsych-btn""><img src=""stimuli/yellow.png"" style=""width: 200px;height: 200px;""></button>",1,yellow,brown,"[""yellow"",""brown"",""high nameability""]",right-left,"[""brown"",""yellow""]",5,high nameability,43,right,response,1,CAN_101
/Users/martincz/Documents/Madison/Sapirlab/colorRuleKid/norming/v1/analysis/../data/raw_data/adults/color-rule-kid-norming_CAN_101_FINAL_SESSION_2023-03-06_12h01.16.859.csv,html-button-response,210,928835,0.0-163.0-0.0,CAN_101,101,NA,NA,NA,NA,NA,608,"<button class=""jspsych-btn""><img src=""stimuli/blue.png"" style=""width: 200px;height: 200px;""></button>",0,blue,purple,"[""blue"",""purple"",""high nameability""]",left-right,"[""blue"",""purple"",""high nameability""]",5,high nameability,44,left,response,1,CAN_101
/Users/martincz/Documents/Madison/Sapirlab/colorRuleKid/norming/v1/analysis/../data/raw_data/adults/color-rule-kid-norming_CAN_101_FINAL_SESSION_2023-03-06_12h01.16.859.csv,html-button-response,214,930940,0.0-166.0-0.0,CAN_101,101,NA,NA,NA,NA,NA,740,"<button class=""jspsych-btn""><img src=""stimuli/brown.png"" style=""width: 200px;height: 200px;""></button>",1,brown,yellow,"[""brown"",""yellow"",""high nameability""]",right-left,"[""yellow"",""brown""]",5,high nameability,45,right,response,1,CAN_101
/Users/martincz/Documents/Madison/Sapirlab/colorRuleKid/norming/v1/analysis/../data/raw_data/adults/color-rule-kid-norming_CAN_101_FINAL_SESSION_2023-03-06_12h01.16.859.csv,html-button-response,218,932925,0.0-169.0-0.0,CAN_101,101,NA,NA,NA,NA,NA,731,"<button class=""jspsych-btn""><img src=""stimuli/neonyellow.png"" style=""width: 200px;height: 200px;""></button>",0,neonyellow,pink,"[""neonyellow"",""pink"",""low nameability""]",left-right,"[""neonyellow"",""pink"",""low nameability""]",5,low nameability,46,left,response,1,CAN_101
/Users/martincz/Documents/Madison/Sapirlab/colorRuleKid/norming/v1/analysis/../data/raw_data/adults/color-rule-kid-norming_CAN_101_FINAL_SESSION_2023-03-06_12h01.16.859.csv,html-button-response,222,934791,0.0-172.0-0.0,CAN_101,101,NA,NA,NA,NA,NA,586,"<button class=""jspsych-btn""><img src=""stimuli/mustard.png"" style=""width: 200px;height: 200px;""></button>",0,mustard,turquoise,"[""mustard"",""turquoise"",""low nameability""]",left-right,"[""mustard"",""turquoise"",""low nameability""]",5,low nameability,47,left,response,1,CAN_101
/Users/martincz/Documents/Madison/Sapirlab/colorRuleKid/norming/v1/analysis/../data/raw_data/adults/color-rule-kid-norming_CAN_101_FINAL_SESSION_2023-03-06_12h01.16.859.csv,html-button-response,226,936596,0.0-175.0-0.0,CAN_101,101,NA,NA,NA,NA,NA,581,"<button class=""jspsych-btn""><img src=""stimuli/lightred.png"" style=""width: 200px;height: 200px;""></button>",0,lightred,pink,"[""lightred"",""pink"",""low nameability""]",left-right,"[""lightred"",""pink"",""low nameability""]",5,low nameability,48,left,response,1,CAN_101
/Users/martincz/Documents/Madison/Sapirlab/colorRuleKid/norming/v1/analysis/../data/raw_data/adults/color-rule-kid-norming_CAN_101_FINAL_SESSION_2023-03-06_12h01.16.859.csv,html-button-response,230,938543,0.0-178.0-0.0,CAN_101,101,NA,NA,NA,NA,NA,680,"<button class=""jspsych-btn""><img src=""stimuli/orange.png"" style=""width: 200px;height: 200px;""></button>",1,orange,blue,"[""orange"",""blue"",""high nameability""]",right-left,"[""blue"",""orange""]",5,high nameability,49,right,response,1,CAN_101
/Users/martincz/Documents/Madison/Sapirlab/colorRuleKid/norming/v1/analysis/../data/raw_data/adults/color-rule-kid-norming_CAN_101_FINAL_SESSION_2023-03-06_12h01.16.859.csv,html-button-response,234,940361,0.0-181.0-0.0,CAN_101,101,NA,NA,NA,NA,NA,563,"<button class=""jspsych-btn""><img src=""stimuli/turquoise.png"" style=""width: 200px;height: 200px;""></button>",0,turquoise,neonyellow,"[""turquoise"",""neonyellow"",""low nameability""]",left-right,"[""turquoise"",""neonyellow"",""low nameability""]",5,low nameability,50,left,response,1,CAN_101
/Users/martincz/Documents/Madison/Sapirlab/colorRuleKid/norming/v1/analysis/../data/raw_data/adults/color-rule-kid-norming_CAN_101_FINAL_SESSION_2023-03-06_12h01.16.859.csv,html-button-response,242,943903,0.0-188.0-0.0,CAN_101,101,NA,NA,NA,NA,NA,646,"<button class=""jspsych-btn""><img src=""stimuli/neonyellow.png"" style=""width: 200px;height: 200px;""></button>",1,neonyellow,turquoise,"[""neonyellow"",""turquoise"",""low nameability""]",right-left,"[""turquoise"",""neonyellow""]",6,low nameability,51,right,response,1,CAN_101
/Users/martincz/Documents/Madison/Sapirlab/colorRuleKid/norming/v1/analysis/../data/raw_data/adults/color-rule-kid-norming_CAN_101_FINAL_SESSION_2023-03-06_12h01.16.859.csv,html-button-response,246,945703,0.0-191.0-0.0,CAN_101,101,NA,NA,NA,NA,NA,541,"<button class=""jspsych-btn""><img src=""stimuli/purple.png"" style=""width: 200px;height: 200px;""></button>",0,purple,blue,"[""purple"",""blue"",""high nameability""]",left-right,"[""purple"",""blue"",""high nameability""]",6,high nameability,52,left,response,1,CAN_101
/Users/martincz/Documents/Madison/Sapirlab/colorRuleKid/norming/v1/analysis/../data/raw_data/adults/color-rule-kid-norming_CAN_101_FINAL_SESSION_2023-03-06_12h01.16.859.csv,html-button-response,250,947456,0.0-194.0-0.0,CAN_101,101,NA,NA,NA,NA,NA,496,"<button class=""jspsych-btn""><img src=""stimuli/mustard.png"" style=""width: 200px;height: 200px;""></button>",0,mustard,pink,"[""mustard"",""pink"",""low nameability""]",left-right,"[""mustard"",""pink"",""low nameability""]",6,low nameability,53,left,response,1,CAN_101
/Users/martincz/Documents/Madison/Sapirlab/colorRuleKid/norming/v1/analysis/../data/raw_data/adults/color-rule-kid-norming_CAN_101_FINAL_SESSION_2023-03-06_12h01.16.859.csv,html-button-response,254,950234,0.0-197.0-0.0,CAN_101,101,NA,NA,NA,NA,NA,1566,"<button class=""jspsych-btn""><img src=""stimuli/pink.png"" style=""width: 200px;height: 200px;""></button>",1,pink,turquoise,"[""pink"",""turquoise"",""low nameability""]",right-left,"[""turquoise"",""pink""]",6,low nameability,54,right,response,1,CAN_101
/Users/martincz/Documents/Madison/Sapirlab/colorRuleKid/norming/v1/analysis/../data/raw_data/adults/color-rule-kid-norming_CAN_101_FINAL_SESSION_2023-03-06_12h01.16.859.csv,html-button-response,258,952268,0.0-200.0-0.0,CAN_101,101,NA,NA,NA,NA,NA,619,"<button class=""jspsych-btn""><img src=""stimuli/brown.png"" style=""width: 200px;height: 200px;""></button>",0,brown,blue,"[""brown"",""blue"",""high nameability""]",left-right,"[""brown"",""blue"",""high nameability""]",6,high nameability,55,left,response,1,CAN_101
/Users/martincz/Documents/Madison/Sapirlab/colorRuleKid/norming/v1/analysis/../data/raw_data/adults/color-rule-kid-norming_CAN_101_FINAL_SESSION_2023-03-06_12h01.16.859.csv,html-button-response,262,954239,0.0-203.0-0.0,CAN_101,101,NA,NA,NA,NA,NA,599,"<button class=""jspsych-btn""><img src=""stimuli/lightred.png"" style=""width: 200px;height: 200px;""></button>",0,lightred,darkgreenblue,"[""lightred"",""darkgreenblue"",""low nameability""]",left-right,"[""lightred"",""darkgreenblue"",""low nameability""]",6,low nameability,56,left,response,1,CAN_101
/Users/martincz/Documents/Madison/Sapirlab/colorRuleKid/norming/v1/analysis/../data/raw_data/adults/color-rule-kid-norming_CAN_101_FINAL_SESSION_2023-03-06_12h01.16.859.csv,html-button-response,266,956404,0.0-206.0-0.0,CAN_101,101,NA,NA,NA,NA,NA,909,"<button class=""jspsych-btn""><img src=""stimuli/pink.png"" style=""width: 200px;height: 200px;""></button>",1,pink,lightred,"[""pink"",""lightred"",""low nameability""]",right-left,"[""lightred"",""pink""]",6,low nameability,57,right,response,1,CAN_101
/Users/martincz/Documents/Madison/Sapirlab/colorRuleKid/norming/v1/analysis/../data/raw_data/adults/color-rule-kid-norming_CAN_101_FINAL_SESSION_2023-03-06_12h01.16.859.csv,html-button-response,270,958315,0.0-209.0-0.0,CAN_101,101,NA,NA,NA,NA,NA,689,"<button class=""jspsych-btn""><img src=""stimuli/mustard.png"" style=""width: 200px;height: 200px;""></button>",0,mustard,neonyellow,"[""mustard"",""neonyellow"",""low nameability""]",left-right,"[""mustard"",""neonyellow"",""low nameability""]",6,low nameability,58,left,response,1,CAN_101
/Users/martincz/Documents/Madison/Sapirlab/colorRuleKid/norming/v1/analysis/../data/raw_data/adults/color-rule-kid-norming_CAN_101_FINAL_SESSION_2023-03-06_12h01.16.859.csv,html-button-response,274,960167,0.0-212.0-0.0,CAN_101,101,NA,NA,NA,NA,NA,603,"<button class=""jspsych-btn""><img src=""stimuli/mustard.png"" style=""width: 200px;height: 200px;""></button>",1,mustard,darkgreenblue,"[""mustard"",""darkgreenblue"",""low nameability""]",right-left,"[""darkgreenblue"",""mustard""]",6,low nameability,59,right,response,1,CAN_101
/Users/martincz/Documents/Madison/Sapirlab/colorRuleKid/norming/v1/analysis/../data/raw_data/adults/color-rule-kid-norming_CAN_101_FINAL_SESSION_2023-03-06_12h01.16.859.csv,html-button-response,278,962457,0.0-215.0-0.0,CAN_101,101,NA,NA,NA,NA,NA,1033,"<button class=""jspsych-btn""><img src=""stimuli/darkgreenblue.png"" style=""width: 200px;height: 200px;""></button>",1,darkgreenblue,pink,"[""darkgreenblue"",""pink"",""low nameability""]",right-left,"[""pink"",""darkgreenblue""]",6,low nameability,60,right,response,1,CAN_101
/Users/martincz/Documents/Madison/Sapirlab/colorRuleKid/norming/v1/analysis/../data/raw_data/adults/color-rule-kid-norming_CAN_102_FINAL_SESSION_2023-03-06_12h09.21.299.csv,html-button-response,5,107450,0.0-5.0-0.0,CAN_102,102,NA,NA,NA,NA,NA,3865,"<button class=""jspsych-btn""><img src=""stimuli/star.png"" style=""width: 200px;height: 200px;""></button>",1,star,square,"[""square"",""star""]",left-right,"[""square"",""star""]",1,practice,1,right,response,1,CAN_102
/Users/martincz/Documents/Madison/Sapirlab/colorRuleKid/norming/v1/analysis/../data/raw_data/adults/color-rule-kid-norming_CAN_102_FINAL_SESSION_2023-03-06_12h09.21.299.csv,html-button-response,9,111887,0.0-8.0-0.0,CAN_102,102,NA,NA,NA,NA,NA,1628,"<button class=""jspsych-btn""><img src=""stimuli/triangle.png"" style=""width: 200px;height: 200px;""></button>",0,triangle,pentagram,"[""triangle"",""pentagram""]",left-right,"[""triangle"",""pentagram""]",1,practice,1,left,response,1,CAN_102
/Users/martincz/Documents/Madison/Sapirlab/colorRuleKid/norming/v1/analysis/../data/raw_data/adults/color-rule-kid-norming_CAN_102_FINAL_SESSION_2023-03-06_12h09.21.299.csv,html-button-response,13,114109,0.0-11.0-0.0,CAN_102,102,NA,NA,NA,NA,NA,827,"<button class=""jspsych-btn""><img src=""stimuli/diamond.png"" style=""width: 200px;height: 200px;""></button>",1,diamond,rectangle,"[""rectangle"",""diamond""]",left-right,"[""rectangle"",""diamond""]",1,practice,1,right,response,1,CAN_102
/Users/martincz/Documents/Madison/Sapirlab/colorRuleKid/norming/v1/analysis/../data/raw_data/adults/color-rule-kid-norming_CAN_102_FINAL_SESSION_2023-03-06_12h09.21.299.csv,html-button-response,17,116372,0.0-14.0-0.0,CAN_102,102,NA,NA,NA,NA,NA,909,"<button class=""jspsych-btn""><img src=""stimuli/pentagram.png"" style=""width: 200px;height: 200px;""></button>",0,pentagram,star,"[""pentagram"",""star""]",left-right,"[""pentagram"",""star""]",1,practice,1,left,response,1,CAN_102
/Users/martincz/Documents/Madison/Sapirlab/colorRuleKid/norming/v1/analysis/../data/raw_data/adults/color-rule-kid-norming_CAN_102_FINAL_SESSION_2023-03-06_12h09.21.299.csv,html-button-response,22,132147,0.0-18.0-0.0,CAN_102,102,NA,NA,NA,NA,NA,812,"<button class=""jspsych-btn""><img src=""stimuli/yellow.png"" style=""width: 200px;height: 200px;""></button>",1,yellow,red,"[""yellow"",""red"",""high nameability""]",right-left,"[""red"",""yellow""]",1,high nameability,1,right,response,1,CAN_102
/Users/martincz/Documents/Madison/Sapirlab/colorRuleKid/norming/v1/analysis/../data/raw_data/adults/color-rule-kid-norming_CAN_102_FINAL_SESSION_2023-03-06_12h09.21.299.csv,html-button-response,26,134396,0.0-21.0-0.0,CAN_102,102,NA,NA,NA,NA,NA,869,"<button class=""jspsych-btn""><img src=""stimuli/orange.png"" style=""width: 200px;height: 200px;""></button>",1,orange,brown,"[""orange"",""brown"",""high nameability""]",right-left,"[""brown"",""orange""]",1,high nameability,2,right,response,1,CAN_102
/Users/martincz/Documents/Madison/Sapirlab/colorRuleKid/norming/v1/analysis/../data/raw_data/adults/color-rule-kid-norming_CAN_102_FINAL_SESSION_2023-03-06_12h09.21.299.csv,html-button-response,30,136831,0.0-24.0-0.0,CAN_102,102,NA,NA,NA,NA,NA,1011,"<button class=""jspsych-btn""><img src=""stimuli/darkgreenblue.png"" style=""width: 200px;height: 200px;""></button>",1,darkgreenblue,mustard,"[""darkgreenblue"",""mustard"",""low nameability""]",right-left,"[""mustard"",""darkgreenblue""]",1,low nameability,3,right,response,1,CAN_102
/Users/martincz/Documents/Madison/Sapirlab/colorRuleKid/norming/v1/analysis/../data/raw_data/adults/color-rule-kid-norming_CAN_102_FINAL_SESSION_2023-03-06_12h09.21.299.csv,html-button-response,34,139093,0.0-27.0-0.0,CAN_102,102,NA,NA,NA,NA,NA,943,"<button class=""jspsych-btn""><img src=""stimuli/pink.png"" style=""width: 200px;height: 200px;""></button>",1,pink,mustard,"[""pink"",""mustard"",""low nameability""]",right-left,"[""mustard"",""pink""]",1,low nameability,4,right,response,1,CAN_102
/Users/martincz/Documents/Madison/Sapirlab/colorRuleKid/norming/v1/analysis/../data/raw_data/adults/color-rule-kid-norming_CAN_102_FINAL_SESSION_2023-03-06_12h09.21.299.csv,html-button-response,38,141541,0.0-30.0-0.0,CAN_102,102,NA,NA,NA,NA,NA,884,"<button class=""jspsych-btn""><img src=""stimuli/yellow.png"" style=""width: 200px;height: 200px;""></button>",0,yellow,purple,"[""yellow"",""purple"",""high nameability""]",left-right,"[""yellow"",""purple"",""high nameability""]",1,high nameability,5,left,response,1,CAN_102
/Users/martincz/Documents/Madison/Sapirlab/colorRuleKid/norming/v1/analysis/../data/raw_data/adults/color-rule-kid-norming_CAN_102_FINAL_SESSION_2023-03-06_12h09.21.299.csv,html-button-response,42,143870,0.0-33.0-0.0,CAN_102,102,NA,NA,NA,NA,NA,823,"<button class=""jspsych-btn""><img src=""stimuli/lightred.png"" style=""width: 200px;height: 200px;""></button>",1,lightred,turquoise,"[""lightred"",""turquoise"",""low nameability""]",right-left,"[""turquoise"",""lightred""]",1,low nameability,6,right,response,1,CAN_102
/Users/martincz/Documents/Madison/Sapirlab/colorRuleKid/norming/v1/analysis/../data/raw_data/adults/color-rule-kid-norming_CAN_102_FINAL_SESSION_2023-03-06_12h09.21.299.csv,html-button-response,46,146202,0.0-36.0-0.0,CAN_102,102,NA,NA,NA,NA,NA,800,"<button class=""jspsych-btn""><img src=""stimuli/yellow.png"" style=""width: 200px;height: 200px;""></button>",1,yellow,blue,"[""yellow"",""blue"",""high nameability""]",right-left,"[""blue"",""yellow""]",1,high nameability,7,right,response,1,CAN_102
/Users/martincz/Documents/Madison/Sapirlab/colorRuleKid/norming/v1/analysis/../data/raw_data/adults/color-rule-kid-norming_CAN_102_FINAL_SESSION_2023-03-06_12h09.21.299.csv,html-button-response,50,148428,0.0-39.0-0.0,CAN_102,102,NA,NA,NA,NA,NA,781,"<button class=""jspsych-btn""><img src=""stimuli/lightred.png"" style=""width: 200px;height: 200px;""></button>",1,lightred,neonyellow,"[""lightred"",""neonyellow"",""low nameability""]",right-left,"[""neonyellow"",""lightred""]",1,low nameability,8,right,response,1,CAN_102
/Users/martincz/Documents/Madison/Sapirlab/colorRuleKid/norming/v1/analysis/../data/raw_data/adults/color-rule-kid-norming_CAN_102_FINAL_SESSION_2023-03-06_12h09.21.299.csv,html-button-response,54,150626,0.0-42.0-0.0,CAN_102,102,NA,NA,NA,NA,NA,763,"<button class=""jspsych-btn""><img src=""stimuli/darkgreenblue.png"" style=""width: 200px;height: 200px;""></button>",1,darkgreenblue,pink,"[""darkgreenblue"",""pink"",""low nameability""]",right-left,"[""pink"",""darkgreenblue""]",1,low nameability,9,right,response,1,CAN_102
/Users/martincz/Documents/Madison/Sapirlab/colorRuleKid/norming/v1/analysis/../data/raw_data/adults/color-rule-kid-norming_CAN_102_FINAL_SESSION_2023-03-06_12h09.21.299.csv,html-button-response,58,153015,0.0-45.0-0.0,CAN_102,102,NA,NA,NA,NA,NA,763,"<button class=""jspsych-btn""><img src=""stimuli/red.png"" style=""width: 200px;height: 200px;""></button>",0,red,blue,"[""red"",""blue"",""high nameability""]",left-right,"[""red"",""blue"",""high nameability""]",1,high nameability,10,left,response,1,CAN_102
/Users/martincz/Documents/Madison/Sapirlab/colorRuleKid/norming/v1/analysis/../data/raw_data/adults/color-rule-kid-norming_CAN_102_FINAL_SESSION_2023-03-06_12h09.21.299.csv,html-button-response,66,159800,0.0-52.0-0.0,CAN_102,102,NA,NA,NA,NA,NA,731,"<button class=""jspsych-btn""><img src=""stimuli/pink.png"" style=""width: 200px;height: 200px;""></button>",0,pink,neonyellow,"[""pink"",""neonyellow"",""low nameability""]",left-right,"[""pink"",""neonyellow"",""low nameability""]",2,low nameability,11,left,response,1,CAN_102
/Users/martincz/Documents/Madison/Sapirlab/colorRuleKid/norming/v1/analysis/../data/raw_data/adults/color-rule-kid-norming_CAN_102_FINAL_SESSION_2023-03-06_12h09.21.299.csv,html-button-response,70,161742,0.0-55.0-0.0,CAN_102,102,NA,NA,NA,NA,NA,663,"<button class=""jspsych-btn""><img src=""stimuli/mustard.png"" style=""width: 200px;height: 200px;""></button>",1,mustard,pink,"[""mustard"",""pink"",""low nameability""]",right-left,"[""pink"",""mustard""]",2,low nameability,12,right,response,1,CAN_102
/Users/martincz/Documents/Madison/Sapirlab/colorRuleKid/norming/v1/analysis/../data/raw_data/adults/color-rule-kid-norming_CAN_102_FINAL_SESSION_2023-03-06_12h09.21.299.csv,html-button-response,74,163868,0.0-58.0-0.0,CAN_102,102,NA,NA,NA,NA,NA,666,"<button class=""jspsych-btn""><img src=""stimuli/purple.png"" style=""width: 200px;height: 200px;""></button>",1,purple,blue,"[""purple"",""blue"",""high nameability""]",right-left,"[""blue"",""purple""]",2,high nameability,13,right,response,1,CAN_102
/Users/martincz/Documents/Madison/Sapirlab/colorRuleKid/norming/v1/analysis/../data/raw_data/adults/color-rule-kid-norming_CAN_102_FINAL_SESSION_2023-03-06_12h09.21.299.csv,html-button-response,78,165816,0.0-61.0-0.0,CAN_102,102,NA,NA,NA,NA,NA,713,"<button class=""jspsych-btn""><img src=""stimuli/purple.png"" style=""width: 200px;height: 200px;""></button>",1,purple,orange,"[""purple"",""orange"",""high nameability""]",right-left,"[""orange"",""purple""]",2,high nameability,14,right,response,1,CAN_102
/Users/martincz/Documents/Madison/Sapirlab/colorRuleKid/norming/v1/analysis/../data/raw_data/adults/color-rule-kid-norming_CAN_102_FINAL_SESSION_2023-03-06_12h09.21.299.csv,html-button-response,82,167813,0.0-64.0-0.0,CAN_102,102,NA,NA,NA,NA,NA,749,"<button class=""jspsych-btn""><img src=""stimuli/blue.png"" style=""width: 200px;height: 200px;""></button>",0,blue,orange,"[""blue"",""orange"",""high nameability""]",left-right,"[""blue"",""orange"",""high nameability""]",2,high nameability,15,left,response,1,CAN_102
/Users/martincz/Documents/Madison/Sapirlab/colorRuleKid/norming/v1/analysis/../data/raw_data/adults/color-rule-kid-norming_CAN_102_FINAL_SESSION_2023-03-06_12h09.21.299.csv,html-button-response,86,169895,0.0-67.0-0.0,CAN_102,102,NA,NA,NA,NA,NA,788,"<button class=""jspsych-btn""><img src=""stimuli/lightred.png"" style=""width: 200px;height: 200px;""></button>",0,lightred,darkgreenblue,"[""lightred"",""darkgreenblue"",""low nameability""]",left-right,"[""lightred"",""darkgreenblue"",""low nameability""]",2,low nameability,16,left,response,1,CAN_102
/Users/martincz/Documents/Madison/Sapirlab/colorRuleKid/norming/v1/analysis/../data/raw_data/adults/color-rule-kid-norming_CAN_102_FINAL_SESSION_2023-03-06_12h09.21.299.csv,html-button-response,90,171918,0.0-70.0-0.0,CAN_102,102,NA,NA,NA,NA,NA,755,"<button class=""jspsych-btn""><img src=""stimuli/neonyellow.png"" style=""width: 200px;height: 200px;""></button>",0,neonyellow,pink,"[""neonyellow"",""pink"",""low nameability""]",left-right,"[""neonyellow"",""pink"",""low nameability""]",2,low nameability,17,left,response,1,CAN_102
/Users/martincz/Documents/Madison/Sapirlab/colorRuleKid/norming/v1/analysis/../data/raw_data/adults/color-rule-kid-norming_CAN_102_FINAL_SESSION_2023-03-06_12h09.21.299.csv,html-button-response,94,173916,0.0-73.0-0.0,CAN_102,102,NA,NA,NA,NA,NA,734,"<button class=""jspsych-btn""><img src=""stimuli/blue.png"" style=""width: 200px;height: 200px;""></button>",0,blue,purple,"[""blue"",""purple"",""high nameability""]",left-right,"[""blue"",""purple"",""high nameability""]",2,high nameability,18,left,response,1,CAN_102
/Users/martincz/Documents/Madison/Sapirlab/colorRuleKid/norming/v1/analysis/../data/raw_data/adults/color-rule-kid-norming_CAN_102_FINAL_SESSION_2023-03-06_12h09.21.299.csv,html-button-response,98,176185,0.0-76.0-0.0,CAN_102,102,NA,NA,NA,NA,NA,787,"<button class=""jspsych-btn""><img src=""stimuli/mustard.png"" style=""width: 200px;height: 200px;""></button>",0,mustard,neonyellow,"[""mustard"",""neonyellow"",""low nameability""]",left-right,"[""mustard"",""neonyellow"",""low nameability""]",2,low nameability,19,left,response,1,CAN_102
/Users/martincz/Documents/Madison/Sapirlab/colorRuleKid/norming/v1/analysis/../data/raw_data/adults/color-rule-kid-norming_CAN_102_FINAL_SESSION_2023-03-06_12h09.21.299.csv,html-button-response,102,178382,0.0-79.0-0.0,CAN_102,102,NA,NA,NA,NA,NA,714,"<button class=""jspsych-btn""><img src=""stimuli/orange.png"" style=""width: 200px;height: 200px;""></button>",0,orange,blue,"[""orange"",""blue"",""high nameability""]",left-right,"[""orange"",""blue"",""high nameability""]",2,high nameability,20,left,response,1,CAN_102
/Users/martincz/Documents/Madison/Sapirlab/colorRuleKid/norming/v1/analysis/../data/raw_data/adults/color-rule-kid-norming_CAN_102_FINAL_SESSION_2023-03-06_12h09.21.299.csv,html-button-response,110,183333,0.0-86.0-0.0,CAN_102,102,NA,NA,NA,NA,NA,633,"<button class=""jspsych-btn""><img src=""stimuli/pink.png"" style=""width: 200px;height: 200px;""></button>",1,pink,turquoise,"[""pink"",""turquoise"",""low nameability""]",right-left,"[""turquoise"",""pink""]",3,low nameability,21,right,response,1,CAN_102
/Users/martincz/Documents/Madison/Sapirlab/colorRuleKid/norming/v1/analysis/../data/raw_data/adults/color-rule-kid-norming_CAN_102_FINAL_SESSION_2023-03-06_12h09.21.299.csv,html-button-response,114,185310,0.0-89.0-0.0,CAN_102,102,NA,NA,NA,NA,NA,718,"<button class=""jspsych-btn""><img src=""stimuli/darkgreenblue.png"" style=""width: 200px;height: 200px;""></button>",1,darkgreenblue,turquoise,"[""darkgreenblue"",""turquoise"",""low nameability""]",right-left,"[""turquoise"",""darkgreenblue""]",3,low nameability,22,right,response,1,CAN_102
/Users/martincz/Documents/Madison/Sapirlab/colorRuleKid/norming/v1/analysis/../data/raw_data/adults/color-rule-kid-norming_CAN_102_FINAL_SESSION_2023-03-06_12h09.21.299.csv,html-button-response,118,187401,0.0-92.0-0.0,CAN_102,102,NA,NA,NA,NA,NA,776,"<button class=""jspsych-btn""><img src=""stimuli/neonyellow.png"" style=""width: 200px;height: 200px;""></button>",0,neonyellow,lightred,"[""neonyellow"",""lightred"",""low nameability""]",left-right,"[""neonyellow"",""lightred"",""low nameability""]",3,low nameability,23,left,response,1,CAN_102
/Users/martincz/Documents/Madison/Sapirlab/colorRuleKid/norming/v1/analysis/../data/raw_data/adults/color-rule-kid-norming_CAN_102_FINAL_SESSION_2023-03-06_12h09.21.299.csv,html-button-response,122,189533,0.0-95.0-0.0,CAN_102,102,NA,NA,NA,NA,NA,851,"<button class=""jspsych-btn""><img src=""stimuli/turquoise.png"" style=""width: 200px;height: 200px;""></button>",0,turquoise,neonyellow,"[""turquoise"",""neonyellow"",""low nameability""]",left-right,"[""turquoise"",""neonyellow"",""low nameability""]",3,low nameability,24,left,response,1,CAN_102
/Users/martincz/Documents/Madison/Sapirlab/colorRuleKid/norming/v1/analysis/../data/raw_data/adults/color-rule-kid-norming_CAN_102_FINAL_SESSION_2023-03-06_12h09.21.299.csv,html-button-response,126,191566,0.0-98.0-0.0,CAN_102,102,NA,NA,NA,NA,NA,792,"<button class=""jspsych-btn""><img src=""stimuli/purple.png"" style=""width: 200px;height: 200px;""></button>",0,purple,yellow,"[""purple"",""yellow"",""high nameability""]",left-right,"[""purple"",""yellow"",""high nameability""]",3,high nameability,25,left,response,1,CAN_102
/Users/martincz/Documents/Madison/Sapirlab/colorRuleKid/norming/v1/analysis/../data/raw_data/adults/color-rule-kid-norming_CAN_102_FINAL_SESSION_2023-03-06_12h09.21.299.csv,html-button-response,130,193514,0.0-101.0-0.0,CAN_102,102,NA,NA,NA,NA,NA,694,"<button class=""jspsych-btn""><img src=""stimuli/red.png"" style=""width: 200px;height: 200px;""></button>",1,red,orange,"[""red"",""orange"",""high nameability""]",right-left,"[""orange"",""red""]",3,high nameability,26,right,response,1,CAN_102
/Users/martincz/Documents/Madison/Sapirlab/colorRuleKid/norming/v1/analysis/../data/raw_data/adults/color-rule-kid-norming_CAN_102_FINAL_SESSION_2023-03-06_12h09.21.299.csv,html-button-response,134,195489,0.0-104.0-0.0,CAN_102,102,NA,NA,NA,NA,NA,730,"<button class=""jspsych-btn""><img src=""stimuli/purple.png"" style=""width: 200px;height: 200px;""></button>",0,purple,brown,"[""purple"",""brown"",""high nameability""]",left-right,"[""purple"",""brown"",""high nameability""]",3,high nameability,27,left,response,1,CAN_102
/Users/martincz/Documents/Madison/Sapirlab/colorRuleKid/norming/v1/analysis/../data/raw_data/adults/color-rule-kid-norming_CAN_102_FINAL_SESSION_2023-03-06_12h09.21.299.csv,html-button-response,138,197439,0.0-107.0-0.0,CAN_102,102,NA,NA,NA,NA,NA,741,"<button class=""jspsych-btn""><img src=""stimuli/lightred.png"" style=""width: 200px;height: 200px;""></button>",0,lightred,mustard,"[""lightred"",""mustard"",""low nameability""]",left-right,"[""lightred"",""mustard"",""low nameability""]",3,low nameability,28,left,response,1,CAN_102
/Users/martincz/Documents/Madison/Sapirlab/colorRuleKid/norming/v1/analysis/../data/raw_data/adults/color-rule-kid-norming_CAN_102_FINAL_SESSION_2023-03-06_12h09.21.299.csv,html-button-response,142,199351,0.0-110.0-0.0,CAN_102,102,NA,NA,NA,NA,NA,647,"<button class=""jspsych-btn""><img src=""stimuli/blue.png"" style=""width: 200px;height: 200px;""></button>",1,blue,brown,"[""blue"",""brown"",""high nameability""]",right-left,"[""brown"",""blue""]",3,high nameability,29,right,response,1,CAN_102
/Users/martincz/Documents/Madison/Sapirlab/colorRuleKid/norming/v1/analysis/../data/raw_data/adults/color-rule-kid-norming_CAN_102_FINAL_SESSION_2023-03-06_12h09.21.299.csv,html-button-response,146,201303,0.0-113.0-0.0,CAN_102,102,NA,NA,NA,NA,NA,754,"<button class=""jspsych-btn""><img src=""stimuli/turquoise.png"" style=""width: 200px;height: 200px;""></button>",1,turquoise,lightred,"[""turquoise"",""lightred"",""low nameability""]",right-left,"[""lightred"",""turquoise""]",3,low nameability,30,right,response,1,CAN_102
/Users/martincz/Documents/Madison/Sapirlab/colorRuleKid/norming/v1/analysis/../data/raw_data/adults/color-rule-kid-norming_CAN_102_FINAL_SESSION_2023-03-06_12h09.21.299.csv,html-button-response,154,206561,0.0-120.0-0.0,CAN_102,102,NA,NA,NA,NA,NA,709,"<button class=""jspsych-btn""><img src=""stimuli/darkgreenblue.png"" style=""width: 200px;height: 200px;""></button>",1,darkgreenblue,lightred,"[""darkgreenblue"",""lightred"",""low nameability""]",right-left,"[""lightred"",""darkgreenblue""]",4,low nameability,31,right,response,1,CAN_102
/Users/martincz/Documents/Madison/Sapirlab/colorRuleKid/norming/v1/analysis/../data/raw_data/adults/color-rule-kid-norming_CAN_102_FINAL_SESSION_2023-03-06_12h09.21.299.csv,html-button-response,158,208578,0.0-123.0-0.0,CAN_102,102,NA,NA,NA,NA,NA,741,"<button class=""jspsych-btn""><img src=""stimuli/brown.png"" style=""width: 200px;height: 200px;""></button>",0,brown,blue,"[""brown"",""blue"",""high nameability""]",left-right,"[""brown"",""blue"",""high nameability""]",4,high nameability,32,left,response,1,CAN_102
/Users/martincz/Documents/Madison/Sapirlab/colorRuleKid/norming/v1/analysis/../data/raw_data/adults/color-rule-kid-norming_CAN_102_FINAL_SESSION_2023-03-06_12h09.21.299.csv,html-button-response,162,210585,0.0-126.0-0.0,CAN_102,102,NA,NA,NA,NA,NA,722,"<button class=""jspsych-btn""><img src=""stimuli/orange.png"" style=""width: 200px;height: 200px;""></button>",1,orange,red,"[""orange"",""red"",""high nameability""]",right-left,"[""red"",""orange""]",4,high nameability,33,right,response,1,CAN_102
/Users/martincz/Documents/Madison/Sapirlab/colorRuleKid/norming/v1/analysis/../data/raw_data/adults/color-rule-kid-norming_CAN_102_FINAL_SESSION_2023-03-06_12h09.21.299.csv,html-button-response,166,212517,0.0-129.0-0.0,CAN_102,102,NA,NA,NA,NA,NA,754,"<button class=""jspsych-btn""><img src=""stimuli/pink.png"" style=""width: 200px;height: 200px;""></button>",0,pink,darkgreenblue,"[""pink"",""darkgreenblue"",""low nameability""]",left-right,"[""pink"",""darkgreenblue"",""low nameability""]",4,low nameability,34,left,response,1,CAN_102
/Users/martincz/Documents/Madison/Sapirlab/colorRuleKid/norming/v1/analysis/../data/raw_data/adults/color-rule-kid-norming_CAN_102_FINAL_SESSION_2023-03-06_12h09.21.299.csv,html-button-response,170,214602,0.0-132.0-0.0,CAN_102,102,NA,NA,NA,NA,NA,869,"<button class=""jspsych-btn""><img src=""stimuli/brown.png"" style=""width: 200px;height: 200px;""></button>",0,brown,orange,"[""brown"",""orange"",""high nameability""]",left-right,"[""brown"",""orange"",""high nameability""]",4,high nameability,35,left,response,1,CAN_102
/Users/martincz/Documents/Madison/Sapirlab/colorRuleKid/norming/v1/analysis/../data/raw_data/adults/color-rule-kid-norming_CAN_102_FINAL_SESSION_2023-03-06_12h09.21.299.csv,html-button-response,174,216456,0.0-135.0-0.0,CAN_102,102,NA,NA,NA,NA,NA,656,"<button class=""jspsych-btn""><img src=""stimuli/neonyellow.png"" style=""width: 200px;height: 200px;""></button>",1,neonyellow,mustard,"[""neonyellow"",""mustard"",""low nameability""]",right-left,"[""mustard"",""neonyellow""]",4,low nameability,36,right,response,1,CAN_102
/Users/martincz/Documents/Madison/Sapirlab/colorRuleKid/norming/v1/analysis/../data/raw_data/adults/color-rule-kid-norming_CAN_102_FINAL_SESSION_2023-03-06_12h09.21.299.csv,html-button-response,178,218367,0.0-138.0-0.0,CAN_102,102,NA,NA,NA,NA,NA,689,"<button class=""jspsych-btn""><img src=""stimuli/yellow.png"" style=""width: 200px;height: 200px;""></button>",1,yellow,orange,"[""yellow"",""orange"",""high nameability""]",right-left,"[""orange"",""yellow""]",4,high nameability,37,right,response,1,CAN_102
/Users/martincz/Documents/Madison/Sapirlab/colorRuleKid/norming/v1/analysis/../data/raw_data/adults/color-rule-kid-norming_CAN_102_FINAL_SESSION_2023-03-06_12h09.21.299.csv,html-button-response,182,220365,0.0-141.0-0.0,CAN_102,102,NA,NA,NA,NA,NA,720,"<button class=""jspsych-btn""><img src=""stimuli/red.png"" style=""width: 200px;height: 200px;""></button>",1,red,yellow,"[""red"",""yellow"",""high nameability""]",right-left,"[""yellow"",""red""]",4,high nameability,38,right,response,1,CAN_102
/Users/martincz/Documents/Madison/Sapirlab/colorRuleKid/norming/v1/analysis/../data/raw_data/adults/color-rule-kid-norming_CAN_102_FINAL_SESSION_2023-03-06_12h09.21.299.csv,html-button-response,186,222326,0.0-144.0-0.0,CAN_102,102,NA,NA,NA,NA,NA,703,"<button class=""jspsych-btn""><img src=""stimuli/turquoise.png"" style=""width: 200px;height: 200px;""></button>",0,turquoise,pink,"[""turquoise"",""pink"",""low nameability""]",left-right,"[""turquoise"",""pink"",""low nameability""]",4,low nameability,39,left,response,1,CAN_102
/Users/martincz/Documents/Madison/Sapirlab/colorRuleKid/norming/v1/analysis/../data/raw_data/adults/color-rule-kid-norming_CAN_102_FINAL_SESSION_2023-03-06_12h09.21.299.csv,html-button-response,190,224280,0.0-147.0-0.0,CAN_102,102,NA,NA,NA,NA,NA,698,"<button class=""jspsych-btn""><img src=""stimuli/orange.png"" style=""width: 200px;height: 200px;""></button>",0,orange,purple,"[""orange"",""purple"",""high nameability""]",left-right,"[""orange"",""purple"",""high nameability""]",4,high nameability,40,left,response,1,CAN_102
/Users/martincz/Documents/Madison/Sapirlab/colorRuleKid/norming/v1/analysis/../data/raw_data/adults/color-rule-kid-norming_CAN_102_FINAL_SESSION_2023-03-06_12h09.21.299.csv,html-button-response,198,228942,0.0-154.0-0.0,CAN_102,102,NA,NA,NA,NA,NA,740,"<button class=""jspsych-btn""><img src=""stimuli/blue.png"" style=""width: 200px;height: 200px;""></button>",0,blue,yellow,"[""blue"",""yellow"",""high nameability""]",left-right,"[""blue"",""yellow"",""high nameability""]",5,high nameability,41,left,response,1,CAN_102
/Users/martincz/Documents/Madison/Sapirlab/colorRuleKid/norming/v1/analysis/../data/raw_data/adults/color-rule-kid-norming_CAN_102_FINAL_SESSION_2023-03-06_12h09.21.299.csv,html-button-response,202,230686,0.0-157.0-0.0,CAN_102,102,NA,NA,NA,NA,NA,572,"<button class=""jspsych-btn""><img src=""stimuli/yellow.png"" style=""width: 200px;height: 200px;""></button>",1,yellow,brown,"[""yellow"",""brown"",""high nameability""]",right-left,"[""brown"",""yellow""]",5,high nameability,42,right,response,1,CAN_102
/Users/martincz/Documents/Madison/Sapirlab/colorRuleKid/norming/v1/analysis/../data/raw_data/adults/color-rule-kid-norming_CAN_102_FINAL_SESSION_2023-03-06_12h09.21.299.csv,html-button-response,206,232554,0.0-160.0-0.0,CAN_102,102,NA,NA,NA,NA,NA,699,"<button class=""jspsych-btn""><img src=""stimuli/brown.png"" style=""width: 200px;height: 200px;""></button>",0,brown,yellow,"[""brown"",""yellow"",""high nameability""]",left-right,"[""brown"",""yellow"",""high nameability""]",5,high nameability,43,left,response,1,CAN_102
/Users/martincz/Documents/Madison/Sapirlab/colorRuleKid/norming/v1/analysis/../data/raw_data/adults/color-rule-kid-norming_CAN_102_FINAL_SESSION_2023-03-06_12h09.21.299.csv,html-button-response,210,234455,0.0-163.0-0.0,CAN_102,102,NA,NA,NA,NA,NA,703,"<button class=""jspsych-btn""><img src=""stimuli/mustard.png"" style=""width: 200px;height: 200px;""></button>",0,mustard,turquoise,"[""mustard"",""turquoise"",""low nameability""]",left-right,"[""mustard"",""turquoise"",""low nameability""]",5,low nameability,44,left,response,1,CAN_102
/Users/martincz/Documents/Madison/Sapirlab/colorRuleKid/norming/v1/analysis/../data/raw_data/adults/color-rule-kid-norming_CAN_102_FINAL_SESSION_2023-03-06_12h09.21.299.csv,html-button-response,214,236410,0.0-166.0-0.0,CAN_102,102,NA,NA,NA,NA,NA,703,"<button class=""jspsych-btn""><img src=""stimuli/blue.png"" style=""width: 200px;height: 200px;""></button>",0,blue,red,"[""blue"",""red"",""high nameability""]",left-right,"[""blue"",""red"",""high nameability""]",5,high nameability,45,left,response,1,CAN_102
/Users/martincz/Documents/Madison/Sapirlab/colorRuleKid/norming/v1/analysis/../data/raw_data/adults/color-rule-kid-norming_CAN_102_FINAL_SESSION_2023-03-06_12h09.21.299.csv,html-button-response,218,238274,0.0-169.0-0.0,CAN_102,102,NA,NA,NA,NA,NA,718,"<button class=""jspsych-btn""><img src=""stimuli/red.png"" style=""width: 200px;height: 200px;""></button>",0,red,purple,"[""red"",""purple"",""high nameability""]",left-right,"[""red"",""purple"",""high nameability""]",5,high nameability,46,left,response,1,CAN_102
/Users/martincz/Documents/Madison/Sapirlab/colorRuleKid/norming/v1/analysis/../data/raw_data/adults/color-rule-kid-norming_CAN_102_FINAL_SESSION_2023-03-06_12h09.21.299.csv,html-button-response,222,240152,0.0-172.0-0.0,CAN_102,102,NA,NA,NA,NA,NA,682,"<button class=""jspsych-btn""><img src=""stimuli/turquoise.png"" style=""width: 200px;height: 200px;""></button>",1,turquoise,mustard,"[""turquoise"",""mustard"",""low nameability""]",right-left,"[""mustard"",""turquoise""]",5,low nameability,47,right,response,1,CAN_102
/Users/martincz/Documents/Madison/Sapirlab/colorRuleKid/norming/v1/analysis/../data/raw_data/adults/color-rule-kid-norming_CAN_102_FINAL_SESSION_2023-03-06_12h09.21.299.csv,html-button-response,226,241992,0.0-175.0-0.0,CAN_102,102,NA,NA,NA,NA,NA,623,"<button class=""jspsych-btn""><img src=""stimuli/mustard.png"" style=""width: 200px;height: 200px;""></button>",1,mustard,lightred,"[""mustard"",""lightred"",""low nameability""]",right-left,"[""lightred"",""mustard""]",5,low nameability,48,right,response,1,CAN_102
/Users/martincz/Documents/Madison/Sapirlab/colorRuleKid/norming/v1/analysis/../data/raw_data/adults/color-rule-kid-norming_CAN_102_FINAL_SESSION_2023-03-06_12h09.21.299.csv,html-button-response,230,243929,0.0-178.0-0.0,CAN_102,102,NA,NA,NA,NA,NA,715,"<button class=""jspsych-btn""><img src=""stimuli/brown.png"" style=""width: 200px;height: 200px;""></button>",0,brown,purple,"[""brown"",""purple"",""high nameability""]",left-right,"[""brown"",""purple"",""high nameability""]",5,high nameability,49,left,response,1,CAN_102
/Users/martincz/Documents/Madison/Sapirlab/colorRuleKid/norming/v1/analysis/../data/raw_data/adults/color-rule-kid-norming_CAN_102_FINAL_SESSION_2023-03-06_12h09.21.299.csv,html-button-response,234,245929,0.0-181.0-0.0,CAN_102,102,NA,NA,NA,NA,NA,625,"<button class=""jspsych-btn""><img src=""stimuli/orange.png"" style=""width: 200px;height: 200px;""></button>",1,orange,yellow,"[""orange"",""yellow"",""high nameability""]",right-left,"[""yellow"",""orange""]",5,high nameability,50,right,response,1,CAN_102
/Users/martincz/Documents/Madison/Sapirlab/colorRuleKid/norming/v1/analysis/../data/raw_data/adults/color-rule-kid-norming_CAN_102_FINAL_SESSION_2023-03-06_12h09.21.299.csv,html-button-response,242,251645,0.0-188.0-0.0,CAN_102,102,NA,NA,NA,NA,NA,656,"<button class=""jspsych-btn""><img src=""stimuli/purple.png"" style=""width: 200px;height: 200px;""></button>",0,purple,red,"[""purple"",""red"",""high nameability""]",left-right,"[""purple"",""red"",""high nameability""]",6,high nameability,51,left,response,1,CAN_102
/Users/martincz/Documents/Madison/Sapirlab/colorRuleKid/norming/v1/analysis/../data/raw_data/adults/color-rule-kid-norming_CAN_102_FINAL_SESSION_2023-03-06_12h09.21.299.csv,html-button-response,246,253485,0.0-191.0-0.0,CAN_102,102,NA,NA,NA,NA,NA,654,"<button class=""jspsych-btn""><img src=""stimuli/brown.png"" style=""width: 200px;height: 200px;""></button>",0,brown,red,"[""brown"",""red"",""high nameability""]",left-right,"[""brown"",""red"",""high nameability""]",6,high nameability,52,left,response,1,CAN_102
/Users/martincz/Documents/Madison/Sapirlab/colorRuleKid/norming/v1/analysis/../data/raw_data/adults/color-rule-kid-norming_CAN_102_FINAL_SESSION_2023-03-06_12h09.21.299.csv,html-button-response,250,255412,0.0-194.0-0.0,CAN_102,102,NA,NA,NA,NA,NA,726,"<button class=""jspsych-btn""><img src=""stimuli/pink.png"" style=""width: 200px;height: 200px;""></button>",1,pink,lightred,"[""pink"",""lightred"",""low nameability""]",right-left,"[""lightred"",""pink""]",6,low nameability,53,right,response,1,CAN_102
/Users/martincz/Documents/Madison/Sapirlab/colorRuleKid/norming/v1/analysis/../data/raw_data/adults/color-rule-kid-norming_CAN_102_FINAL_SESSION_2023-03-06_12h09.21.299.csv,html-button-response,254,257280,0.0-197.0-0.0,CAN_102,102,NA,NA,NA,NA,NA,616,"<button class=""jspsych-btn""><img src=""stimuli/neonyellow.png"" style=""width: 200px;height: 200px;""></button>",1,neonyellow,turquoise,"[""neonyellow"",""turquoise"",""low nameability""]",right-left,"[""turquoise"",""neonyellow""]",6,low nameability,54,right,response,1,CAN_102
/Users/martincz/Documents/Madison/Sapirlab/colorRuleKid/norming/v1/analysis/../data/raw_data/adults/color-rule-kid-norming_CAN_102_FINAL_SESSION_2023-03-06_12h09.21.299.csv,html-button-response,258,259149,0.0-200.0-0.0,CAN_102,102,NA,NA,NA,NA,NA,676,"<button class=""jspsych-btn""><img src=""stimuli/darkgreenblue.png"" style=""width: 200px;height: 200px;""></button>",0,darkgreenblue,neonyellow,"[""darkgreenblue"",""neonyellow"",""low nameability""]",left-right,"[""darkgreenblue"",""neonyellow"",""low nameability""]",6,low nameability,55,left,response,1,CAN_102
/Users/martincz/Documents/Madison/Sapirlab/colorRuleKid/norming/v1/analysis/../data/raw_data/adults/color-rule-kid-norming_CAN_102_FINAL_SESSION_2023-03-06_12h09.21.299.csv,html-button-response,262,260918,0.0-203.0-0.0,CAN_102,102,NA,NA,NA,NA,NA,611,"<button class=""jspsych-btn""><img src=""stimuli/neonyellow.png"" style=""width: 200px;height: 200px;""></button>",1,neonyellow,darkgreenblue,"[""neonyellow"",""darkgreenblue"",""low nameability""]",right-left,"[""darkgreenblue"",""neonyellow""]",6,low nameability,56,right,response,1,CAN_102
/Users/martincz/Documents/Madison/Sapirlab/colorRuleKid/norming/v1/analysis/../data/raw_data/adults/color-rule-kid-norming_CAN_102_FINAL_SESSION_2023-03-06_12h09.21.299.csv,html-button-response,266,262927,0.0-206.0-0.0,CAN_102,102,NA,NA,NA,NA,NA,631,"<button class=""jspsych-btn""><img src=""stimuli/lightred.png"" style=""width: 200px;height: 200px;""></button>",0,lightred,pink,"[""lightred"",""pink"",""low nameability""]",left-right,"[""lightred"",""pink"",""low nameability""]",6,low nameability,57,left,response,1,CAN_102
/Users/martincz/Documents/Madison/Sapirlab/colorRuleKid/norming/v1/analysis/../data/raw_data/adults/color-rule-kid-norming_CAN_102_FINAL_SESSION_2023-03-06_12h09.21.299.csv,html-button-response,270,264903,0.0-209.0-0.0,CAN_102,102,NA,NA,NA,NA,NA,722,"<button class=""jspsych-btn""><img src=""stimuli/turquoise.png"" style=""width: 200px;height: 200px;""></button>",0,turquoise,darkgreenblue,"[""turquoise"",""darkgreenblue"",""low nameability""]",left-right,"[""turquoise"",""darkgreenblue"",""low nameability""]",6,low nameability,58,left,response,1,CAN_102
/Users/martincz/Documents/Madison/Sapirlab/colorRuleKid/norming/v1/analysis/../data/raw_data/adults/color-rule-kid-norming_CAN_102_FINAL_SESSION_2023-03-06_12h09.21.299.csv,html-button-response,274,266757,0.0-212.0-0.0,CAN_102,102,NA,NA,NA,NA,NA,648,"<button class=""jspsych-btn""><img src=""stimuli/mustard.png"" style=""width: 200px;height: 200px;""></button>",1,mustard,darkgreenblue,"[""mustard"",""darkgreenblue"",""low nameability""]",right-left,"[""darkgreenblue"",""mustard""]",6,low nameability,59,right,response,1,CAN_102
/Users/martincz/Documents/Madison/Sapirlab/colorRuleKid/norming/v1/analysis/../data/raw_data/adults/color-rule-kid-norming_CAN_102_FINAL_SESSION_2023-03-06_12h09.21.299.csv,html-button-response,278,268584,0.0-215.0-0.0,CAN_102,102,NA,NA,NA,NA,NA,625,"<button class=""jspsych-btn""><img src=""stimuli/red.png"" style=""width: 200px;height: 200px;""></button>",1,red,brown,"[""red"",""brown"",""high nameability""]",right-left,"[""brown"",""red""]",6,high nameability,60,right,response,1,CAN_102
/Users/martincz/Documents/Madison/Sapirlab/colorRuleKid/norming/v1/analysis/../data/raw_data/adults/color-rule-kid-norming_CAN_103_FINAL_SESSION_2023-03-06_12h35.41.994.csv,html-button-response,5,1391452,0.0-5.0-0.0,CAN_103,103,NA,NA,NA,NA,NA,6859,"<button class=""jspsych-btn""><img src=""stimuli/star.png"" style=""width: 200px;height: 200px;""></button>",1,star,square,"[""square"",""star""]",left-right,"[""square"",""star""]",1,practice,1,right,response,1,CAN_103
/Users/martincz/Documents/Madison/Sapirlab/colorRuleKid/norming/v1/analysis/../data/raw_data/adults/color-rule-kid-norming_CAN_103_FINAL_SESSION_2023-03-06_12h35.41.994.csv,html-button-response,9,1396056,0.0-8.0-0.0,CAN_103,103,NA,NA,NA,NA,NA,1237,"<button class=""jspsych-btn""><img src=""stimuli/triangle.png"" style=""width: 200px;height: 200px;""></button>",0,triangle,pentagram,"[""triangle"",""pentagram""]",left-right,"[""triangle"",""pentagram""]",1,practice,1,left,response,1,CAN_103
/Users/martincz/Documents/Madison/Sapirlab/colorRuleKid/norming/v1/analysis/../data/raw_data/adults/color-rule-kid-norming_CAN_103_FINAL_SESSION_2023-03-06_12h35.41.994.csv,html-button-response,13,1399019,0.0-11.0-0.0,CAN_103,103,NA,NA,NA,NA,NA,1145,"<button class=""jspsych-btn""><img src=""stimuli/diamond.png"" style=""width: 200px;height: 200px;""></button>",1,diamond,rectangle,"[""rectangle"",""diamond""]",left-right,"[""rectangle"",""diamond""]",1,practice,1,right,response,1,CAN_103
/Users/martincz/Documents/Madison/Sapirlab/colorRuleKid/norming/v1/analysis/../data/raw_data/adults/color-rule-kid-norming_CAN_103_FINAL_SESSION_2023-03-06_12h35.41.994.csv,html-button-response,17,1402252,0.0-14.0-0.0,CAN_103,103,NA,NA,NA,NA,NA,850,"<button class=""jspsych-btn""><img src=""stimuli/pentagram.png"" style=""width: 200px;height: 200px;""></button>",0,pentagram,star,"[""pentagram"",""star""]",left-right,"[""pentagram"",""star""]",1,practice,1,left,response,1,CAN_103
/Users/martincz/Documents/Madison/Sapirlab/colorRuleKid/norming/v1/analysis/../data/raw_data/adults/color-rule-kid-norming_CAN_103_FINAL_SESSION_2023-03-06_12h35.41.994.csv,html-button-response,22,1419828,0.0-18.0-0.0,CAN_103,103,NA,NA,NA,NA,NA,845,"<button class=""jspsych-btn""><img src=""stimuli/yellow.png"" style=""width: 200px;height: 200px;""></button>",0,yellow,blue,"[""yellow"",""blue"",""high nameability""]",left-right,"[""yellow"",""blue"",""high nameability""]",1,high nameability,1,left,response,1,CAN_103
/Users/martincz/Documents/Madison/Sapirlab/colorRuleKid/norming/v1/analysis/../data/raw_data/adults/color-rule-kid-norming_CAN_103_FINAL_SESSION_2023-03-06_12h35.41.994.csv,html-button-response,26,1421880,0.0-21.0-0.0,CAN_103,103,NA,NA,NA,NA,NA,786,"<button class=""jspsych-btn""><img src=""stimuli/yellow.png"" style=""width: 200px;height: 200px;""></button>",1,yellow,brown,"[""yellow"",""brown"",""high nameability""]",right-left,"[""brown"",""yellow""]",1,high nameability,2,right,response,1,CAN_103
/Users/martincz/Documents/Madison/Sapirlab/colorRuleKid/norming/v1/analysis/../data/raw_data/adults/color-rule-kid-norming_CAN_103_FINAL_SESSION_2023-03-06_12h35.41.994.csv,html-button-response,30,1423705,0.0-24.0-0.0,CAN_103,103,NA,NA,NA,NA,NA,818,"<button class=""jspsych-btn""><img src=""stimuli/darkgreenblue.png"" style=""width: 200px;height: 200px;""></button>",0,darkgreenblue,pink,"[""darkgreenblue"",""pink"",""low nameability""]",left-right,"[""darkgreenblue"",""pink"",""low nameability""]",1,low nameability,3,left,response,1,CAN_103
/Users/martincz/Documents/Madison/Sapirlab/colorRuleKid/norming/v1/analysis/../data/raw_data/adults/color-rule-kid-norming_CAN_103_FINAL_SESSION_2023-03-06_12h35.41.994.csv,html-button-response,34,1425815,0.0-27.0-0.0,CAN_103,103,NA,NA,NA,NA,NA,806,"<button class=""jspsych-btn""><img src=""stimuli/darkgreenblue.png"" style=""width: 200px;height: 200px;""></button>",0,darkgreenblue,neonyellow,"[""darkgreenblue"",""neonyellow"",""low nameability""]",left-right,"[""darkgreenblue"",""neonyellow"",""low nameability""]",1,low nameability,4,left,response,1,CAN_103
/Users/martincz/Documents/Madison/Sapirlab/colorRuleKid/norming/v1/analysis/../data/raw_data/adults/color-rule-kid-norming_CAN_103_FINAL_SESSION_2023-03-06_12h35.41.994.csv,html-button-response,38,1428797,0.0-30.0-0.0,CAN_103,103,NA,NA,NA,NA,NA,714,"<button class=""jspsych-btn""><img src=""stimuli/blue.png"" style=""width: 200px;height: 200px;""></button>",1,blue,red,"[""blue"",""red"",""high nameability""]",right-left,"[""red"",""blue""]",1,high nameability,5,right,response,1,CAN_103
/Users/martincz/Documents/Madison/Sapirlab/colorRuleKid/norming/v1/analysis/../data/raw_data/adults/color-rule-kid-norming_CAN_103_FINAL_SESSION_2023-03-06_12h35.41.994.csv,html-button-response,42,1430887,0.0-33.0-0.0,CAN_103,103,NA,NA,NA,NA,NA,708,"<button class=""jspsych-btn""><img src=""stimuli/red.png"" style=""width: 200px;height: 200px;""></button>",1,red,purple,"[""red"",""purple"",""high nameability""]",right-left,"[""purple"",""red""]",1,high nameability,6,right,response,1,CAN_103
/Users/martincz/Documents/Madison/Sapirlab/colorRuleKid/norming/v1/analysis/../data/raw_data/adults/color-rule-kid-norming_CAN_103_FINAL_SESSION_2023-03-06_12h35.41.994.csv,html-button-response,46,1432875,0.0-36.0-0.0,CAN_103,103,NA,NA,NA,NA,NA,728,"<button class=""jspsych-btn""><img src=""stimuli/pink.png"" style=""width: 200px;height: 200px;""></button>",1,pink,mustard,"[""pink"",""mustard"",""low nameability""]",right-left,"[""mustard"",""pink""]",1,low nameability,7,right,response,1,CAN_103
/Users/martincz/Documents/Madison/Sapirlab/colorRuleKid/norming/v1/analysis/../data/raw_data/adults/color-rule-kid-norming_CAN_103_FINAL_SESSION_2023-03-06_12h35.41.994.csv,html-button-response,50,1434883,0.0-39.0-0.0,CAN_103,103,NA,NA,NA,NA,NA,671,"<button class=""jspsych-btn""><img src=""stimuli/red.png"" style=""width: 200px;height: 200px;""></button>",0,red,brown,"[""red"",""brown"",""high nameability""]",left-right,"[""red"",""brown"",""high nameability""]",1,high nameability,8,left,response,1,CAN_103
/Users/martincz/Documents/Madison/Sapirlab/colorRuleKid/norming/v1/analysis/../data/raw_data/adults/color-rule-kid-norming_CAN_103_FINAL_SESSION_2023-03-06_12h35.41.994.csv,html-button-response,54,1436801,0.0-42.0-0.0,CAN_103,103,NA,NA,NA,NA,NA,616,"<button class=""jspsych-btn""><img src=""stimuli/red.png"" style=""width: 200px;height: 200px;""></button>",0,red,yellow,"[""red"",""yellow"",""high nameability""]",left-right,"[""red"",""yellow"",""high nameability""]",1,high nameability,9,left,response,1,CAN_103
/Users/martincz/Documents/Madison/Sapirlab/colorRuleKid/norming/v1/analysis/../data/raw_data/adults/color-rule-kid-norming_CAN_103_FINAL_SESSION_2023-03-06_12h35.41.994.csv,html-button-response,58,1438803,0.0-45.0-0.0,CAN_103,103,NA,NA,NA,NA,NA,782,"<button class=""jspsych-btn""><img src=""stimuli/brown.png"" style=""width: 200px;height: 200px;""></button>",1,brown,blue,"[""brown"",""blue"",""high nameability""]",right-left,"[""blue"",""brown""]",1,high nameability,10,right,response,1,CAN_103
/Users/martincz/Documents/Madison/Sapirlab/colorRuleKid/norming/v1/analysis/../data/raw_data/adults/color-rule-kid-norming_CAN_103_FINAL_SESSION_2023-03-06_12h35.41.994.csv,html-button-response,66,1445737,0.0-52.0-0.0,CAN_103,103,NA,NA,NA,NA,NA,590,"<button class=""jspsych-btn""><img src=""stimuli/orange.png"" style=""width: 200px;height: 200px;""></button>",1,orange,blue,"[""orange"",""blue"",""high nameability""]",right-left,"[""blue"",""orange""]",2,high nameability,11,right,response,1,CAN_103
/Users/martincz/Documents/Madison/Sapirlab/colorRuleKid/norming/v1/analysis/../data/raw_data/adults/color-rule-kid-norming_CAN_103_FINAL_SESSION_2023-03-06_12h35.41.994.csv,html-button-response,70,1447586,0.0-55.0-0.0,CAN_103,103,NA,NA,NA,NA,NA,602,"<button class=""jspsych-btn""><img src=""stimuli/yellow.png"" style=""width: 200px;height: 200px;""></button>",0,yellow,orange,"[""yellow"",""orange"",""high nameability""]",left-right,"[""yellow"",""orange"",""high nameability""]",2,high nameability,12,left,response,1,CAN_103
/Users/martincz/Documents/Madison/Sapirlab/colorRuleKid/norming/v1/analysis/../data/raw_data/adults/color-rule-kid-norming_CAN_103_FINAL_SESSION_2023-03-06_12h35.41.994.csv,html-button-response,74,1449402,0.0-58.0-0.0,CAN_103,103,NA,NA,NA,NA,NA,634,"<button class=""jspsych-btn""><img src=""stimuli/neonyellow.png"" style=""width: 200px;height: 200px;""></button>",0,neonyellow,darkgreenblue,"[""neonyellow"",""darkgreenblue"",""low nameability""]",left-right,"[""neonyellow"",""darkgreenblue"",""low nameability""]",2,low nameability,13,left,response,1,CAN_103
/Users/martincz/Documents/Madison/Sapirlab/colorRuleKid/norming/v1/analysis/../data/raw_data/adults/color-rule-kid-norming_CAN_103_FINAL_SESSION_2023-03-06_12h35.41.994.csv,html-button-response,78,1451158,0.0-61.0-0.0,CAN_103,103,NA,NA,NA,NA,NA,535,"<button class=""jspsych-btn""><img src=""stimuli/turquoise.png"" style=""width: 200px;height: 200px;""></button>",1,turquoise,pink,"[""turquoise"",""pink"",""low nameability""]",right-left,"[""pink"",""turquoise""]",2,low nameability,14,right,response,1,CAN_103
/Users/martincz/Documents/Madison/Sapirlab/colorRuleKid/norming/v1/analysis/../data/raw_data/adults/color-rule-kid-norming_CAN_103_FINAL_SESSION_2023-03-06_12h35.41.994.csv,html-button-response,82,1453010,0.0-64.0-0.0,CAN_103,103,NA,NA,NA,NA,NA,643,"<button class=""jspsych-btn""><img src=""stimuli/neonyellow.png"" style=""width: 200px;height: 200px;""></button>",1,neonyellow,turquoise,"[""neonyellow"",""turquoise"",""low nameability""]",right-left,"[""turquoise"",""neonyellow""]",2,low nameability,15,right,response,1,CAN_103
/Users/martincz/Documents/Madison/Sapirlab/colorRuleKid/norming/v1/analysis/../data/raw_data/adults/color-rule-kid-norming_CAN_103_FINAL_SESSION_2023-03-06_12h35.41.994.csv,html-button-response,86,1454850,0.0-67.0-0.0,CAN_103,103,NA,NA,NA,NA,NA,588,"<button class=""jspsych-btn""><img src=""stimuli/darkgreenblue.png"" style=""width: 200px;height: 200px;""></button>",1,darkgreenblue,turquoise,"[""darkgreenblue"",""turquoise"",""low nameability""]",right-left,"[""turquoise"",""darkgreenblue""]",2,low nameability,16,right,response,1,CAN_103
/Users/martincz/Documents/Madison/Sapirlab/colorRuleKid/norming/v1/analysis/../data/raw_data/adults/color-rule-kid-norming_CAN_103_FINAL_SESSION_2023-03-06_12h35.41.994.csv,html-button-response,90,1456715,0.0-70.0-0.0,CAN_103,103,NA,NA,NA,NA,NA,619,"<button class=""jspsych-btn""><img src=""stimuli/mustard.png"" style=""width: 200px;height: 200px;""></button>",1,mustard,darkgreenblue,"[""mustard"",""darkgreenblue"",""low nameability""]",right-left,"[""darkgreenblue"",""mustard""]",2,low nameability,17,right,response,1,CAN_103
/Users/martincz/Documents/Madison/Sapirlab/colorRuleKid/norming/v1/analysis/../data/raw_data/adults/color-rule-kid-norming_CAN_103_FINAL_SESSION_2023-03-06_12h35.41.994.csv,html-button-response,94,1458604,0.0-73.0-0.0,CAN_103,103,NA,NA,NA,NA,NA,665,"<button class=""jspsych-btn""><img src=""stimuli/orange.png"" style=""width: 200px;height: 200px;""></button>",1,orange,purple,"[""orange"",""purple"",""high nameability""]",right-left,"[""purple"",""orange""]",2,high nameability,18,right,response,1,CAN_103
/Users/martincz/Documents/Madison/Sapirlab/colorRuleKid/norming/v1/analysis/../data/raw_data/adults/color-rule-kid-norming_CAN_103_FINAL_SESSION_2023-03-06_12h35.41.994.csv,html-button-response,98,1460462,0.0-76.0-0.0,CAN_103,103,NA,NA,NA,NA,NA,719,"<button class=""jspsych-btn""><img src=""stimuli/purple.png"" style=""width: 200px;height: 200px;""></button>",0,purple,yellow,"[""purple"",""yellow"",""high nameability""]",left-right,"[""purple"",""yellow"",""high nameability""]",2,high nameability,19,left,response,1,CAN_103
/Users/martincz/Documents/Madison/Sapirlab/colorRuleKid/norming/v1/analysis/../data/raw_data/adults/color-rule-kid-norming_CAN_103_FINAL_SESSION_2023-03-06_12h35.41.994.csv,html-button-response,102,1462255,0.0-79.0-0.0,CAN_103,103,NA,NA,NA,NA,NA,635,"<button class=""jspsych-btn""><img src=""stimuli/purple.png"" style=""width: 200px;height: 200px;""></button>",0,purple,orange,"[""purple"",""orange"",""high nameability""]",left-right,"[""purple"",""orange"",""high nameability""]",2,high nameability,20,left,response,1,CAN_103
/Users/martincz/Documents/Madison/Sapirlab/colorRuleKid/norming/v1/analysis/../data/raw_data/adults/color-rule-kid-norming_CAN_103_FINAL_SESSION_2023-03-06_12h35.41.994.csv,html-button-response,110,1467241,0.0-86.0-0.0,CAN_103,103,NA,NA,NA,NA,NA,677,"<button class=""jspsych-btn""><img src=""stimuli/neonyellow.png"" style=""width: 200px;height: 200px;""></button>",0,neonyellow,mustard,"[""neonyellow"",""mustard"",""low nameability""]",left-right,"[""neonyellow"",""mustard"",""low nameability""]",3,low nameability,21,left,response,1,CAN_103
/Users/martincz/Documents/Madison/Sapirlab/colorRuleKid/norming/v1/analysis/../data/raw_data/adults/color-rule-kid-norming_CAN_103_FINAL_SESSION_2023-03-06_12h35.41.994.csv,html-button-response,114,1468953,0.0-89.0-0.0,CAN_103,103,NA,NA,NA,NA,NA,561,"<button class=""jspsych-btn""><img src=""stimuli/turquoise.png"" style=""width: 200px;height: 200px;""></button>",1,turquoise,darkgreenblue,"[""turquoise"",""darkgreenblue"",""low nameability""]",right-left,"[""darkgreenblue"",""turquoise""]",3,low nameability,22,right,response,1,CAN_103
/Users/martincz/Documents/Madison/Sapirlab/colorRuleKid/norming/v1/analysis/../data/raw_data/adults/color-rule-kid-norming_CAN_103_FINAL_SESSION_2023-03-06_12h35.41.994.csv,html-button-response,118,1470868,0.0-92.0-0.0,CAN_103,103,NA,NA,NA,NA,NA,708,"<button class=""jspsych-btn""><img src=""stimuli/brown.png"" style=""width: 200px;height: 200px;""></button>",1,brown,red,"[""brown"",""red"",""high nameability""]",right-left,"[""red"",""brown""]",3,high nameability,23,right,response,1,CAN_103
/Users/martincz/Documents/Madison/Sapirlab/colorRuleKid/norming/v1/analysis/../data/raw_data/adults/color-rule-kid-norming_CAN_103_FINAL_SESSION_2023-03-06_12h35.41.994.csv,html-button-response,122,1472743,0.0-95.0-0.0,CAN_103,103,NA,NA,NA,NA,NA,645,"<button class=""jspsych-btn""><img src=""stimuli/yellow.png"" style=""width: 200px;height: 200px;""></button>",0,yellow,red,"[""yellow"",""red"",""high nameability""]",left-right,"[""yellow"",""red"",""high nameability""]",3,high nameability,24,left,response,1,CAN_103
/Users/martincz/Documents/Madison/Sapirlab/colorRuleKid/norming/v1/analysis/../data/raw_data/adults/color-rule-kid-norming_CAN_103_FINAL_SESSION_2023-03-06_12h35.41.994.csv,html-button-response,126,1474605,0.0-98.0-0.0,CAN_103,103,NA,NA,NA,NA,NA,634,"<button class=""jspsych-btn""><img src=""stimuli/purple.png"" style=""width: 200px;height: 200px;""></button>",0,purple,blue,"[""purple"",""blue"",""high nameability""]",left-right,"[""purple"",""blue"",""high nameability""]",3,high nameability,25,left,response,1,CAN_103
/Users/martincz/Documents/Madison/Sapirlab/colorRuleKid/norming/v1/analysis/../data/raw_data/adults/color-rule-kid-norming_CAN_103_FINAL_SESSION_2023-03-06_12h35.41.994.csv,html-button-response,130,1476464,0.0-101.0-0.0,CAN_103,103,NA,NA,NA,NA,NA,655,"<button class=""jspsych-btn""><img src=""stimuli/brown.png"" style=""width: 200px;height: 200px;""></button>",0,brown,orange,"[""brown"",""orange"",""high nameability""]",left-right,"[""brown"",""orange"",""high nameability""]",3,high nameability,26,left,response,1,CAN_103
/Users/martincz/Documents/Madison/Sapirlab/colorRuleKid/norming/v1/analysis/../data/raw_data/adults/color-rule-kid-norming_CAN_103_FINAL_SESSION_2023-03-06_12h35.41.994.csv,html-button-response,134,1478249,0.0-104.0-0.0,CAN_103,103,NA,NA,NA,NA,NA,598,"<button class=""jspsych-btn""><img src=""stimuli/yellow.png"" style=""width: 200px;height: 200px;""></button>",1,yellow,purple,"[""yellow"",""purple"",""high nameability""]",right-left,"[""purple"",""yellow""]",3,high nameability,27,right,response,1,CAN_103
/Users/martincz/Documents/Madison/Sapirlab/colorRuleKid/norming/v1/analysis/../data/raw_data/adults/color-rule-kid-norming_CAN_103_FINAL_SESSION_2023-03-06_12h35.41.994.csv,html-button-response,138,1480965,0.0-107.0-0.0,CAN_103,103,NA,NA,NA,NA,NA,596,"<button class=""jspsych-btn""><img src=""stimuli/pink.png"" style=""width: 200px;height: 200px;""></button>",1,pink,darkgreenblue,"[""pink"",""darkgreenblue"",""low nameability""]",right-left,"[""darkgreenblue"",""pink""]",3,low nameability,28,right,response,1,CAN_103
/Users/martincz/Documents/Madison/Sapirlab/colorRuleKid/norming/v1/analysis/../data/raw_data/adults/color-rule-kid-norming_CAN_103_FINAL_SESSION_2023-03-06_12h35.41.994.csv,html-button-response,142,1482790,0.0-110.0-0.0,CAN_103,103,NA,NA,NA,NA,NA,578,"<button class=""jspsych-btn""><img src=""stimuli/lightred.png"" style=""width: 200px;height: 200px;""></button>",1,lightred,pink,"[""lightred"",""pink"",""low nameability""]",right-left,"[""pink"",""lightred""]",3,low nameability,29,right,response,1,CAN_103
/Users/martincz/Documents/Madison/Sapirlab/colorRuleKid/norming/v1/analysis/../data/raw_data/adults/color-rule-kid-norming_CAN_103_FINAL_SESSION_2023-03-06_12h35.41.994.csv,html-button-response,146,1484641,0.0-113.0-0.0,CAN_103,103,NA,NA,NA,NA,NA,655,"<button class=""jspsych-btn""><img src=""stimuli/darkgreenblue.png"" style=""width: 200px;height: 200px;""></button>",0,darkgreenblue,mustard,"[""darkgreenblue"",""mustard"",""low nameability""]",left-right,"[""darkgreenblue"",""mustard"",""low nameability""]",3,low nameability,30,left,response,1,CAN_103
/Users/martincz/Documents/Madison/Sapirlab/colorRuleKid/norming/v1/analysis/../data/raw_data/adults/color-rule-kid-norming_CAN_103_FINAL_SESSION_2023-03-06_12h35.41.994.csv,html-button-response,154,1489079,0.0-120.0-0.0,CAN_103,103,NA,NA,NA,NA,NA,579,"<button class=""jspsych-btn""><img src=""stimuli/darkgreenblue.png"" style=""width: 200px;height: 200px;""></button>",1,darkgreenblue,lightred,"[""darkgreenblue"",""lightred"",""low nameability""]",right-left,"[""lightred"",""darkgreenblue""]",4,low nameability,31,right,response,1,CAN_103
/Users/martincz/Documents/Madison/Sapirlab/colorRuleKid/norming/v1/analysis/../data/raw_data/adults/color-rule-kid-norming_CAN_103_FINAL_SESSION_2023-03-06_12h35.41.994.csv,html-button-response,158,1490787,0.0-123.0-0.0,CAN_103,103,NA,NA,NA,NA,NA,541,"<button class=""jspsych-btn""><img src=""stimuli/turquoise.png"" style=""width: 200px;height: 200px;""></button>",1,turquoise,lightred,"[""turquoise"",""lightred"",""low nameability""]",right-left,"[""lightred"",""turquoise""]",4,low nameability,32,right,response,1,CAN_103
/Users/martincz/Documents/Madison/Sapirlab/colorRuleKid/norming/v1/analysis/../data/raw_data/adults/color-rule-kid-norming_CAN_103_FINAL_SESSION_2023-03-06_12h35.41.994.csv,html-button-response,162,1492506,0.0-126.0-0.0,CAN_103,103,NA,NA,NA,NA,NA,515,"<button class=""jspsych-btn""><img src=""stimuli/purple.png"" style=""width: 200px;height: 200px;""></button>",1,purple,red,"[""purple"",""red"",""high nameability""]",right-left,"[""red"",""purple""]",4,high nameability,33,right,response,1,CAN_103
/Users/martincz/Documents/Madison/Sapirlab/colorRuleKid/norming/v1/analysis/../data/raw_data/adults/color-rule-kid-norming_CAN_103_FINAL_SESSION_2023-03-06_12h35.41.994.csv,html-button-response,166,1494377,0.0-129.0-0.0,CAN_103,103,NA,NA,NA,NA,NA,672,"<button class=""jspsych-btn""><img src=""stimuli/pink.png"" style=""width: 200px;height: 200px;""></button>",0,pink,lightred,"[""pink"",""lightred"",""low nameability""]",left-right,"[""pink"",""lightred"",""low nameability""]",4,low nameability,34,left,response,1,CAN_103
/Users/martincz/Documents/Madison/Sapirlab/colorRuleKid/norming/v1/analysis/../data/raw_data/adults/color-rule-kid-norming_CAN_103_FINAL_SESSION_2023-03-06_12h35.41.994.csv,html-button-response,170,1497009,0.0-132.0-0.0,CAN_103,103,NA,NA,NA,NA,NA,565,"<button class=""jspsych-btn""><img src=""stimuli/mustard.png"" style=""width: 200px;height: 200px;""></button>",1,mustard,neonyellow,"[""mustard"",""neonyellow"",""low nameability""]",right-left,"[""neonyellow"",""mustard""]",4,low nameability,35,right,response,1,CAN_103
/Users/martincz/Documents/Madison/Sapirlab/colorRuleKid/norming/v1/analysis/../data/raw_data/adults/color-rule-kid-norming_CAN_103_FINAL_SESSION_2023-03-06_12h35.41.994.csv,html-button-response,174,1499341,0.0-135.0-0.0,CAN_103,103,NA,NA,NA,NA,NA,1131,"<button class=""jspsych-btn""><img src=""stimuli/red.png"" style=""width: 200px;height: 200px;""></button>",1,red,blue,"[""red"",""blue"",""high nameability""]",right-left,"[""blue"",""red""]",4,high nameability,36,right,response,1,CAN_103
/Users/martincz/Documents/Madison/Sapirlab/colorRuleKid/norming/v1/analysis/../data/raw_data/adults/color-rule-kid-norming_CAN_103_FINAL_SESSION_2023-03-06_12h35.41.994.csv,html-button-response,178,1501218,0.0-138.0-0.0,CAN_103,103,NA,NA,NA,NA,NA,657,"<button class=""jspsych-btn""><img src=""stimuli/lightred.png"" style=""width: 200px;height: 200px;""></button>",0,lightred,darkgreenblue,"[""lightred"",""darkgreenblue"",""low nameability""]",left-right,"[""lightred"",""darkgreenblue"",""low nameability""]",4,low nameability,37,left,response,1,CAN_103
/Users/martincz/Documents/Madison/Sapirlab/colorRuleKid/norming/v1/analysis/../data/raw_data/adults/color-rule-kid-norming_CAN_103_FINAL_SESSION_2023-03-06_12h35.41.994.csv,html-button-response,182,1505948,0.0-141.0-0.0,CAN_103,103,NA,NA,NA,NA,NA,858,"<button class=""jspsych-btn""><img src=""stimuli/neonyellow.png"" style=""width: 200px;height: 200px;""></button>",1,neonyellow,pink,"[""neonyellow"",""pink"",""low nameability""]",right-left,"[""pink"",""neonyellow""]",4,low nameability,38,right,response,1,CAN_103
/Users/martincz/Documents/Madison/Sapirlab/colorRuleKid/norming/v1/analysis/../data/raw_data/adults/color-rule-kid-norming_CAN_103_FINAL_SESSION_2023-03-06_12h35.41.994.csv,html-button-response,186,1507810,0.0-144.0-0.0,CAN_103,103,NA,NA,NA,NA,NA,603,"<button class=""jspsych-btn""><img src=""stimuli/red.png"" style=""width: 200px;height: 200px;""></button>",1,red,orange,"[""red"",""orange"",""high nameability""]",right-left,"[""orange"",""red""]",4,high nameability,39,right,response,1,CAN_103
/Users/martincz/Documents/Madison/Sapirlab/colorRuleKid/norming/v1/analysis/../data/raw_data/adults/color-rule-kid-norming_CAN_103_FINAL_SESSION_2023-03-06_12h35.41.994.csv,html-button-response,190,1509604,0.0-147.0-0.0,CAN_103,103,NA,NA,NA,NA,NA,630,"<button class=""jspsych-btn""><img src=""stimuli/brown.png"" style=""width: 200px;height: 200px;""></button>",0,brown,purple,"[""brown"",""purple"",""high nameability""]",left-right,"[""brown"",""purple"",""high nameability""]",4,high nameability,40,left,response,1,CAN_103
/Users/martincz/Documents/Madison/Sapirlab/colorRuleKid/norming/v1/analysis/../data/raw_data/adults/color-rule-kid-norming_CAN_103_FINAL_SESSION_2023-03-06_12h35.41.994.csv,html-button-response,198,1513902,0.0-154.0-0.0,CAN_103,103,NA,NA,NA,NA,NA,543,"<button class=""jspsych-btn""><img src=""stimuli/lightred.png"" style=""width: 200px;height: 200px;""></button>",1,lightred,neonyellow,"[""lightred"",""neonyellow"",""low nameability""]",right-left,"[""neonyellow"",""lightred""]",5,low nameability,41,right,response,1,CAN_103
/Users/martincz/Documents/Madison/Sapirlab/colorRuleKid/norming/v1/analysis/../data/raw_data/adults/color-rule-kid-norming_CAN_103_FINAL_SESSION_2023-03-06_12h35.41.994.csv,html-button-response,202,1515694,0.0-157.0-0.0,CAN_103,103,NA,NA,NA,NA,NA,592,"<button class=""jspsych-btn""><img src=""stimuli/blue.png"" style=""width: 200px;height: 200px;""></button>",0,blue,yellow,"[""blue"",""yellow"",""high nameability""]",left-right,"[""blue"",""yellow"",""high nameability""]",5,high nameability,42,left,response,1,CAN_103
/Users/martincz/Documents/Madison/Sapirlab/colorRuleKid/norming/v1/analysis/../data/raw_data/adults/color-rule-kid-norming_CAN_103_FINAL_SESSION_2023-03-06_12h35.41.994.csv,html-button-response,206,1517531,0.0-160.0-0.0,CAN_103,103,NA,NA,NA,NA,NA,605,"<button class=""jspsych-btn""><img src=""stimuli/mustard.png"" style=""width: 200px;height: 200px;""></button>",0,mustard,pink,"[""mustard"",""pink"",""low nameability""]",left-right,"[""mustard"",""pink"",""low nameability""]",5,low nameability,43,left,response,1,CAN_103
/Users/martincz/Documents/Madison/Sapirlab/colorRuleKid/norming/v1/analysis/../data/raw_data/adults/color-rule-kid-norming_CAN_103_FINAL_SESSION_2023-03-06_12h35.41.994.csv,html-button-response,210,1519279,0.0-163.0-0.0,CAN_103,103,NA,NA,NA,NA,NA,547,"<button class=""jspsych-btn""><img src=""stimuli/mustard.png"" style=""width: 200px;height: 200px;""></button>",1,mustard,turquoise,"[""mustard"",""turquoise"",""low nameability""]",right-left,"[""turquoise"",""mustard""]",5,low nameability,44,right,response,1,CAN_103
/Users/martincz/Documents/Madison/Sapirlab/colorRuleKid/norming/v1/analysis/../data/raw_data/adults/color-rule-kid-norming_CAN_103_FINAL_SESSION_2023-03-06_12h35.41.994.csv,html-button-response,214,1521082,0.0-166.0-0.0,CAN_103,103,NA,NA,NA,NA,NA,605,"<button class=""jspsych-btn""><img src=""stimuli/blue.png"" style=""width: 200px;height: 200px;""></button>",0,blue,brown,"[""blue"",""brown"",""high nameability""]",left-right,"[""blue"",""brown"",""high nameability""]",5,high nameability,45,left,response,1,CAN_103
/Users/martincz/Documents/Madison/Sapirlab/colorRuleKid/norming/v1/analysis/../data/raw_data/adults/color-rule-kid-norming_CAN_103_FINAL_SESSION_2023-03-06_12h35.41.994.csv,html-button-response,218,1522797,0.0-169.0-0.0,CAN_103,103,NA,NA,NA,NA,NA,543,"<button class=""jspsych-btn""><img src=""stimuli/blue.png"" style=""width: 200px;height: 200px;""></button>",1,blue,orange,"[""blue"",""orange"",""high nameability""]",right-left,"[""orange"",""blue""]",5,high nameability,46,right,response,1,CAN_103
/Users/martincz/Documents/Madison/Sapirlab/colorRuleKid/norming/v1/analysis/../data/raw_data/adults/color-rule-kid-norming_CAN_103_FINAL_SESSION_2023-03-06_12h35.41.994.csv,html-button-response,222,1524514,0.0-172.0-0.0,CAN_103,103,NA,NA,NA,NA,NA,546,"<button class=""jspsych-btn""><img src=""stimuli/pink.png"" style=""width: 200px;height: 200px;""></button>",1,pink,turquoise,"[""pink"",""turquoise"",""low nameability""]",right-left,"[""turquoise"",""pink""]",5,low nameability,47,right,response,1,CAN_103
/Users/martincz/Documents/Madison/Sapirlab/colorRuleKid/norming/v1/analysis/../data/raw_data/adults/color-rule-kid-norming_CAN_103_FINAL_SESSION_2023-03-06_12h35.41.994.csv,html-button-response,226,1526317,0.0-175.0-0.0,CAN_103,103,NA,NA,NA,NA,NA,584,"<button class=""jspsych-btn""><img src=""stimuli/lightred.png"" style=""width: 200px;height: 200px;""></button>",1,lightred,turquoise,"[""lightred"",""turquoise"",""low nameability""]",right-left,"[""turquoise"",""lightred""]",5,low nameability,48,right,response,1,CAN_103
/Users/martincz/Documents/Madison/Sapirlab/colorRuleKid/norming/v1/analysis/../data/raw_data/adults/color-rule-kid-norming_CAN_103_FINAL_SESSION_2023-03-06_12h35.41.994.csv,html-button-response,230,1528950,0.0-178.0-0.0,CAN_103,103,NA,NA,NA,NA,NA,625,"<button class=""jspsych-btn""><img src=""stimuli/lightred.png"" style=""width: 200px;height: 200px;""></button>",0,lightred,mustard,"[""lightred"",""mustard"",""low nameability""]",left-right,"[""lightred"",""mustard"",""low nameability""]",5,low nameability,49,left,response,1,CAN_103
/Users/martincz/Documents/Madison/Sapirlab/colorRuleKid/norming/v1/analysis/../data/raw_data/adults/color-rule-kid-norming_CAN_103_FINAL_SESSION_2023-03-06_12h35.41.994.csv,html-button-response,234,1530848,0.0-181.0-0.0,CAN_103,103,NA,NA,NA,NA,NA,681,"<button class=""jspsych-btn""><img src=""stimuli/neonyellow.png"" style=""width: 200px;height: 200px;""></button>",0,neonyellow,lightred,"[""neonyellow"",""lightred"",""low nameability""]",left-right,"[""neonyellow"",""lightred"",""low nameability""]",5,low nameability,50,left,response,1,CAN_103
/Users/martincz/Documents/Madison/Sapirlab/colorRuleKid/norming/v1/analysis/../data/raw_data/adults/color-rule-kid-norming_CAN_103_FINAL_SESSION_2023-03-06_12h35.41.994.csv,html-button-response,242,1535943,0.0-188.0-0.0,CAN_103,103,NA,NA,NA,NA,NA,634,"<button class=""jspsych-btn""><img src=""stimuli/orange.png"" style=""width: 200px;height: 200px;""></button>",0,orange,brown,"[""orange"",""brown"",""high nameability""]",left-right,"[""orange"",""brown"",""high nameability""]",6,high nameability,51,left,response,1,CAN_103
/Users/martincz/Documents/Madison/Sapirlab/colorRuleKid/norming/v1/analysis/../data/raw_data/adults/color-rule-kid-norming_CAN_103_FINAL_SESSION_2023-03-06_12h35.41.994.csv,html-button-response,246,1537564,0.0-191.0-0.0,CAN_103,103,NA,NA,NA,NA,NA,672,"<button class=""jspsych-btn""><img src=""stimuli/orange.png"" style=""width: 200px;height: 200px;""></button>",0,orange,red,"[""orange"",""red"",""high nameability""]",left-right,"[""orange"",""red"",""high nameability""]",6,high nameability,52,left,response,1,CAN_103
/Users/martincz/Documents/Madison/Sapirlab/colorRuleKid/norming/v1/analysis/../data/raw_data/adults/color-rule-kid-norming_CAN_103_FINAL_SESSION_2023-03-06_12h35.41.994.csv,html-button-response,250,1539429,0.0-194.0-0.0,CAN_103,103,NA,NA,NA,NA,NA,643,"<button class=""jspsych-btn""><img src=""stimuli/turquoise.png"" style=""width: 200px;height: 200px;""></button>",0,turquoise,neonyellow,"[""turquoise"",""neonyellow"",""low nameability""]",left-right,"[""turquoise"",""neonyellow"",""low nameability""]",6,low nameability,53,left,response,1,CAN_103
/Users/martincz/Documents/Madison/Sapirlab/colorRuleKid/norming/v1/analysis/../data/raw_data/adults/color-rule-kid-norming_CAN_103_FINAL_SESSION_2023-03-06_12h35.41.994.csv,html-button-response,254,1541307,0.0-197.0-0.0,CAN_103,103,NA,NA,NA,NA,NA,694,"<button class=""jspsych-btn""><img src=""stimuli/pink.png"" style=""width: 200px;height: 200px;""></button>",1,pink,neonyellow,"[""pink"",""neonyellow"",""low nameability""]",right-left,"[""neonyellow"",""pink""]",6,low nameability,54,right,response,1,CAN_103
/Users/martincz/Documents/Madison/Sapirlab/colorRuleKid/norming/v1/analysis/../data/raw_data/adults/color-rule-kid-norming_CAN_103_FINAL_SESSION_2023-03-06_12h35.41.994.csv,html-button-response,258,1543140,0.0-200.0-0.0,CAN_103,103,NA,NA,NA,NA,NA,669,"<button class=""jspsych-btn""><img src=""stimuli/orange.png"" style=""width: 200px;height: 200px;""></button>",0,orange,yellow,"[""orange"",""yellow"",""high nameability""]",left-right,"[""orange"",""yellow"",""high nameability""]",6,high nameability,55,left,response,1,CAN_103
/Users/martincz/Documents/Madison/Sapirlab/colorRuleKid/norming/v1/analysis/../data/raw_data/adults/color-rule-kid-norming_CAN_103_FINAL_SESSION_2023-03-06_12h35.41.994.csv,html-button-response,262,1544852,0.0-203.0-0.0,CAN_103,103,NA,NA,NA,NA,NA,553,"<button class=""jspsych-btn""><img src=""stimuli/brown.png"" style=""width: 200px;height: 200px;""></button>",1,brown,yellow,"[""brown"",""yellow"",""high nameability""]",right-left,"[""yellow"",""brown""]",6,high nameability,56,right,response,1,CAN_103
/Users/martincz/Documents/Madison/Sapirlab/colorRuleKid/norming/v1/analysis/../data/raw_data/adults/color-rule-kid-norming_CAN_103_FINAL_SESSION_2023-03-06_12h35.41.994.csv,html-button-response,266,1546850,0.0-206.0-0.0,CAN_103,103,NA,NA,NA,NA,NA,609,"<button class=""jspsych-btn""><img src=""stimuli/purple.png"" style=""width: 200px;height: 200px;""></button>",0,purple,brown,"[""purple"",""brown"",""high nameability""]",left-right,"[""purple"",""brown"",""high nameability""]",6,high nameability,57,left,response,1,CAN_103
/Users/martincz/Documents/Madison/Sapirlab/colorRuleKid/norming/v1/analysis/../data/raw_data/adults/color-rule-kid-norming_CAN_103_FINAL_SESSION_2023-03-06_12h35.41.994.csv,html-button-response,270,1548622,0.0-209.0-0.0,CAN_103,103,NA,NA,NA,NA,NA,624,"<button class=""jspsych-btn""><img src=""stimuli/turquoise.png"" style=""width: 200px;height: 200px;""></button>",0,turquoise,mustard,"[""turquoise"",""mustard"",""low nameability""]",left-right,"[""turquoise"",""mustard"",""low nameability""]",6,low nameability,58,left,response,1,CAN_103
/Users/martincz/Documents/Madison/Sapirlab/colorRuleKid/norming/v1/analysis/../data/raw_data/adults/color-rule-kid-norming_CAN_103_FINAL_SESSION_2023-03-06_12h35.41.994.csv,html-button-response,274,1550415,0.0-212.0-0.0,CAN_103,103,NA,NA,NA,NA,NA,610,"<button class=""jspsych-btn""><img src=""stimuli/mustard.png"" style=""width: 200px;height: 200px;""></button>",0,mustard,lightred,"[""mustard"",""lightred"",""low nameability""]",left-right,"[""mustard"",""lightred"",""low nameability""]",6,low nameability,59,left,response,1,CAN_103
