file_path,trial_type,trial_index,time_elapsed,internal_node_id,subject_id,seed,success,timeout,failed_images,failed_audio,failed_video,rt,stimulus,response,target,foil,choices,combination_order,choices_in_order,round,condition,trial_counter,target_location,trial_kind,correct,old_subject_id
/Users/martincz/Documents/Madison/Sapirlab/colorRuleKid/norming/v1/analysis/../data/raw_data/kids/color-rule-kid-norming_CKN_101_FINAL_SESSION_2023-03-03_09h46.50.637.csv,html-button-response,5,64004,0.0-5.0-0.0,CKN_101,101,NA,NA,NA,NA,NA,12209,"<button class=""jspsych-btn""><img src=""stimuli/star.png"" style=""width: 200px;height: 200px;""></button>",0,star,square,"[""square"",""star""]",left-right,"[""square"",""star""]",1,practice,1,right,response,0,CKN_101
/Users/martincz/Documents/Madison/Sapirlab/colorRuleKid/norming/v1/analysis/../data/raw_data/kids/color-rule-kid-norming_CKN_101_FINAL_SESSION_2023-03-03_09h46.50.637.csv,html-button-response,7,75549,0.0-5.1-0.1,CKN_101,101,NA,NA,NA,NA,NA,10890,"<button class=""jspsych-btn""><img src=""stimuli/star.png"" style=""width: 200px;height: 200px;""></button>",1,star,square,"[""square"",""star""]",left-right,"[""square"",""star""]",1,practice,1,right,response,1,CKN_101
/Users/martincz/Documents/Madison/Sapirlab/colorRuleKid/norming/v1/analysis/../data/raw_data/kids/color-rule-kid-norming_CKN_101_FINAL_SESSION_2023-03-03_09h46.50.637.csv,html-button-response,11,84739,0.0-8.0-0.0,CKN_101,101,NA,NA,NA,NA,NA,5239,"<button class=""jspsych-btn""><img src=""stimuli/triangle.png"" style=""width: 200px;height: 200px;""></button>",1,triangle,pentagram,"[""triangle"",""pentagram""]",left-right,"[""triangle"",""pentagram""]",1,practice,1,left,response,0,CKN_101
/Users/martincz/Documents/Madison/Sapirlab/colorRuleKid/norming/v1/analysis/../data/raw_data/kids/color-rule-kid-norming_CKN_101_FINAL_SESSION_2023-03-03_09h46.50.637.csv,html-button-response,13,92606,0.0-8.1-0.1,CKN_101,101,NA,NA,NA,NA,NA,7218,"<button class=""jspsych-btn""><img src=""stimuli/triangle.png"" style=""width: 200px;height: 200px;""></button>",0,triangle,pentagram,"[""triangle"",""pentagram""]",left-right,"[""triangle"",""pentagram""]",1,practice,1,left,response,1,CKN_101
/Users/martincz/Documents/Madison/Sapirlab/colorRuleKid/norming/v1/analysis/../data/raw_data/kids/color-rule-kid-norming_CKN_101_FINAL_SESSION_2023-03-03_09h46.50.637.csv,html-button-response,17,98289,0.0-11.0-0.0,CKN_101,101,NA,NA,NA,NA,NA,3043,"<button class=""jspsych-btn""><img src=""stimuli/diamond.png"" style=""width: 200px;height: 200px;""></button>",0,diamond,rectangle,"[""rectangle"",""diamond""]",left-right,"[""rectangle"",""diamond""]",1,practice,1,right,response,0,CKN_101
/Users/martincz/Documents/Madison/Sapirlab/colorRuleKid/norming/v1/analysis/../data/raw_data/kids/color-rule-kid-norming_CKN_101_FINAL_SESSION_2023-03-03_09h46.50.637.csv,html-button-response,19,100803,0.0-11.1-0.1,CKN_101,101,NA,NA,NA,NA,NA,1855,"<button class=""jspsych-btn""><img src=""stimuli/diamond.png"" style=""width: 200px;height: 200px;""></button>",1,diamond,rectangle,"[""rectangle"",""diamond""]",left-right,"[""rectangle"",""diamond""]",1,practice,1,right,response,1,CKN_101
/Users/martincz/Documents/Madison/Sapirlab/colorRuleKid/norming/v1/analysis/../data/raw_data/kids/color-rule-kid-norming_CKN_101_FINAL_SESSION_2023-03-03_09h46.50.637.csv,html-button-response,23,109122,0.0-14.0-0.0,CKN_101,101,NA,NA,NA,NA,NA,5504,"<button class=""jspsych-btn""><img src=""stimuli/pentagram.png"" style=""width: 200px;height: 200px;""></button>",1,pentagram,star,"[""pentagram"",""star""]",left-right,"[""pentagram"",""star""]",1,practice,1,left,response,0,CKN_101
/Users/martincz/Documents/Madison/Sapirlab/colorRuleKid/norming/v1/analysis/../data/raw_data/kids/color-rule-kid-norming_CKN_101_FINAL_SESSION_2023-03-03_09h46.50.637.csv,html-button-response,25,111852,0.0-14.1-0.1,CKN_101,101,NA,NA,NA,NA,NA,2094,"<button class=""jspsych-btn""><img src=""stimuli/pentagram.png"" style=""width: 200px;height: 200px;""></button>",0,pentagram,star,"[""pentagram"",""star""]",left-right,"[""pentagram"",""star""]",1,practice,1,left,response,1,CKN_101
/Users/martincz/Documents/Madison/Sapirlab/colorRuleKid/norming/v1/analysis/../data/raw_data/kids/color-rule-kid-norming_CKN_101_FINAL_SESSION_2023-03-03_09h46.50.637.csv,html-button-response,30,130106,0.0-18.0-0.0,CKN_101,101,NA,NA,NA,NA,NA,2816,"<button class=""jspsych-btn""><img src=""stimuli/pink.png"" style=""width: 200px;height: 200px;""></button>",1,pink,darkgreenblue,"[""pink"",""darkgreenblue"",""low nameability""]",left-right,"[""pink"",""darkgreenblue"",""low nameability""]",1,low nameability,1,left,response,0,CKN_101
/Users/martincz/Documents/Madison/Sapirlab/colorRuleKid/norming/v1/analysis/../data/raw_data/kids/color-rule-kid-norming_CKN_101_FINAL_SESSION_2023-03-03_09h46.50.637.csv,html-button-response,32,131173,0.0-18.1-0.1,CKN_101,101,NA,NA,NA,NA,NA,418,"<button class=""jspsych-btn""><img src=""stimuli/pink.png"" style=""width: 200px;height: 200px;""></button>",0,pink,darkgreenblue,"[""pink"",""darkgreenblue"",""low nameability""]",left-right,"[""pink"",""darkgreenblue"",""low nameability""]",1,low nameability,1,left,response,1,CKN_101
/Users/martincz/Documents/Madison/Sapirlab/colorRuleKid/norming/v1/analysis/../data/raw_data/kids/color-rule-kid-norming_CKN_101_FINAL_SESSION_2023-03-03_09h46.50.637.csv,html-button-response,36,136749,0.0-21.0-0.0,CKN_101,101,NA,NA,NA,NA,NA,2515,"<button class=""jspsych-btn""><img src=""stimuli/yellow.png"" style=""width: 200px;height: 200px;""></button>",0,yellow,red,"[""yellow"",""red"",""high nameability""]",right-left,"[""red"",""yellow""]",1,high nameability,2,right,response,0,CKN_101
/Users/martincz/Documents/Madison/Sapirlab/colorRuleKid/norming/v1/analysis/../data/raw_data/kids/color-rule-kid-norming_CKN_101_FINAL_SESSION_2023-03-03_09h46.50.637.csv,html-button-response,38,137475,0.0-21.1-0.1,CKN_101,101,NA,NA,NA,NA,NA,84,"<button class=""jspsych-btn""><img src=""stimuli/yellow.png"" style=""width: 200px;height: 200px;""></button>",1,yellow,red,"[""yellow"",""red"",""high nameability""]",right-left,"[""red"",""yellow""]",1,high nameability,2,right,response,1,CKN_101
/Users/martincz/Documents/Madison/Sapirlab/colorRuleKid/norming/v1/analysis/../data/raw_data/kids/color-rule-kid-norming_CKN_101_FINAL_SESSION_2023-03-03_09h46.50.637.csv,html-button-response,42,143053,0.0-24.0-0.0,CKN_101,101,NA,NA,NA,NA,NA,3292,"<button class=""jspsych-btn""><img src=""stimuli/purple.png"" style=""width: 200px;height: 200px;""></button>",0,purple,brown,"[""purple"",""brown"",""high nameability""]",right-left,"[""brown"",""purple""]",1,high nameability,3,right,response,0,CKN_101
/Users/martincz/Documents/Madison/Sapirlab/colorRuleKid/norming/v1/analysis/../data/raw_data/kids/color-rule-kid-norming_CKN_101_FINAL_SESSION_2023-03-03_09h46.50.637.csv,html-button-response,44,144362,0.0-24.1-0.1,CKN_101,101,NA,NA,NA,NA,NA,671,"<button class=""jspsych-btn""><img src=""stimuli/purple.png"" style=""width: 200px;height: 200px;""></button>",1,purple,brown,"[""purple"",""brown"",""high nameability""]",right-left,"[""brown"",""purple""]",1,high nameability,3,right,response,1,CKN_101
/Users/martincz/Documents/Madison/Sapirlab/colorRuleKid/norming/v1/analysis/../data/raw_data/kids/color-rule-kid-norming_CKN_101_FINAL_SESSION_2023-03-03_09h46.50.637.csv,html-button-response,48,151339,0.0-27.0-0.0,CKN_101,101,NA,NA,NA,NA,NA,2226,"<button class=""jspsych-btn""><img src=""stimuli/darkgreenblue.png"" style=""width: 200px;height: 200px;""></button>",1,darkgreenblue,mustard,"[""darkgreenblue"",""mustard"",""low nameability""]",right-left,"[""mustard"",""darkgreenblue""]",1,low nameability,4,right,response,1,CKN_101
/Users/martincz/Documents/Madison/Sapirlab/colorRuleKid/norming/v1/analysis/../data/raw_data/kids/color-rule-kid-norming_CKN_101_FINAL_SESSION_2023-03-03_09h46.50.637.csv,html-button-response,52,161412,0.0-30.0-0.0,CKN_101,101,NA,NA,NA,NA,NA,5311,"<button class=""jspsych-btn""><img src=""stimuli/purple.png"" style=""width: 200px;height: 200px;""></button>",0,purple,yellow,"[""purple"",""yellow"",""high nameability""]",right-left,"[""yellow"",""purple""]",1,high nameability,5,right,response,0,CKN_101
/Users/martincz/Documents/Madison/Sapirlab/colorRuleKid/norming/v1/analysis/../data/raw_data/kids/color-rule-kid-norming_CKN_101_FINAL_SESSION_2023-03-03_09h46.50.637.csv,html-button-response,54,163157,0.0-30.1-0.1,CKN_101,101,NA,NA,NA,NA,NA,1102,"<button class=""jspsych-btn""><img src=""stimuli/purple.png"" style=""width: 200px;height: 200px;""></button>",1,purple,yellow,"[""purple"",""yellow"",""high nameability""]",right-left,"[""yellow"",""purple""]",1,high nameability,5,right,response,1,CKN_101
/Users/martincz/Documents/Madison/Sapirlab/colorRuleKid/norming/v1/analysis/../data/raw_data/kids/color-rule-kid-norming_CKN_101_FINAL_SESSION_2023-03-03_09h46.50.637.csv,html-button-response,58,171424,0.0-33.0-0.0,CKN_101,101,NA,NA,NA,NA,NA,5891,"<button class=""jspsych-btn""><img src=""stimuli/red.png"" style=""width: 200px;height: 200px;""></button>",1,red,purple,"[""red"",""purple"",""high nameability""]",left-right,"[""red"",""purple"",""high nameability""]",1,high nameability,6,left,response,0,CKN_101
/Users/martincz/Documents/Madison/Sapirlab/colorRuleKid/norming/v1/analysis/../data/raw_data/kids/color-rule-kid-norming_CKN_101_FINAL_SESSION_2023-03-03_09h46.50.637.csv,html-button-response,60,173073,0.0-33.1-0.1,CKN_101,101,NA,NA,NA,NA,NA,1004,"<button class=""jspsych-btn""><img src=""stimuli/red.png"" style=""width: 200px;height: 200px;""></button>",0,red,purple,"[""red"",""purple"",""high nameability""]",left-right,"[""red"",""purple"",""high nameability""]",1,high nameability,6,left,response,1,CKN_101
/Users/martincz/Documents/Madison/Sapirlab/colorRuleKid/norming/v1/analysis/../data/raw_data/kids/color-rule-kid-norming_CKN_101_FINAL_SESSION_2023-03-03_09h46.50.637.csv,html-button-response,64,177816,0.0-36.0-0.0,CKN_101,101,NA,NA,NA,NA,NA,2716,"<button class=""jspsych-btn""><img src=""stimuli/brown.png"" style=""width: 200px;height: 200px;""></button>",1,brown,orange,"[""brown"",""orange"",""high nameability""]",left-right,"[""brown"",""orange"",""high nameability""]",1,high nameability,7,left,response,0,CKN_101
/Users/martincz/Documents/Madison/Sapirlab/colorRuleKid/norming/v1/analysis/../data/raw_data/kids/color-rule-kid-norming_CKN_101_FINAL_SESSION_2023-03-03_09h46.50.637.csv,html-button-response,66,178812,0.0-36.1-0.1,CKN_101,101,NA,NA,NA,NA,NA,345,"<button class=""jspsych-btn""><img src=""stimuli/brown.png"" style=""width: 200px;height: 200px;""></button>",0,brown,orange,"[""brown"",""orange"",""high nameability""]",left-right,"[""brown"",""orange"",""high nameability""]",1,high nameability,7,left,response,1,CKN_101
/Users/martincz/Documents/Madison/Sapirlab/colorRuleKid/norming/v1/analysis/../data/raw_data/kids/color-rule-kid-norming_CKN_101_FINAL_SESSION_2023-03-03_09h46.50.637.csv,html-button-response,70,182200,0.0-39.0-0.0,CKN_101,101,NA,NA,NA,NA,NA,1610,"<button class=""jspsych-btn""><img src=""stimuli/turquoise.png"" style=""width: 200px;height: 200px;""></button>",0,turquoise,pink,"[""turquoise"",""pink"",""low nameability""]",right-left,"[""pink"",""turquoise""]",1,low nameability,8,right,response,0,CKN_101
/Users/martincz/Documents/Madison/Sapirlab/colorRuleKid/norming/v1/analysis/../data/raw_data/kids/color-rule-kid-norming_CKN_101_FINAL_SESSION_2023-03-03_09h46.50.637.csv,html-button-response,72,183066,0.0-39.1-0.1,CKN_101,101,NA,NA,NA,NA,NA,221,"<button class=""jspsych-btn""><img src=""stimuli/turquoise.png"" style=""width: 200px;height: 200px;""></button>",1,turquoise,pink,"[""turquoise"",""pink"",""low nameability""]",right-left,"[""pink"",""turquoise""]",1,low nameability,8,right,response,1,CKN_101
/Users/martincz/Documents/Madison/Sapirlab/colorRuleKid/norming/v1/analysis/../data/raw_data/kids/color-rule-kid-norming_CKN_101_FINAL_SESSION_2023-03-03_09h46.50.637.csv,html-button-response,76,188943,0.0-42.0-0.0,CKN_101,101,NA,NA,NA,NA,NA,2338,"<button class=""jspsych-btn""><img src=""stimuli/darkgreenblue.png"" style=""width: 200px;height: 200px;""></button>",0,darkgreenblue,neonyellow,"[""darkgreenblue"",""neonyellow"",""low nameability""]",left-right,"[""darkgreenblue"",""neonyellow"",""low nameability""]",1,low nameability,9,left,response,1,CKN_101
/Users/martincz/Documents/Madison/Sapirlab/colorRuleKid/norming/v1/analysis/../data/raw_data/kids/color-rule-kid-norming_CKN_101_FINAL_SESSION_2023-03-03_09h46.50.637.csv,html-button-response,80,193236,0.0-45.0-0.0,CKN_101,101,NA,NA,NA,NA,NA,1906,"<button class=""jspsych-btn""><img src=""stimuli/brown.png"" style=""width: 200px;height: 200px;""></button>",1,brown,red,"[""brown"",""red"",""high nameability""]",left-right,"[""brown"",""red"",""high nameability""]",1,high nameability,10,left,response,0,CKN_101
/Users/martincz/Documents/Madison/Sapirlab/colorRuleKid/norming/v1/analysis/../data/raw_data/kids/color-rule-kid-norming_CKN_101_FINAL_SESSION_2023-03-03_09h46.50.637.csv,html-button-response,82,198133,0.0-45.1-0.1,CKN_101,101,NA,NA,NA,NA,NA,4244,"<button class=""jspsych-btn""><img src=""stimuli/brown.png"" style=""width: 200px;height: 200px;""></button>",0,brown,red,"[""brown"",""red"",""high nameability""]",left-right,"[""brown"",""red"",""high nameability""]",1,high nameability,10,left,response,1,CKN_101
/Users/martincz/Documents/Madison/Sapirlab/colorRuleKid/norming/v1/analysis/../data/raw_data/kids/color-rule-kid-norming_CKN_101_FINAL_SESSION_2023-03-03_09h46.50.637.csv,html-button-response,90,215558,0.0-52.0-0.0,CKN_101,101,NA,NA,NA,NA,NA,2330,"<button class=""jspsych-btn""><img src=""stimuli/yellow.png"" style=""width: 200px;height: 200px;""></button>",0,yellow,orange,"[""yellow"",""orange"",""high nameability""]",right-left,"[""orange"",""yellow""]",2,high nameability,11,right,response,0,CKN_101
/Users/martincz/Documents/Madison/Sapirlab/colorRuleKid/norming/v1/analysis/../data/raw_data/kids/color-rule-kid-norming_CKN_101_FINAL_SESSION_2023-03-03_09h46.50.637.csv,html-button-response,92,216643,0.0-52.1-0.1,CKN_101,101,NA,NA,NA,NA,NA,436,"<button class=""jspsych-btn""><img src=""stimuli/yellow.png"" style=""width: 200px;height: 200px;""></button>",1,yellow,orange,"[""yellow"",""orange"",""high nameability""]",right-left,"[""orange"",""yellow""]",2,high nameability,11,right,response,1,CKN_101
/Users/martincz/Documents/Madison/Sapirlab/colorRuleKid/norming/v1/analysis/../data/raw_data/kids/color-rule-kid-norming_CKN_101_FINAL_SESSION_2023-03-03_09h46.50.637.csv,html-button-response,96,224750,0.0-55.0-0.0,CKN_101,101,NA,NA,NA,NA,NA,4632,"<button class=""jspsych-btn""><img src=""stimuli/purple.png"" style=""width: 200px;height: 200px;""></button>",1,purple,orange,"[""purple"",""orange"",""high nameability""]",left-right,"[""purple"",""orange"",""high nameability""]",2,high nameability,12,left,response,0,CKN_101
/Users/martincz/Documents/Madison/Sapirlab/colorRuleKid/norming/v1/analysis/../data/raw_data/kids/color-rule-kid-norming_CKN_101_FINAL_SESSION_2023-03-03_09h46.50.637.csv,html-button-response,98,229101,0.0-55.1-0.1,CKN_101,101,NA,NA,NA,NA,NA,3699,"<button class=""jspsych-btn""><img src=""stimuli/purple.png"" style=""width: 200px;height: 200px;""></button>",0,purple,orange,"[""purple"",""orange"",""high nameability""]",left-right,"[""purple"",""orange"",""high nameability""]",2,high nameability,12,left,response,1,CKN_101
/Users/martincz/Documents/Madison/Sapirlab/colorRuleKid/norming/v1/analysis/../data/raw_data/kids/color-rule-kid-norming_CKN_101_FINAL_SESSION_2023-03-03_09h46.50.637.csv,html-button-response,102,241365,0.0-58.0-0.0,CKN_101,101,NA,NA,NA,NA,NA,6506,"<button class=""jspsych-btn""><img src=""stimuli/brown.png"" style=""width: 200px;height: 200px;""></button>",1,brown,purple,"[""brown"",""purple"",""high nameability""]",left-right,"[""brown"",""purple"",""high nameability""]",2,high nameability,13,left,response,0,CKN_101
/Users/martincz/Documents/Madison/Sapirlab/colorRuleKid/norming/v1/analysis/../data/raw_data/kids/color-rule-kid-norming_CKN_101_FINAL_SESSION_2023-03-03_09h46.50.637.csv,html-button-response,104,247341,0.0-58.1-0.1,CKN_101,101,NA,NA,NA,NA,NA,5328,"<button class=""jspsych-btn""><img src=""stimuli/brown.png"" style=""width: 200px;height: 200px;""></button>",0,brown,purple,"[""brown"",""purple"",""high nameability""]",left-right,"[""brown"",""purple"",""high nameability""]",2,high nameability,13,left,response,1,CKN_101
/Users/martincz/Documents/Madison/Sapirlab/colorRuleKid/norming/v1/analysis/../data/raw_data/kids/color-rule-kid-norming_CKN_101_FINAL_SESSION_2023-03-03_09h46.50.637.csv,html-button-response,108,251912,0.0-61.0-0.0,CKN_101,101,NA,NA,NA,NA,NA,2328,"<button class=""jspsych-btn""><img src=""stimuli/mustard.png"" style=""width: 200px;height: 200px;""></button>",1,mustard,lightred,"[""mustard"",""lightred"",""low nameability""]",left-right,"[""mustard"",""lightred"",""low nameability""]",2,low nameability,14,left,response,0,CKN_101
/Users/martincz/Documents/Madison/Sapirlab/colorRuleKid/norming/v1/analysis/../data/raw_data/kids/color-rule-kid-norming_CKN_101_FINAL_SESSION_2023-03-03_09h46.50.637.csv,html-button-response,110,255403,0.0-61.1-0.1,CKN_101,101,NA,NA,NA,NA,NA,2856,"<button class=""jspsych-btn""><img src=""stimuli/mustard.png"" style=""width: 200px;height: 200px;""></button>",0,mustard,lightred,"[""mustard"",""lightred"",""low nameability""]",left-right,"[""mustard"",""lightred"",""low nameability""]",2,low nameability,14,left,response,1,CKN_101
/Users/martincz/Documents/Madison/Sapirlab/colorRuleKid/norming/v1/analysis/../data/raw_data/kids/color-rule-kid-norming_CKN_101_FINAL_SESSION_2023-03-03_09h46.50.637.csv,html-button-response,114,260503,0.0-64.0-0.0,CKN_101,101,NA,NA,NA,NA,NA,2917,"<button class=""jspsych-btn""><img src=""stimuli/lightred.png"" style=""width: 200px;height: 200px;""></button>",1,lightred,turquoise,"[""lightred"",""turquoise"",""low nameability""]",left-right,"[""lightred"",""turquoise"",""low nameability""]",2,low nameability,15,left,response,0,CKN_101
/Users/martincz/Documents/Madison/Sapirlab/colorRuleKid/norming/v1/analysis/../data/raw_data/kids/color-rule-kid-norming_CKN_101_FINAL_SESSION_2023-03-03_09h46.50.637.csv,html-button-response,116,262410,0.0-64.1-0.1,CKN_101,101,NA,NA,NA,NA,NA,1252,"<button class=""jspsych-btn""><img src=""stimuli/lightred.png"" style=""width: 200px;height: 200px;""></button>",0,lightred,turquoise,"[""lightred"",""turquoise"",""low nameability""]",left-right,"[""lightred"",""turquoise"",""low nameability""]",2,low nameability,15,left,response,1,CKN_101
/Users/martincz/Documents/Madison/Sapirlab/colorRuleKid/norming/v1/analysis/../data/raw_data/kids/color-rule-kid-norming_CKN_101_FINAL_SESSION_2023-03-03_09h46.50.637.csv,html-button-response,120,265797,0.0-67.0-0.0,CKN_101,101,NA,NA,NA,NA,NA,1501,"<button class=""jspsych-btn""><img src=""stimuli/neonyellow.png"" style=""width: 200px;height: 200px;""></button>",1,neonyellow,lightred,"[""neonyellow"",""lightred"",""low nameability""]",right-left,"[""lightred"",""neonyellow""]",2,low nameability,16,right,response,1,CKN_101
/Users/martincz/Documents/Madison/Sapirlab/colorRuleKid/norming/v1/analysis/../data/raw_data/kids/color-rule-kid-norming_CKN_101_FINAL_SESSION_2023-03-03_09h46.50.637.csv,html-button-response,124,269854,0.0-70.0-0.0,CKN_101,101,NA,NA,NA,NA,NA,1609,"<button class=""jspsych-btn""><img src=""stimuli/turquoise.png"" style=""width: 200px;height: 200px;""></button>",1,turquoise,darkgreenblue,"[""turquoise"",""darkgreenblue"",""low nameability""]",right-left,"[""darkgreenblue"",""turquoise""]",2,low nameability,17,right,response,1,CKN_101
/Users/martincz/Documents/Madison/Sapirlab/colorRuleKid/norming/v1/analysis/../data/raw_data/kids/color-rule-kid-norming_CKN_101_FINAL_SESSION_2023-03-03_09h46.50.637.csv,html-button-response,128,275098,0.0-73.0-0.0,CKN_101,101,NA,NA,NA,NA,NA,3221,"<button class=""jspsych-btn""><img src=""stimuli/yellow.png"" style=""width: 200px;height: 200px;""></button>",0,yellow,blue,"[""yellow"",""blue"",""high nameability""]",right-left,"[""blue"",""yellow""]",2,high nameability,18,right,response,0,CKN_101
/Users/martincz/Documents/Madison/Sapirlab/colorRuleKid/norming/v1/analysis/../data/raw_data/kids/color-rule-kid-norming_CKN_101_FINAL_SESSION_2023-03-03_09h46.50.637.csv,html-button-response,130,276296,0.0-73.1-0.1,CKN_101,101,NA,NA,NA,NA,NA,547,"<button class=""jspsych-btn""><img src=""stimuli/yellow.png"" style=""width: 200px;height: 200px;""></button>",1,yellow,blue,"[""yellow"",""blue"",""high nameability""]",right-left,"[""blue"",""yellow""]",2,high nameability,18,right,response,1,CKN_101
/Users/martincz/Documents/Madison/Sapirlab/colorRuleKid/norming/v1/analysis/../data/raw_data/kids/color-rule-kid-norming_CKN_101_FINAL_SESSION_2023-03-03_09h46.50.637.csv,html-button-response,134,283418,0.0-76.0-0.0,CKN_101,101,NA,NA,NA,NA,NA,3122,"<button class=""jspsych-btn""><img src=""stimuli/red.png"" style=""width: 200px;height: 200px;""></button>",0,red,orange,"[""red"",""orange"",""high nameability""]",left-right,"[""red"",""orange"",""high nameability""]",2,high nameability,19,left,response,1,CKN_101
/Users/martincz/Documents/Madison/Sapirlab/colorRuleKid/norming/v1/analysis/../data/raw_data/kids/color-rule-kid-norming_CKN_101_FINAL_SESSION_2023-03-03_09h46.50.637.csv,html-button-response,138,292081,0.0-79.0-0.0,CKN_101,101,NA,NA,NA,NA,NA,3461,"<button class=""jspsych-btn""><img src=""stimuli/orange.png"" style=""width: 200px;height: 200px;""></button>",1,orange,yellow,"[""orange"",""yellow"",""high nameability""]",right-left,"[""yellow"",""orange""]",2,high nameability,20,right,response,1,CKN_101
/Users/martincz/Documents/Madison/Sapirlab/colorRuleKid/norming/v1/analysis/../data/raw_data/kids/color-rule-kid-norming_CKN_101_FINAL_SESSION_2023-03-03_09h46.50.637.csv,html-button-response,146,304948,0.0-86.0-0.0,CKN_101,101,NA,NA,NA,NA,NA,2909,"<button class=""jspsych-btn""><img src=""stimuli/neonyellow.png"" style=""width: 200px;height: 200px;""></button>",1,neonyellow,mustard,"[""neonyellow"",""mustard"",""low nameability""]",right-left,"[""mustard"",""neonyellow""]",3,low nameability,21,right,response,1,CKN_101
/Users/martincz/Documents/Madison/Sapirlab/colorRuleKid/norming/v1/analysis/../data/raw_data/kids/color-rule-kid-norming_CKN_101_FINAL_SESSION_2023-03-03_09h46.50.637.csv,html-button-response,150,309503,0.0-89.0-0.0,CKN_101,101,NA,NA,NA,NA,NA,1768,"<button class=""jspsych-btn""><img src=""stimuli/yellow.png"" style=""width: 200px;height: 200px;""></button>",1,yellow,purple,"[""yellow"",""purple"",""high nameability""]",left-right,"[""yellow"",""purple"",""high nameability""]",3,high nameability,22,left,response,0,CKN_101
/Users/martincz/Documents/Madison/Sapirlab/colorRuleKid/norming/v1/analysis/../data/raw_data/kids/color-rule-kid-norming_CKN_101_FINAL_SESSION_2023-03-03_09h46.50.637.csv,html-button-response,152,311282,0.0-89.1-0.1,CKN_101,101,NA,NA,NA,NA,NA,1127,"<button class=""jspsych-btn""><img src=""stimuli/yellow.png"" style=""width: 200px;height: 200px;""></button>",0,yellow,purple,"[""yellow"",""purple"",""high nameability""]",left-right,"[""yellow"",""purple"",""high nameability""]",3,high nameability,22,left,response,1,CKN_101
/Users/martincz/Documents/Madison/Sapirlab/colorRuleKid/norming/v1/analysis/../data/raw_data/kids/color-rule-kid-norming_CKN_101_FINAL_SESSION_2023-03-03_09h46.50.637.csv,html-button-response,156,324145,0.0-92.0-0.0,CKN_101,101,NA,NA,NA,NA,NA,10687,"<button class=""jspsych-btn""><img src=""stimuli/darkgreenblue.png"" style=""width: 200px;height: 200px;""></button>",1,darkgreenblue,lightred,"[""darkgreenblue"",""lightred"",""low nameability""]",left-right,"[""darkgreenblue"",""lightred"",""low nameability""]",3,low nameability,23,left,response,0,CKN_101
/Users/martincz/Documents/Madison/Sapirlab/colorRuleKid/norming/v1/analysis/../data/raw_data/kids/color-rule-kid-norming_CKN_101_FINAL_SESSION_2023-03-03_09h46.50.637.csv,html-button-response,158,325906,0.0-92.1-0.1,CKN_101,101,NA,NA,NA,NA,NA,1095,"<button class=""jspsych-btn""><img src=""stimuli/darkgreenblue.png"" style=""width: 200px;height: 200px;""></button>",0,darkgreenblue,lightred,"[""darkgreenblue"",""lightred"",""low nameability""]",left-right,"[""darkgreenblue"",""lightred"",""low nameability""]",3,low nameability,23,left,response,1,CKN_101
/Users/martincz/Documents/Madison/Sapirlab/colorRuleKid/norming/v1/analysis/../data/raw_data/kids/color-rule-kid-norming_CKN_101_FINAL_SESSION_2023-03-03_09h46.50.637.csv,html-button-response,162,333382,0.0-95.0-0.0,CKN_101,101,NA,NA,NA,NA,NA,3410,"<button class=""jspsych-btn""><img src=""stimuli/lightred.png"" style=""width: 200px;height: 200px;""></button>",1,lightred,neonyellow,"[""lightred"",""neonyellow"",""low nameability""]",left-right,"[""lightred"",""neonyellow"",""low nameability""]",3,low nameability,24,left,response,0,CKN_101
/Users/martincz/Documents/Madison/Sapirlab/colorRuleKid/norming/v1/analysis/../data/raw_data/kids/color-rule-kid-norming_CKN_101_FINAL_SESSION_2023-03-03_09h46.50.637.csv,html-button-response,164,335299,0.0-95.1-0.1,CKN_101,101,NA,NA,NA,NA,NA,1271,"<button class=""jspsych-btn""><img src=""stimuli/lightred.png"" style=""width: 200px;height: 200px;""></button>",0,lightred,neonyellow,"[""lightred"",""neonyellow"",""low nameability""]",left-right,"[""lightred"",""neonyellow"",""low nameability""]",3,low nameability,24,left,response,1,CKN_101
/Users/martincz/Documents/Madison/Sapirlab/colorRuleKid/norming/v1/analysis/../data/raw_data/kids/color-rule-kid-norming_CKN_101_FINAL_SESSION_2023-03-03_09h46.50.637.csv,html-button-response,168,339452,0.0-98.0-0.0,CKN_101,101,NA,NA,NA,NA,NA,1694,"<button class=""jspsych-btn""><img src=""stimuli/turquoise.png"" style=""width: 200px;height: 200px;""></button>",0,turquoise,mustard,"[""turquoise"",""mustard"",""low nameability""]",left-right,"[""turquoise"",""mustard"",""low nameability""]",3,low nameability,25,left,response,1,CKN_101
/Users/martincz/Documents/Madison/Sapirlab/colorRuleKid/norming/v1/analysis/../data/raw_data/kids/color-rule-kid-norming_CKN_101_FINAL_SESSION_2023-03-03_09h46.50.637.csv,html-button-response,172,343378,0.0-101.0-0.0,CKN_101,101,NA,NA,NA,NA,NA,1247,"<button class=""jspsych-btn""><img src=""stimuli/turquoise.png"" style=""width: 200px;height: 200px;""></button>",1,turquoise,lightred,"[""turquoise"",""lightred"",""low nameability""]",right-left,"[""lightred"",""turquoise""]",3,low nameability,26,right,response,1,CKN_101
/Users/martincz/Documents/Madison/Sapirlab/colorRuleKid/norming/v1/analysis/../data/raw_data/kids/color-rule-kid-norming_CKN_101_FINAL_SESSION_2023-03-03_09h46.50.637.csv,html-button-response,176,346618,0.0-104.0-0.0,CKN_101,101,NA,NA,NA,NA,NA,1106,"<button class=""jspsych-btn""><img src=""stimuli/purple.png"" style=""width: 200px;height: 200px;""></button>",1,purple,red,"[""purple"",""red"",""high nameability""]",right-left,"[""red"",""purple""]",3,high nameability,27,right,response,1,CKN_101
/Users/martincz/Documents/Madison/Sapirlab/colorRuleKid/norming/v1/analysis/../data/raw_data/kids/color-rule-kid-norming_CKN_101_FINAL_SESSION_2023-03-03_09h46.50.637.csv,html-button-response,180,349643,0.0-107.0-0.0,CKN_101,101,NA,NA,NA,NA,NA,1012,"<button class=""jspsych-btn""><img src=""stimuli/blue.png"" style=""width: 200px;height: 200px;""></button>",1,blue,brown,"[""blue"",""brown"",""high nameability""]",right-left,"[""brown"",""blue""]",3,high nameability,28,right,response,1,CKN_101
/Users/martincz/Documents/Madison/Sapirlab/colorRuleKid/norming/v1/analysis/../data/raw_data/kids/color-rule-kid-norming_CKN_101_FINAL_SESSION_2023-03-03_09h46.50.637.csv,html-button-response,184,354101,0.0-110.0-0.0,CKN_101,101,NA,NA,NA,NA,NA,1075,"<button class=""jspsych-btn""><img src=""stimuli/blue.png"" style=""width: 200px;height: 200px;""></button>",1,blue,yellow,"[""blue"",""yellow"",""high nameability""]",right-left,"[""yellow"",""blue""]",3,high nameability,29,right,response,1,CKN_101
/Users/martincz/Documents/Madison/Sapirlab/colorRuleKid/norming/v1/analysis/../data/raw_data/kids/color-rule-kid-norming_CKN_101_FINAL_SESSION_2023-03-03_09h46.50.637.csv,html-button-response,188,357459,0.0-113.0-0.0,CKN_101,101,NA,NA,NA,NA,NA,1204,"<button class=""jspsych-btn""><img src=""stimuli/orange.png"" style=""width: 200px;height: 200px;""></button>",1,orange,red,"[""orange"",""red"",""high nameability""]",right-left,"[""red"",""orange""]",3,high nameability,30,right,response,1,CKN_101
/Users/martincz/Documents/Madison/Sapirlab/colorRuleKid/norming/v1/analysis/../data/raw_data/kids/color-rule-kid-norming_CKN_101_FINAL_SESSION_2023-03-03_09h46.50.637.csv,html-button-response,196,367995,0.0-120.0-0.0,CKN_101,101,NA,NA,NA,NA,NA,1272,"<button class=""jspsych-btn""><img src=""stimuli/pink.png"" style=""width: 200px;height: 200px;""></button>",1,pink,neonyellow,"[""pink"",""neonyellow"",""low nameability""]",right-left,"[""neonyellow"",""pink""]",4,low nameability,31,right,response,1,CKN_101
/Users/martincz/Documents/Madison/Sapirlab/colorRuleKid/norming/v1/analysis/../data/raw_data/kids/color-rule-kid-norming_CKN_101_FINAL_SESSION_2023-03-03_09h46.50.637.csv,html-button-response,200,371073,0.0-123.0-0.0,CKN_101,101,NA,NA,NA,NA,NA,845,"<button class=""jspsych-btn""><img src=""stimuli/red.png"" style=""width: 200px;height: 200px;""></button>",1,red,yellow,"[""red"",""yellow"",""high nameability""]",left-right,"[""red"",""yellow"",""high nameability""]",4,high nameability,32,left,response,0,CKN_101
/Users/martincz/Documents/Madison/Sapirlab/colorRuleKid/norming/v1/analysis/../data/raw_data/kids/color-rule-kid-norming_CKN_101_FINAL_SESSION_2023-03-03_09h46.50.637.csv,html-button-response,202,375240,0.0-123.1-0.1,CKN_101,101,NA,NA,NA,NA,NA,3508,"<button class=""jspsych-btn""><img src=""stimuli/red.png"" style=""width: 200px;height: 200px;""></button>",0,red,yellow,"[""red"",""yellow"",""high nameability""]",left-right,"[""red"",""yellow"",""high nameability""]",4,high nameability,32,left,response,1,CKN_101
/Users/martincz/Documents/Madison/Sapirlab/colorRuleKid/norming/v1/analysis/../data/raw_data/kids/color-rule-kid-norming_CKN_101_FINAL_SESSION_2023-03-03_09h46.50.637.csv,html-button-response,206,379273,0.0-126.0-0.0,CKN_101,101,NA,NA,NA,NA,NA,2068,"<button class=""jspsych-btn""><img src=""stimuli/neonyellow.png"" style=""width: 200px;height: 200px;""></button>",0,neonyellow,darkgreenblue,"[""neonyellow"",""darkgreenblue"",""low nameability""]",right-left,"[""darkgreenblue"",""neonyellow""]",4,low nameability,33,right,response,0,CKN_101
/Users/martincz/Documents/Madison/Sapirlab/colorRuleKid/norming/v1/analysis/../data/raw_data/kids/color-rule-kid-norming_CKN_101_FINAL_SESSION_2023-03-03_09h46.50.637.csv,html-button-response,208,380291,0.0-126.1-0.1,CKN_101,101,NA,NA,NA,NA,NA,341,"<button class=""jspsych-btn""><img src=""stimuli/neonyellow.png"" style=""width: 200px;height: 200px;""></button>",1,neonyellow,darkgreenblue,"[""neonyellow"",""darkgreenblue"",""low nameability""]",right-left,"[""darkgreenblue"",""neonyellow""]",4,low nameability,33,right,response,1,CKN_101
/Users/martincz/Documents/Madison/Sapirlab/colorRuleKid/norming/v1/analysis/../data/raw_data/kids/color-rule-kid-norming_CKN_101_FINAL_SESSION_2023-03-03_09h46.50.637.csv,html-button-response,212,384191,0.0-129.0-0.0,CKN_101,101,NA,NA,NA,NA,NA,1718,"<button class=""jspsych-btn""><img src=""stimuli/pink.png"" style=""width: 200px;height: 200px;""></button>",1,pink,mustard,"[""pink"",""mustard"",""low nameability""]",right-left,"[""mustard"",""pink""]",4,low nameability,34,right,response,1,CKN_101
/Users/martincz/Documents/Madison/Sapirlab/colorRuleKid/norming/v1/analysis/../data/raw_data/kids/color-rule-kid-norming_CKN_101_FINAL_SESSION_2023-03-03_09h46.50.637.csv,html-button-response,216,391074,0.0-132.0-0.0,CKN_101,101,NA,NA,NA,NA,NA,1079,"<button class=""jspsych-btn""><img src=""stimuli/orange.png"" style=""width: 200px;height: 200px;""></button>",1,orange,purple,"[""orange"",""purple"",""high nameability""]",right-left,"[""purple"",""orange""]",4,high nameability,35,right,response,1,CKN_101
/Users/martincz/Documents/Madison/Sapirlab/colorRuleKid/norming/v1/analysis/../data/raw_data/kids/color-rule-kid-norming_CKN_101_FINAL_SESSION_2023-03-03_09h46.50.637.csv,html-button-response,220,398623,0.0-135.0-0.0,CKN_101,101,NA,NA,NA,NA,NA,1312,"<button class=""jspsych-btn""><img src=""stimuli/blue.png"" style=""width: 200px;height: 200px;""></button>",0,blue,orange,"[""blue"",""orange"",""high nameability""]",left-right,"[""blue"",""orange"",""high nameability""]",4,high nameability,36,left,response,1,CKN_101
/Users/martincz/Documents/Madison/Sapirlab/colorRuleKid/norming/v1/analysis/../data/raw_data/kids/color-rule-kid-norming_CKN_101_FINAL_SESSION_2023-03-03_09h46.50.637.csv,html-button-response,224,402702,0.0-138.0-0.0,CKN_101,101,NA,NA,NA,NA,NA,1342,"<button class=""jspsych-btn""><img src=""stimuli/orange.png"" style=""width: 200px;height: 200px;""></button>",0,orange,brown,"[""orange"",""brown"",""high nameability""]",left-right,"[""orange"",""brown"",""high nameability""]",4,high nameability,37,left,response,1,CKN_101
/Users/martincz/Documents/Madison/Sapirlab/colorRuleKid/norming/v1/analysis/../data/raw_data/kids/color-rule-kid-norming_CKN_101_FINAL_SESSION_2023-03-03_09h46.50.637.csv,html-button-response,228,406459,0.0-141.0-0.0,CKN_101,101,NA,NA,NA,NA,NA,1168,"<button class=""jspsych-btn""><img src=""stimuli/red.png"" style=""width: 200px;height: 200px;""></button>",1,red,brown,"[""red"",""brown"",""high nameability""]",left-right,"[""red"",""brown"",""high nameability""]",4,high nameability,38,left,response,0,CKN_101
/Users/martincz/Documents/Madison/Sapirlab/colorRuleKid/norming/v1/analysis/../data/raw_data/kids/color-rule-kid-norming_CKN_101_FINAL_SESSION_2023-03-03_09h46.50.637.csv,html-button-response,230,409476,0.0-141.1-0.1,CKN_101,101,NA,NA,NA,NA,NA,2364,"<button class=""jspsych-btn""><img src=""stimuli/red.png"" style=""width: 200px;height: 200px;""></button>",0,red,brown,"[""red"",""brown"",""high nameability""]",left-right,"[""red"",""brown"",""high nameability""]",4,high nameability,38,left,response,1,CKN_101
/Users/martincz/Documents/Madison/Sapirlab/colorRuleKid/norming/v1/analysis/../data/raw_data/kids/color-rule-kid-norming_CKN_101_FINAL_SESSION_2023-03-03_09h46.50.637.csv,html-button-response,234,414577,0.0-144.0-0.0,CKN_101,101,NA,NA,NA,NA,NA,2566,"<button class=""jspsych-btn""><img src=""stimuli/blue.png"" style=""width: 200px;height: 200px;""></button>",1,blue,red,"[""blue"",""red"",""high nameability""]",right-left,"[""red"",""blue""]",4,high nameability,39,right,response,1,CKN_101
/Users/martincz/Documents/Madison/Sapirlab/colorRuleKid/norming/v1/analysis/../data/raw_data/kids/color-rule-kid-norming_CKN_101_FINAL_SESSION_2023-03-03_09h46.50.637.csv,html-button-response,238,418194,0.0-147.0-0.0,CKN_101,101,NA,NA,NA,NA,NA,1565,"<button class=""jspsych-btn""><img src=""stimuli/darkgreenblue.png"" style=""width: 200px;height: 200px;""></button>",1,darkgreenblue,turquoise,"[""darkgreenblue"",""turquoise"",""low nameability""]",left-right,"[""darkgreenblue"",""turquoise"",""low nameability""]",4,low nameability,40,left,response,0,CKN_101
/Users/martincz/Documents/Madison/Sapirlab/colorRuleKid/norming/v1/analysis/../data/raw_data/kids/color-rule-kid-norming_CKN_101_FINAL_SESSION_2023-03-03_09h46.50.637.csv,html-button-response,240,421503,0.0-147.1-0.1,CKN_101,101,NA,NA,NA,NA,NA,2663,"<button class=""jspsych-btn""><img src=""stimuli/darkgreenblue.png"" style=""width: 200px;height: 200px;""></button>",0,darkgreenblue,turquoise,"[""darkgreenblue"",""turquoise"",""low nameability""]",left-right,"[""darkgreenblue"",""turquoise"",""low nameability""]",4,low nameability,40,left,response,1,CKN_101
/Users/martincz/Documents/Madison/Sapirlab/colorRuleKid/norming/v1/analysis/../data/raw_data/kids/color-rule-kid-norming_CKN_101_FINAL_SESSION_2023-03-03_09h46.50.637.csv,html-button-response,248,435528,0.0-154.0-0.0,CKN_101,101,NA,NA,NA,NA,NA,1164,"<button class=""jspsych-btn""><img src=""stimuli/lightred.png"" style=""width: 200px;height: 200px;""></button>",1,lightred,mustard,"[""lightred"",""mustard"",""low nameability""]",left-right,"[""lightred"",""mustard"",""low nameability""]",5,low nameability,41,left,response,0,CKN_101
/Users/martincz/Documents/Madison/Sapirlab/colorRuleKid/norming/v1/analysis/../data/raw_data/kids/color-rule-kid-norming_CKN_101_FINAL_SESSION_2023-03-03_09h46.50.637.csv,html-button-response,250,437392,0.0-154.1-0.1,CKN_101,101,NA,NA,NA,NA,NA,1210,"<button class=""jspsych-btn""><img src=""stimuli/lightred.png"" style=""width: 200px;height: 200px;""></button>",0,lightred,mustard,"[""lightred"",""mustard"",""low nameability""]",left-right,"[""lightred"",""mustard"",""low nameability""]",5,low nameability,41,left,response,1,CKN_101
/Users/martincz/Documents/Madison/Sapirlab/colorRuleKid/norming/v1/analysis/../data/raw_data/kids/color-rule-kid-norming_CKN_101_FINAL_SESSION_2023-03-03_09h46.50.637.csv,html-button-response,254,441219,0.0-157.0-0.0,CKN_101,101,NA,NA,NA,NA,NA,1644,"<button class=""jspsych-btn""><img src=""stimuli/red.png"" style=""width: 200px;height: 200px;""></button>",0,red,blue,"[""red"",""blue"",""high nameability""]",right-left,"[""blue"",""red""]",5,high nameability,42,right,response,0,CKN_101
/Users/martincz/Documents/Madison/Sapirlab/colorRuleKid/norming/v1/analysis/../data/raw_data/kids/color-rule-kid-norming_CKN_101_FINAL_SESSION_2023-03-03_09h46.50.637.csv,html-button-response,256,442397,0.0-157.1-0.1,CKN_101,101,NA,NA,NA,NA,NA,492,"<button class=""jspsych-btn""><img src=""stimuli/red.png"" style=""width: 200px;height: 200px;""></button>",1,red,blue,"[""red"",""blue"",""high nameability""]",right-left,"[""blue"",""red""]",5,high nameability,42,right,response,1,CKN_101
/Users/martincz/Documents/Madison/Sapirlab/colorRuleKid/norming/v1/analysis/../data/raw_data/kids/color-rule-kid-norming_CKN_101_FINAL_SESSION_2023-03-03_09h46.50.637.csv,html-button-response,260,446629,0.0-160.0-0.0,CKN_101,101,NA,NA,NA,NA,NA,1315,"<button class=""jspsych-btn""><img src=""stimuli/yellow.png"" style=""width: 200px;height: 200px;""></button>",1,yellow,brown,"[""yellow"",""brown"",""high nameability""]",right-left,"[""brown"",""yellow""]",5,high nameability,43,right,response,1,CKN_101
/Users/martincz/Documents/Madison/Sapirlab/colorRuleKid/norming/v1/analysis/../data/raw_data/kids/color-rule-kid-norming_CKN_101_FINAL_SESSION_2023-03-03_09h46.50.637.csv,html-button-response,264,450333,0.0-163.0-0.0,CKN_101,101,NA,NA,NA,NA,NA,1488,"<button class=""jspsych-btn""><img src=""stimuli/blue.png"" style=""width: 200px;height: 200px;""></button>",0,blue,purple,"[""blue"",""purple"",""high nameability""]",left-right,"[""blue"",""purple"",""high nameability""]",5,high nameability,44,left,response,1,CKN_101
/Users/martincz/Documents/Madison/Sapirlab/colorRuleKid/norming/v1/analysis/../data/raw_data/kids/color-rule-kid-norming_CKN_101_FINAL_SESSION_2023-03-03_09h46.50.637.csv,html-button-response,268,459923,0.0-166.0-0.0,CKN_101,101,NA,NA,NA,NA,NA,2657,"<button class=""jspsych-btn""><img src=""stimuli/brown.png"" style=""width: 200px;height: 200px;""></button>",0,brown,yellow,"[""brown"",""yellow"",""high nameability""]",right-left,"[""yellow"",""brown""]",5,high nameability,45,right,response,0,CKN_101
/Users/martincz/Documents/Madison/Sapirlab/colorRuleKid/norming/v1/analysis/../data/raw_data/kids/color-rule-kid-norming_CKN_101_FINAL_SESSION_2023-03-03_09h46.50.637.csv,html-button-response,270,464350,0.0-166.1-0.1,CKN_101,101,NA,NA,NA,NA,NA,3774,"<button class=""jspsych-btn""><img src=""stimuli/brown.png"" style=""width: 200px;height: 200px;""></button>",0,brown,yellow,"[""brown"",""yellow"",""high nameability""]",right-left,"[""yellow"",""brown""]",5,high nameability,45,right,response,0,CKN_101
/Users/martincz/Documents/Madison/Sapirlab/colorRuleKid/norming/v1/analysis/../data/raw_data/kids/color-rule-kid-norming_CKN_101_FINAL_SESSION_2023-03-03_09h46.50.637.csv,html-button-response,272,466465,0.0-166.2-0.2,CKN_101,101,NA,NA,NA,NA,NA,1452,"<button class=""jspsych-btn""><img src=""stimuli/brown.png"" style=""width: 200px;height: 200px;""></button>",1,brown,yellow,"[""brown"",""yellow"",""high nameability""]",right-left,"[""yellow"",""brown""]",5,high nameability,45,right,response,1,CKN_101
/Users/martincz/Documents/Madison/Sapirlab/colorRuleKid/norming/v1/analysis/../data/raw_data/kids/color-rule-kid-norming_CKN_101_FINAL_SESSION_2023-03-03_09h46.50.637.csv,html-button-response,276,473010,0.0-169.0-0.0,CKN_101,101,NA,NA,NA,NA,NA,3849,"<button class=""jspsych-btn""><img src=""stimuli/neonyellow.png"" style=""width: 200px;height: 200px;""></button>",0,neonyellow,pink,"[""neonyellow"",""pink"",""low nameability""]",left-right,"[""neonyellow"",""pink"",""low nameability""]",5,low nameability,46,left,response,1,CKN_101
/Users/martincz/Documents/Madison/Sapirlab/colorRuleKid/norming/v1/analysis/../data/raw_data/kids/color-rule-kid-norming_CKN_101_FINAL_SESSION_2023-03-03_09h46.50.637.csv,html-button-response,280,477099,0.0-172.0-0.0,CKN_101,101,NA,NA,NA,NA,NA,1334,"<button class=""jspsych-btn""><img src=""stimuli/mustard.png"" style=""width: 200px;height: 200px;""></button>",0,mustard,turquoise,"[""mustard"",""turquoise"",""low nameability""]",left-right,"[""mustard"",""turquoise"",""low nameability""]",5,low nameability,47,left,response,1,CKN_101
/Users/martincz/Documents/Madison/Sapirlab/colorRuleKid/norming/v1/analysis/../data/raw_data/kids/color-rule-kid-norming_CKN_101_FINAL_SESSION_2023-03-03_09h46.50.637.csv,html-button-response,284,480054,0.0-175.0-0.0,CKN_101,101,NA,NA,NA,NA,NA,939,"<button class=""jspsych-btn""><img src=""stimuli/lightred.png"" style=""width: 200px;height: 200px;""></button>",0,lightred,pink,"[""lightred"",""pink"",""low nameability""]",left-right,"[""lightred"",""pink"",""low nameability""]",5,low nameability,48,left,response,1,CKN_101
/Users/martincz/Documents/Madison/Sapirlab/colorRuleKid/norming/v1/analysis/../data/raw_data/kids/color-rule-kid-norming_CKN_101_FINAL_SESSION_2023-03-03_09h46.50.637.csv,html-button-response,288,486519,0.0-178.0-0.0,CKN_101,101,NA,NA,NA,NA,NA,2043,"<button class=""jspsych-btn""><img src=""stimuli/orange.png"" style=""width: 200px;height: 200px;""></button>",0,orange,blue,"[""orange"",""blue"",""high nameability""]",right-left,"[""blue"",""orange""]",5,high nameability,49,right,response,0,CKN_101
/Users/martincz/Documents/Madison/Sapirlab/colorRuleKid/norming/v1/analysis/../data/raw_data/kids/color-rule-kid-norming_CKN_101_FINAL_SESSION_2023-03-03_09h46.50.637.csv,html-button-response,290,487757,0.0-178.1-0.1,CKN_101,101,NA,NA,NA,NA,NA,587,"<button class=""jspsych-btn""><img src=""stimuli/orange.png"" style=""width: 200px;height: 200px;""></button>",1,orange,blue,"[""orange"",""blue"",""high nameability""]",right-left,"[""blue"",""orange""]",5,high nameability,49,right,response,1,CKN_101
/Users/martincz/Documents/Madison/Sapirlab/colorRuleKid/norming/v1/analysis/../data/raw_data/kids/color-rule-kid-norming_CKN_101_FINAL_SESSION_2023-03-03_09h46.50.637.csv,html-button-response,294,494090,0.0-181.0-0.0,CKN_101,101,NA,NA,NA,NA,NA,2981,"<button class=""jspsych-btn""><img src=""stimuli/turquoise.png"" style=""width: 200px;height: 200px;""></button>",0,turquoise,neonyellow,"[""turquoise"",""neonyellow"",""low nameability""]",left-right,"[""turquoise"",""neonyellow"",""low nameability""]",5,low nameability,50,left,response,1,CKN_101
/Users/martincz/Documents/Madison/Sapirlab/colorRuleKid/norming/v1/analysis/../data/raw_data/kids/color-rule-kid-norming_CKN_101_FINAL_SESSION_2023-03-03_09h46.50.637.csv,html-button-response,302,505968,0.0-188.0-0.0,CKN_101,101,NA,NA,NA,NA,NA,1403,"<button class=""jspsych-btn""><img src=""stimuli/neonyellow.png"" style=""width: 200px;height: 200px;""></button>",1,neonyellow,turquoise,"[""neonyellow"",""turquoise"",""low nameability""]",right-left,"[""turquoise"",""neonyellow""]",6,low nameability,51,right,response,1,CKN_101
/Users/martincz/Documents/Madison/Sapirlab/colorRuleKid/norming/v1/analysis/../data/raw_data/kids/color-rule-kid-norming_CKN_101_FINAL_SESSION_2023-03-03_09h46.50.637.csv,html-button-response,306,516286,0.0-191.0-0.0,CKN_101,101,NA,NA,NA,NA,NA,2065,"<button class=""jspsych-btn""><img src=""stimuli/purple.png"" style=""width: 200px;height: 200px;""></button>",0,purple,blue,"[""purple"",""blue"",""high nameability""]",left-right,"[""purple"",""blue"",""high nameability""]",6,high nameability,52,left,response,1,CKN_101
/Users/martincz/Documents/Madison/Sapirlab/colorRuleKid/norming/v1/analysis/../data/raw_data/kids/color-rule-kid-norming_CKN_101_FINAL_SESSION_2023-03-03_09h46.50.637.csv,html-button-response,310,519144,0.0-194.0-0.0,CKN_101,101,NA,NA,NA,NA,NA,1016,"<button class=""jspsych-btn""><img src=""stimuli/mustard.png"" style=""width: 200px;height: 200px;""></button>",0,mustard,pink,"[""mustard"",""pink"",""low nameability""]",left-right,"[""mustard"",""pink"",""low nameability""]",6,low nameability,53,left,response,1,CKN_101
/Users/martincz/Documents/Madison/Sapirlab/colorRuleKid/norming/v1/analysis/../data/raw_data/kids/color-rule-kid-norming_CKN_101_FINAL_SESSION_2023-03-03_09h46.50.637.csv,html-button-response,314,524352,0.0-197.0-0.0,CKN_101,101,NA,NA,NA,NA,NA,2441,"<button class=""jspsych-btn""><img src=""stimuli/pink.png"" style=""width: 200px;height: 200px;""></button>",0,pink,turquoise,"[""pink"",""turquoise"",""low nameability""]",right-left,"[""turquoise"",""pink""]",6,low nameability,54,right,response,0,CKN_101
/Users/martincz/Documents/Madison/Sapirlab/colorRuleKid/norming/v1/analysis/../data/raw_data/kids/color-rule-kid-norming_CKN_101_FINAL_SESSION_2023-03-03_09h46.50.637.csv,html-button-response,316,525385,0.0-197.1-0.1,CKN_101,101,NA,NA,NA,NA,NA,381,"<button class=""jspsych-btn""><img src=""stimuli/pink.png"" style=""width: 200px;height: 200px;""></button>",1,pink,turquoise,"[""pink"",""turquoise"",""low nameability""]",right-left,"[""turquoise"",""pink""]",6,low nameability,54,right,response,1,CKN_101
/Users/martincz/Documents/Madison/Sapirlab/colorRuleKid/norming/v1/analysis/../data/raw_data/kids/color-rule-kid-norming_CKN_101_FINAL_SESSION_2023-03-03_09h46.50.637.csv,html-button-response,320,530705,0.0-200.0-0.0,CKN_101,101,NA,NA,NA,NA,NA,2586,"<button class=""jspsych-btn""><img src=""stimuli/brown.png"" style=""width: 200px;height: 200px;""></button>",1,brown,blue,"[""brown"",""blue"",""high nameability""]",left-right,"[""brown"",""blue"",""high nameability""]",6,high nameability,55,left,response,0,CKN_101
/Users/martincz/Documents/Madison/Sapirlab/colorRuleKid/norming/v1/analysis/../data/raw_data/kids/color-rule-kid-norming_CKN_101_FINAL_SESSION_2023-03-03_09h46.50.637.csv,html-button-response,322,531853,0.0-200.1-0.1,CKN_101,101,NA,NA,NA,NA,NA,489,"<button class=""jspsych-btn""><img src=""stimuli/brown.png"" style=""width: 200px;height: 200px;""></button>",0,brown,blue,"[""brown"",""blue"",""high nameability""]",left-right,"[""brown"",""blue"",""high nameability""]",6,high nameability,55,left,response,1,CKN_101
/Users/martincz/Documents/Madison/Sapirlab/colorRuleKid/norming/v1/analysis/../data/raw_data/kids/color-rule-kid-norming_CKN_101_FINAL_SESSION_2023-03-03_09h46.50.637.csv,html-button-response,326,549720,0.0-203.0-0.0,CKN_101,101,NA,NA,NA,NA,NA,2531,"<button class=""jspsych-btn""><img src=""stimuli/lightred.png"" style=""width: 200px;height: 200px;""></button>",1,lightred,darkgreenblue,"[""lightred"",""darkgreenblue"",""low nameability""]",left-right,"[""lightred"",""darkgreenblue"",""low nameability""]",6,low nameability,56,left,response,0,CKN_101
/Users/martincz/Documents/Madison/Sapirlab/colorRuleKid/norming/v1/analysis/../data/raw_data/kids/color-rule-kid-norming_CKN_101_FINAL_SESSION_2023-03-03_09h46.50.637.csv,html-button-response,328,552456,0.0-203.1-0.1,CKN_101,101,NA,NA,NA,NA,NA,2086,"<button class=""jspsych-btn""><img src=""stimuli/lightred.png"" style=""width: 200px;height: 200px;""></button>",0,lightred,darkgreenblue,"[""lightred"",""darkgreenblue"",""low nameability""]",left-right,"[""lightred"",""darkgreenblue"",""low nameability""]",6,low nameability,56,left,response,1,CKN_101
/Users/martincz/Documents/Madison/Sapirlab/colorRuleKid/norming/v1/analysis/../data/raw_data/kids/color-rule-kid-norming_CKN_101_FINAL_SESSION_2023-03-03_09h46.50.637.csv,html-button-response,332,557797,0.0-206.0-0.0,CKN_101,101,NA,NA,NA,NA,NA,1543,"<button class=""jspsych-btn""><img src=""stimuli/pink.png"" style=""width: 200px;height: 200px;""></button>",1,pink,lightred,"[""pink"",""lightred"",""low nameability""]",right-left,"[""lightred"",""pink""]",6,low nameability,57,right,response,1,CKN_101
/Users/martincz/Documents/Madison/Sapirlab/colorRuleKid/norming/v1/analysis/../data/raw_data/kids/color-rule-kid-norming_CKN_101_FINAL_SESSION_2023-03-03_09h46.50.637.csv,html-button-response,336,565019,0.0-209.0-0.0,CKN_101,101,NA,NA,NA,NA,NA,5260,"<button class=""jspsych-btn""><img src=""stimuli/mustard.png"" style=""width: 200px;height: 200px;""></button>",1,mustard,neonyellow,"[""mustard"",""neonyellow"",""low nameability""]",left-right,"[""mustard"",""neonyellow"",""low nameability""]",6,low nameability,58,left,response,0,CKN_101
/Users/martincz/Documents/Madison/Sapirlab/colorRuleKid/norming/v1/analysis/../data/raw_data/kids/color-rule-kid-norming_CKN_101_FINAL_SESSION_2023-03-03_09h46.50.637.csv,html-button-response,338,569347,0.0-209.1-0.1,CKN_101,101,NA,NA,NA,NA,NA,3646,"<button class=""jspsych-btn""><img src=""stimuli/mustard.png"" style=""width: 200px;height: 200px;""></button>",1,mustard,neonyellow,"[""mustard"",""neonyellow"",""low nameability""]",left-right,"[""mustard"",""neonyellow"",""low nameability""]",6,low nameability,58,left,response,0,CKN_101
/Users/martincz/Documents/Madison/Sapirlab/colorRuleKid/norming/v1/analysis/../data/raw_data/kids/color-rule-kid-norming_CKN_101_FINAL_SESSION_2023-03-03_09h46.50.637.csv,html-button-response,340,570852,0.0-209.2-0.2,CKN_101,101,NA,NA,NA,NA,NA,840,"<button class=""jspsych-btn""><img src=""stimuli/mustard.png"" style=""width: 200px;height: 200px;""></button>",0,mustard,neonyellow,"[""mustard"",""neonyellow"",""low nameability""]",left-right,"[""mustard"",""neonyellow"",""low nameability""]",6,low nameability,58,left,response,1,CKN_101
/Users/martincz/Documents/Madison/Sapirlab/colorRuleKid/norming/v1/analysis/../data/raw_data/kids/color-rule-kid-norming_CKN_101_FINAL_SESSION_2023-03-03_09h46.50.637.csv,html-button-response,344,577520,0.0-212.0-0.0,CKN_101,101,NA,NA,NA,NA,NA,4828,"<button class=""jspsych-btn""><img src=""stimuli/mustard.png"" style=""width: 200px;height: 200px;""></button>",1,mustard,darkgreenblue,"[""mustard"",""darkgreenblue"",""low nameability""]",right-left,"[""darkgreenblue"",""mustard""]",6,low nameability,59,right,response,1,CKN_101
/Users/martincz/Documents/Madison/Sapirlab/colorRuleKid/norming/v1/analysis/../data/raw_data/kids/color-rule-kid-norming_CKN_101_FINAL_SESSION_2023-03-03_09h46.50.637.csv,html-button-response,348,582099,0.0-215.0-0.0,CKN_101,101,NA,NA,NA,NA,NA,894,"<button class=""jspsych-btn""><img src=""stimuli/darkgreenblue.png"" style=""width: 200px;height: 200px;""></button>",1,darkgreenblue,pink,"[""darkgreenblue"",""pink"",""low nameability""]",right-left,"[""pink"",""darkgreenblue""]",6,low nameability,60,right,response,1,CKN_101
/Users/martincz/Documents/Madison/Sapirlab/colorRuleKid/norming/v1/analysis/../data/raw_data/kids/color-rule-kid-norming_CKN_102_FINAL_SESSION_2023-03-03_09h58.21.355.csv,html-button-response,5,61814,0.0-5.0-0.0,CKN_102,102,NA,NA,NA,NA,NA,5756,"<button class=""jspsych-btn""><img src=""stimuli/star.png"" style=""width: 200px;height: 200px;""></button>",1,star,square,"[""square"",""star""]",left-right,"[""square"",""star""]",1,practice,1,right,response,1,CKN_102
/Users/martincz/Documents/Madison/Sapirlab/colorRuleKid/norming/v1/analysis/../data/raw_data/kids/color-rule-kid-norming_CKN_102_FINAL_SESSION_2023-03-03_09h58.21.355.csv,html-button-response,9,71895,0.0-8.0-0.0,CKN_102,102,NA,NA,NA,NA,NA,3278,"<button class=""jspsych-btn""><img src=""stimuli/triangle.png"" style=""width: 200px;height: 200px;""></button>",0,triangle,pentagram,"[""triangle"",""pentagram""]",left-right,"[""triangle"",""pentagram""]",1,practice,1,left,response,1,CKN_102
/Users/martincz/Documents/Madison/Sapirlab/colorRuleKid/norming/v1/analysis/../data/raw_data/kids/color-rule-kid-norming_CKN_102_FINAL_SESSION_2023-03-03_09h58.21.355.csv,html-button-response,13,78847,0.0-11.0-0.0,CKN_102,102,NA,NA,NA,NA,NA,2094,"<button class=""jspsych-btn""><img src=""stimuli/diamond.png"" style=""width: 200px;height: 200px;""></button>",1,diamond,rectangle,"[""rectangle"",""diamond""]",left-right,"[""rectangle"",""diamond""]",1,practice,1,right,response,1,CKN_102
/Users/martincz/Documents/Madison/Sapirlab/colorRuleKid/norming/v1/analysis/../data/raw_data/kids/color-rule-kid-norming_CKN_102_FINAL_SESSION_2023-03-03_09h58.21.355.csv,html-button-response,17,90158,0.0-14.0-0.0,CKN_102,102,NA,NA,NA,NA,NA,4150,"<button class=""jspsych-btn""><img src=""stimuli/pentagram.png"" style=""width: 200px;height: 200px;""></button>",0,pentagram,star,"[""pentagram"",""star""]",left-right,"[""pentagram"",""star""]",1,practice,1,left,response,1,CKN_102
/Users/martincz/Documents/Madison/Sapirlab/colorRuleKid/norming/v1/analysis/../data/raw_data/kids/color-rule-kid-norming_CKN_102_FINAL_SESSION_2023-03-03_09h58.21.355.csv,html-button-response,22,130027,0.0-18.0-0.0,CKN_102,102,NA,NA,NA,NA,NA,5932,"<button class=""jspsych-btn""><img src=""stimuli/yellow.png"" style=""width: 200px;height: 200px;""></button>",1,yellow,red,"[""yellow"",""red"",""high nameability""]",right-left,"[""red"",""yellow""]",1,high nameability,1,right,response,1,CKN_102
/Users/martincz/Documents/Madison/Sapirlab/colorRuleKid/norming/v1/analysis/../data/raw_data/kids/color-rule-kid-norming_CKN_102_FINAL_SESSION_2023-03-03_09h58.21.355.csv,html-button-response,26,138929,0.0-21.0-0.0,CKN_102,102,NA,NA,NA,NA,NA,7274,"<button class=""jspsych-btn""><img src=""stimuli/orange.png"" style=""width: 200px;height: 200px;""></button>",1,orange,brown,"[""orange"",""brown"",""high nameability""]",right-left,"[""brown"",""orange""]",1,high nameability,2,right,response,1,CKN_102
/Users/martincz/Documents/Madison/Sapirlab/colorRuleKid/norming/v1/analysis/../data/raw_data/kids/color-rule-kid-norming_CKN_102_FINAL_SESSION_2023-03-03_09h58.21.355.csv,html-button-response,30,146415,0.0-24.0-0.0,CKN_102,102,NA,NA,NA,NA,NA,1365,"<button class=""jspsych-btn""><img src=""stimuli/darkgreenblue.png"" style=""width: 200px;height: 200px;""></button>",1,darkgreenblue,mustard,"[""darkgreenblue"",""mustard"",""low nameability""]",right-left,"[""mustard"",""darkgreenblue""]",1,low nameability,3,right,response,1,CKN_102
/Users/martincz/Documents/Madison/Sapirlab/colorRuleKid/norming/v1/analysis/../data/raw_data/kids/color-rule-kid-norming_CKN_102_FINAL_SESSION_2023-03-03_09h58.21.355.csv,html-button-response,34,153973,0.0-27.0-0.0,CKN_102,102,NA,NA,NA,NA,NA,4216,"<button class=""jspsych-btn""><img src=""stimuli/pink.png"" style=""width: 200px;height: 200px;""></button>",1,pink,mustard,"[""pink"",""mustard"",""low nameability""]",right-left,"[""mustard"",""pink""]",1,low nameability,4,right,response,1,CKN_102
/Users/martincz/Documents/Madison/Sapirlab/colorRuleKid/norming/v1/analysis/../data/raw_data/kids/color-rule-kid-norming_CKN_102_FINAL_SESSION_2023-03-03_09h58.21.355.csv,html-button-response,38,156808,0.0-30.0-0.0,CKN_102,102,NA,NA,NA,NA,NA,1071,"<button class=""jspsych-btn""><img src=""stimuli/yellow.png"" style=""width: 200px;height: 200px;""></button>",1,yellow,purple,"[""yellow"",""purple"",""high nameability""]",left-right,"[""yellow"",""purple"",""high nameability""]",1,high nameability,5,left,response,0,CKN_102
/Users/martincz/Documents/Madison/Sapirlab/colorRuleKid/norming/v1/analysis/../data/raw_data/kids/color-rule-kid-norming_CKN_102_FINAL_SESSION_2023-03-03_09h58.21.355.csv,html-button-response,40,160572,0.0-30.1-0.1,CKN_102,102,NA,NA,NA,NA,NA,3109,"<button class=""jspsych-btn""><img src=""stimuli/yellow.png"" style=""width: 200px;height: 200px;""></button>",0,yellow,purple,"[""yellow"",""purple"",""high nameability""]",left-right,"[""yellow"",""purple"",""high nameability""]",1,high nameability,5,left,response,1,CKN_102
/Users/martincz/Documents/Madison/Sapirlab/colorRuleKid/norming/v1/analysis/../data/raw_data/kids/color-rule-kid-norming_CKN_102_FINAL_SESSION_2023-03-03_09h58.21.355.csv,html-button-response,44,173564,0.0-33.0-0.0,CKN_102,102,NA,NA,NA,NA,NA,3918,"<button class=""jspsych-btn""><img src=""stimuli/lightred.png"" style=""width: 200px;height: 200px;""></button>",1,lightred,turquoise,"[""lightred"",""turquoise"",""low nameability""]",right-left,"[""turquoise"",""lightred""]",1,low nameability,6,right,response,1,CKN_102
/Users/martincz/Documents/Madison/Sapirlab/colorRuleKid/norming/v1/analysis/../data/raw_data/kids/color-rule-kid-norming_CKN_102_FINAL_SESSION_2023-03-03_09h58.21.355.csv,html-button-response,48,181254,0.0-36.0-0.0,CKN_102,102,NA,NA,NA,NA,NA,2079,"<button class=""jspsych-btn""><img src=""stimuli/yellow.png"" style=""width: 200px;height: 200px;""></button>",1,yellow,blue,"[""yellow"",""blue"",""high nameability""]",right-left,"[""blue"",""yellow""]",1,high nameability,7,right,response,1,CKN_102
/Users/martincz/Documents/Madison/Sapirlab/colorRuleKid/norming/v1/analysis/../data/raw_data/kids/color-rule-kid-norming_CKN_102_FINAL_SESSION_2023-03-03_09h58.21.355.csv,html-button-response,52,184737,0.0-39.0-0.0,CKN_102,102,NA,NA,NA,NA,NA,1390,"<button class=""jspsych-btn""><img src=""stimuli/lightred.png"" style=""width: 200px;height: 200px;""></button>",1,lightred,neonyellow,"[""lightred"",""neonyellow"",""low nameability""]",right-left,"[""neonyellow"",""lightred""]",1,low nameability,8,right,response,1,CKN_102
/Users/martincz/Documents/Madison/Sapirlab/colorRuleKid/norming/v1/analysis/../data/raw_data/kids/color-rule-kid-norming_CKN_102_FINAL_SESSION_2023-03-03_09h58.21.355.csv,html-button-response,56,193555,0.0-42.0-0.0,CKN_102,102,NA,NA,NA,NA,NA,1029,"<button class=""jspsych-btn""><img src=""stimuli/darkgreenblue.png"" style=""width: 200px;height: 200px;""></button>",1,darkgreenblue,pink,"[""darkgreenblue"",""pink"",""low nameability""]",right-left,"[""pink"",""darkgreenblue""]",1,low nameability,9,right,response,1,CKN_102
/Users/martincz/Documents/Madison/Sapirlab/colorRuleKid/norming/v1/analysis/../data/raw_data/kids/color-rule-kid-norming_CKN_102_FINAL_SESSION_2023-03-03_09h58.21.355.csv,html-button-response,60,199879,0.0-45.0-0.0,CKN_102,102,NA,NA,NA,NA,NA,1451,"<button class=""jspsych-btn""><img src=""stimuli/red.png"" style=""width: 200px;height: 200px;""></button>",1,red,blue,"[""red"",""blue"",""high nameability""]",left-right,"[""red"",""blue"",""high nameability""]",1,high nameability,10,left,response,0,CKN_102
/Users/martincz/Documents/Madison/Sapirlab/colorRuleKid/norming/v1/analysis/../data/raw_data/kids/color-rule-kid-norming_CKN_102_FINAL_SESSION_2023-03-03_09h58.21.355.csv,html-button-response,62,205875,0.0-45.1-0.1,CKN_102,102,NA,NA,NA,NA,NA,5331,"<button class=""jspsych-btn""><img src=""stimuli/red.png"" style=""width: 200px;height: 200px;""></button>",0,red,blue,"[""red"",""blue"",""high nameability""]",left-right,"[""red"",""blue"",""high nameability""]",1,high nameability,10,left,response,1,CKN_102
/Users/martincz/Documents/Madison/Sapirlab/colorRuleKid/norming/v1/analysis/../data/raw_data/kids/color-rule-kid-norming_CKN_102_FINAL_SESSION_2023-03-03_09h58.21.355.csv,html-button-response,70,224368,0.0-52.0-0.0,CKN_102,102,NA,NA,NA,NA,NA,2461,"<button class=""jspsych-btn""><img src=""stimuli/pink.png"" style=""width: 200px;height: 200px;""></button>",0,pink,neonyellow,"[""pink"",""neonyellow"",""low nameability""]",left-right,"[""pink"",""neonyellow"",""low nameability""]",2,low nameability,11,left,response,1,CKN_102
/Users/martincz/Documents/Madison/Sapirlab/colorRuleKid/norming/v1/analysis/../data/raw_data/kids/color-rule-kid-norming_CKN_102_FINAL_SESSION_2023-03-03_09h58.21.355.csv,html-button-response,74,231400,0.0-55.0-0.0,CKN_102,102,NA,NA,NA,NA,NA,2271,"<button class=""jspsych-btn""><img src=""stimuli/mustard.png"" style=""width: 200px;height: 200px;""></button>",1,mustard,pink,"[""mustard"",""pink"",""low nameability""]",right-left,"[""pink"",""mustard""]",2,low nameability,12,right,response,1,CKN_102
/Users/martincz/Documents/Madison/Sapirlab/colorRuleKid/norming/v1/analysis/../data/raw_data/kids/color-rule-kid-norming_CKN_102_FINAL_SESSION_2023-03-03_09h58.21.355.csv,html-button-response,78,239147,0.0-58.0-0.0,CKN_102,102,NA,NA,NA,NA,NA,2079,"<button class=""jspsych-btn""><img src=""stimuli/purple.png"" style=""width: 200px;height: 200px;""></button>",1,purple,blue,"[""purple"",""blue"",""high nameability""]",right-left,"[""blue"",""purple""]",2,high nameability,13,right,response,1,CKN_102
/Users/martincz/Documents/Madison/Sapirlab/colorRuleKid/norming/v1/analysis/../data/raw_data/kids/color-rule-kid-norming_CKN_102_FINAL_SESSION_2023-03-03_09h58.21.355.csv,html-button-response,82,244987,0.0-61.0-0.0,CKN_102,102,NA,NA,NA,NA,NA,1213,"<button class=""jspsych-btn""><img src=""stimuli/purple.png"" style=""width: 200px;height: 200px;""></button>",1,purple,orange,"[""purple"",""orange"",""high nameability""]",right-left,"[""orange"",""purple""]",2,high nameability,14,right,response,1,CKN_102
/Users/martincz/Documents/Madison/Sapirlab/colorRuleKid/norming/v1/analysis/../data/raw_data/kids/color-rule-kid-norming_CKN_102_FINAL_SESSION_2023-03-03_09h58.21.355.csv,html-button-response,86,252446,0.0-64.0-0.0,CKN_102,102,NA,NA,NA,NA,NA,4785,"<button class=""jspsych-btn""><img src=""stimuli/blue.png"" style=""width: 200px;height: 200px;""></button>",0,blue,orange,"[""blue"",""orange"",""high nameability""]",left-right,"[""blue"",""orange"",""high nameability""]",2,high nameability,15,left,response,1,CKN_102
/Users/martincz/Documents/Madison/Sapirlab/colorRuleKid/norming/v1/analysis/../data/raw_data/kids/color-rule-kid-norming_CKN_102_FINAL_SESSION_2023-03-03_09h58.21.355.csv,html-button-response,90,261038,0.0-67.0-0.0,CKN_102,102,NA,NA,NA,NA,NA,5458,"<button class=""jspsych-btn""><img src=""stimuli/lightred.png"" style=""width: 200px;height: 200px;""></button>",0,lightred,darkgreenblue,"[""lightred"",""darkgreenblue"",""low nameability""]",left-right,"[""lightred"",""darkgreenblue"",""low nameability""]",2,low nameability,16,left,response,1,CKN_102
/Users/martincz/Documents/Madison/Sapirlab/colorRuleKid/norming/v1/analysis/../data/raw_data/kids/color-rule-kid-norming_CKN_102_FINAL_SESSION_2023-03-03_09h58.21.355.csv,html-button-response,94,267091,0.0-70.0-0.0,CKN_102,102,NA,NA,NA,NA,NA,1479,"<button class=""jspsych-btn""><img src=""stimuli/neonyellow.png"" style=""width: 200px;height: 200px;""></button>",0,neonyellow,pink,"[""neonyellow"",""pink"",""low nameability""]",left-right,"[""neonyellow"",""pink"",""low nameability""]",2,low nameability,17,left,response,1,CKN_102
/Users/martincz/Documents/Madison/Sapirlab/colorRuleKid/norming/v1/analysis/../data/raw_data/kids/color-rule-kid-norming_CKN_102_FINAL_SESSION_2023-03-03_09h58.21.355.csv,html-button-response,98,269956,0.0-73.0-0.0,CKN_102,102,NA,NA,NA,NA,NA,1526,"<button class=""jspsych-btn""><img src=""stimuli/blue.png"" style=""width: 200px;height: 200px;""></button>",0,blue,purple,"[""blue"",""purple"",""high nameability""]",left-right,"[""blue"",""purple"",""high nameability""]",2,high nameability,18,left,response,1,CKN_102
/Users/martincz/Documents/Madison/Sapirlab/colorRuleKid/norming/v1/analysis/../data/raw_data/kids/color-rule-kid-norming_CKN_102_FINAL_SESSION_2023-03-03_09h58.21.355.csv,html-button-response,102,273559,0.0-76.0-0.0,CKN_102,102,NA,NA,NA,NA,NA,2123,"<button class=""jspsych-btn""><img src=""stimuli/mustard.png"" style=""width: 200px;height: 200px;""></button>",0,mustard,neonyellow,"[""mustard"",""neonyellow"",""low nameability""]",left-right,"[""mustard"",""neonyellow"",""low nameability""]",2,low nameability,19,left,response,1,CKN_102
/Users/martincz/Documents/Madison/Sapirlab/colorRuleKid/norming/v1/analysis/../data/raw_data/kids/color-rule-kid-norming_CKN_102_FINAL_SESSION_2023-03-03_09h58.21.355.csv,html-button-response,106,277787,0.0-79.0-0.0,CKN_102,102,NA,NA,NA,NA,NA,2731,"<button class=""jspsych-btn""><img src=""stimuli/orange.png"" style=""width: 200px;height: 200px;""></button>",0,orange,blue,"[""orange"",""blue"",""high nameability""]",left-right,"[""orange"",""blue"",""high nameability""]",2,high nameability,20,left,response,1,CKN_102
/Users/martincz/Documents/Madison/Sapirlab/colorRuleKid/norming/v1/analysis/../data/raw_data/kids/color-rule-kid-norming_CKN_102_FINAL_SESSION_2023-03-03_09h58.21.355.csv,html-button-response,114,298556,0.0-86.0-0.0,CKN_102,102,NA,NA,NA,NA,NA,1505,"<button class=""jspsych-btn""><img src=""stimuli/pink.png"" style=""width: 200px;height: 200px;""></button>",1,pink,turquoise,"[""pink"",""turquoise"",""low nameability""]",right-left,"[""turquoise"",""pink""]",3,low nameability,21,right,response,1,CKN_102
/Users/martincz/Documents/Madison/Sapirlab/colorRuleKid/norming/v1/analysis/../data/raw_data/kids/color-rule-kid-norming_CKN_102_FINAL_SESSION_2023-03-03_09h58.21.355.csv,html-button-response,118,300900,0.0-89.0-0.0,CKN_102,102,NA,NA,NA,NA,NA,997,"<button class=""jspsych-btn""><img src=""stimuli/darkgreenblue.png"" style=""width: 200px;height: 200px;""></button>",1,darkgreenblue,turquoise,"[""darkgreenblue"",""turquoise"",""low nameability""]",right-left,"[""turquoise"",""darkgreenblue""]",3,low nameability,22,right,response,1,CKN_102
/Users/martincz/Documents/Madison/Sapirlab/colorRuleKid/norming/v1/analysis/../data/raw_data/kids/color-rule-kid-norming_CKN_102_FINAL_SESSION_2023-03-03_09h58.21.355.csv,html-button-response,122,303833,0.0-92.0-0.0,CKN_102,102,NA,NA,NA,NA,NA,1537,"<button class=""jspsych-btn""><img src=""stimuli/neonyellow.png"" style=""width: 200px;height: 200px;""></button>",0,neonyellow,lightred,"[""neonyellow"",""lightred"",""low nameability""]",left-right,"[""neonyellow"",""lightred"",""low nameability""]",3,low nameability,23,left,response,1,CKN_102
/Users/martincz/Documents/Madison/Sapirlab/colorRuleKid/norming/v1/analysis/../data/raw_data/kids/color-rule-kid-norming_CKN_102_FINAL_SESSION_2023-03-03_09h58.21.355.csv,html-button-response,126,306961,0.0-95.0-0.0,CKN_102,102,NA,NA,NA,NA,NA,1328,"<button class=""jspsych-btn""><img src=""stimuli/turquoise.png"" style=""width: 200px;height: 200px;""></button>",0,turquoise,neonyellow,"[""turquoise"",""neonyellow"",""low nameability""]",left-right,"[""turquoise"",""neonyellow"",""low nameability""]",3,low nameability,24,left,response,1,CKN_102
/Users/martincz/Documents/Madison/Sapirlab/colorRuleKid/norming/v1/analysis/../data/raw_data/kids/color-rule-kid-norming_CKN_102_FINAL_SESSION_2023-03-03_09h58.21.355.csv,html-button-response,130,309768,0.0-98.0-0.0,CKN_102,102,NA,NA,NA,NA,NA,1418,"<button class=""jspsych-btn""><img src=""stimuli/purple.png"" style=""width: 200px;height: 200px;""></button>",0,purple,yellow,"[""purple"",""yellow"",""high nameability""]",left-right,"[""purple"",""yellow"",""high nameability""]",3,high nameability,25,left,response,1,CKN_102
/Users/martincz/Documents/Madison/Sapirlab/colorRuleKid/norming/v1/analysis/../data/raw_data/kids/color-rule-kid-norming_CKN_102_FINAL_SESSION_2023-03-03_09h58.21.355.csv,html-button-response,134,312564,0.0-101.0-0.0,CKN_102,102,NA,NA,NA,NA,NA,1213,"<button class=""jspsych-btn""><img src=""stimuli/red.png"" style=""width: 200px;height: 200px;""></button>",1,red,orange,"[""red"",""orange"",""high nameability""]",right-left,"[""orange"",""red""]",3,high nameability,26,right,response,1,CKN_102
/Users/martincz/Documents/Madison/Sapirlab/colorRuleKid/norming/v1/analysis/../data/raw_data/kids/color-rule-kid-norming_CKN_102_FINAL_SESSION_2023-03-03_09h58.21.355.csv,html-button-response,138,315526,0.0-104.0-0.0,CKN_102,102,NA,NA,NA,NA,NA,1199,"<button class=""jspsych-btn""><img src=""stimuli/purple.png"" style=""width: 200px;height: 200px;""></button>",0,purple,brown,"[""purple"",""brown"",""high nameability""]",left-right,"[""purple"",""brown"",""high nameability""]",3,high nameability,27,left,response,1,CKN_102
/Users/martincz/Documents/Madison/Sapirlab/colorRuleKid/norming/v1/analysis/../data/raw_data/kids/color-rule-kid-norming_CKN_102_FINAL_SESSION_2023-03-03_09h58.21.355.csv,html-button-response,142,318086,0.0-107.0-0.0,CKN_102,102,NA,NA,NA,NA,NA,1169,"<button class=""jspsych-btn""><img src=""stimuli/lightred.png"" style=""width: 200px;height: 200px;""></button>",0,lightred,mustard,"[""lightred"",""mustard"",""low nameability""]",left-right,"[""lightred"",""mustard"",""low nameability""]",3,low nameability,28,left,response,1,CKN_102
/Users/martincz/Documents/Madison/Sapirlab/colorRuleKid/norming/v1/analysis/../data/raw_data/kids/color-rule-kid-norming_CKN_102_FINAL_SESSION_2023-03-03_09h58.21.355.csv,html-button-response,146,320601,0.0-110.0-0.0,CKN_102,102,NA,NA,NA,NA,NA,1219,"<button class=""jspsych-btn""><img src=""stimuli/blue.png"" style=""width: 200px;height: 200px;""></button>",1,blue,brown,"[""blue"",""brown"",""high nameability""]",right-left,"[""brown"",""blue""]",3,high nameability,29,right,response,1,CKN_102
/Users/martincz/Documents/Madison/Sapirlab/colorRuleKid/norming/v1/analysis/../data/raw_data/kids/color-rule-kid-norming_CKN_102_FINAL_SESSION_2023-03-03_09h58.21.355.csv,html-button-response,150,323167,0.0-113.0-0.0,CKN_102,102,NA,NA,NA,NA,NA,980,"<button class=""jspsych-btn""><img src=""stimuli/turquoise.png"" style=""width: 200px;height: 200px;""></button>",1,turquoise,lightred,"[""turquoise"",""lightred"",""low nameability""]",right-left,"[""lightred"",""turquoise""]",3,low nameability,30,right,response,1,CKN_102
/Users/martincz/Documents/Madison/Sapirlab/colorRuleKid/norming/v1/analysis/../data/raw_data/kids/color-rule-kid-norming_CKN_102_FINAL_SESSION_2023-03-03_09h58.21.355.csv,html-button-response,158,343940,0.0-120.0-0.0,CKN_102,102,NA,NA,NA,NA,NA,1459,"<button class=""jspsych-btn""><img src=""stimuli/darkgreenblue.png"" style=""width: 200px;height: 200px;""></button>",1,darkgreenblue,lightred,"[""darkgreenblue"",""lightred"",""low nameability""]",right-left,"[""lightred"",""darkgreenblue""]",4,low nameability,31,right,response,1,CKN_102
/Users/martincz/Documents/Madison/Sapirlab/colorRuleKid/norming/v1/analysis/../data/raw_data/kids/color-rule-kid-norming_CKN_102_FINAL_SESSION_2023-03-03_09h58.21.355.csv,html-button-response,162,349645,0.0-123.0-0.0,CKN_102,102,NA,NA,NA,NA,NA,3756,"<button class=""jspsych-btn""><img src=""stimuli/brown.png"" style=""width: 200px;height: 200px;""></button>",0,brown,blue,"[""brown"",""blue"",""high nameability""]",left-right,"[""brown"",""blue"",""high nameability""]",4,high nameability,32,left,response,1,CKN_102
/Users/martincz/Documents/Madison/Sapirlab/colorRuleKid/norming/v1/analysis/../data/raw_data/kids/color-rule-kid-norming_CKN_102_FINAL_SESSION_2023-03-03_09h58.21.355.csv,html-button-response,166,355269,0.0-126.0-0.0,CKN_102,102,NA,NA,NA,NA,NA,3895,"<button class=""jspsych-btn""><img src=""stimuli/orange.png"" style=""width: 200px;height: 200px;""></button>",1,orange,red,"[""orange"",""red"",""high nameability""]",right-left,"[""red"",""orange""]",4,high nameability,33,right,response,1,CKN_102
/Users/martincz/Documents/Madison/Sapirlab/colorRuleKid/norming/v1/analysis/../data/raw_data/kids/color-rule-kid-norming_CKN_102_FINAL_SESSION_2023-03-03_09h58.21.355.csv,html-button-response,170,358963,0.0-129.0-0.0,CKN_102,102,NA,NA,NA,NA,NA,2347,"<button class=""jspsych-btn""><img src=""stimuli/pink.png"" style=""width: 200px;height: 200px;""></button>",0,pink,darkgreenblue,"[""pink"",""darkgreenblue"",""low nameability""]",left-right,"[""pink"",""darkgreenblue"",""low nameability""]",4,low nameability,34,left,response,1,CKN_102
/Users/martincz/Documents/Madison/Sapirlab/colorRuleKid/norming/v1/analysis/../data/raw_data/kids/color-rule-kid-norming_CKN_102_FINAL_SESSION_2023-03-03_09h58.21.355.csv,html-button-response,174,362288,0.0-132.0-0.0,CKN_102,102,NA,NA,NA,NA,NA,1367,"<button class=""jspsych-btn""><img src=""stimuli/brown.png"" style=""width: 200px;height: 200px;""></button>",0,brown,orange,"[""brown"",""orange"",""high nameability""]",left-right,"[""brown"",""orange"",""high nameability""]",4,high nameability,35,left,response,1,CKN_102
/Users/martincz/Documents/Madison/Sapirlab/colorRuleKid/norming/v1/analysis/../data/raw_data/kids/color-rule-kid-norming_CKN_102_FINAL_SESSION_2023-03-03_09h58.21.355.csv,html-button-response,178,369234,0.0-135.0-0.0,CKN_102,102,NA,NA,NA,NA,NA,5576,"<button class=""jspsych-btn""><img src=""stimuli/neonyellow.png"" style=""width: 200px;height: 200px;""></button>",1,neonyellow,mustard,"[""neonyellow"",""mustard"",""low nameability""]",right-left,"[""mustard"",""neonyellow""]",4,low nameability,36,right,response,1,CKN_102
/Users/martincz/Documents/Madison/Sapirlab/colorRuleKid/norming/v1/analysis/../data/raw_data/kids/color-rule-kid-norming_CKN_102_FINAL_SESSION_2023-03-03_09h58.21.355.csv,html-button-response,182,372038,0.0-138.0-0.0,CKN_102,102,NA,NA,NA,NA,NA,1273,"<button class=""jspsych-btn""><img src=""stimuli/yellow.png"" style=""width: 200px;height: 200px;""></button>",1,yellow,orange,"[""yellow"",""orange"",""high nameability""]",right-left,"[""orange"",""yellow""]",4,high nameability,37,right,response,1,CKN_102
/Users/martincz/Documents/Madison/Sapirlab/colorRuleKid/norming/v1/analysis/../data/raw_data/kids/color-rule-kid-norming_CKN_102_FINAL_SESSION_2023-03-03_09h58.21.355.csv,html-button-response,186,374633,0.0-141.0-0.0,CKN_102,102,NA,NA,NA,NA,NA,1181,"<button class=""jspsych-btn""><img src=""stimuli/red.png"" style=""width: 200px;height: 200px;""></button>",1,red,yellow,"[""red"",""yellow"",""high nameability""]",right-left,"[""yellow"",""red""]",4,high nameability,38,right,response,1,CKN_102
/Users/martincz/Documents/Madison/Sapirlab/colorRuleKid/norming/v1/analysis/../data/raw_data/kids/color-rule-kid-norming_CKN_102_FINAL_SESSION_2023-03-03_09h58.21.355.csv,html-button-response,190,377748,0.0-144.0-0.0,CKN_102,102,NA,NA,NA,NA,NA,1482,"<button class=""jspsych-btn""><img src=""stimuli/turquoise.png"" style=""width: 200px;height: 200px;""></button>",0,turquoise,pink,"[""turquoise"",""pink"",""low nameability""]",left-right,"[""turquoise"",""pink"",""low nameability""]",4,low nameability,39,left,response,1,CKN_102
/Users/martincz/Documents/Madison/Sapirlab/colorRuleKid/norming/v1/analysis/../data/raw_data/kids/color-rule-kid-norming_CKN_102_FINAL_SESSION_2023-03-03_09h58.21.355.csv,html-button-response,194,380449,0.0-147.0-0.0,CKN_102,102,NA,NA,NA,NA,NA,1142,"<button class=""jspsych-btn""><img src=""stimuli/orange.png"" style=""width: 200px;height: 200px;""></button>",0,orange,purple,"[""orange"",""purple"",""high nameability""]",left-right,"[""orange"",""purple"",""high nameability""]",4,high nameability,40,left,response,1,CKN_102
/Users/martincz/Documents/Madison/Sapirlab/colorRuleKid/norming/v1/analysis/../data/raw_data/kids/color-rule-kid-norming_CKN_102_FINAL_SESSION_2023-03-03_09h58.21.355.csv,html-button-response,202,399571,0.0-154.0-0.0,CKN_102,102,NA,NA,NA,NA,NA,2983,"<button class=""jspsych-btn""><img src=""stimuli/blue.png"" style=""width: 200px;height: 200px;""></button>",0,blue,yellow,"[""blue"",""yellow"",""high nameability""]",left-right,"[""blue"",""yellow"",""high nameability""]",5,high nameability,41,left,response,1,CKN_102
/Users/martincz/Documents/Madison/Sapirlab/colorRuleKid/norming/v1/analysis/../data/raw_data/kids/color-rule-kid-norming_CKN_102_FINAL_SESSION_2023-03-03_09h58.21.355.csv,html-button-response,206,414521,0.0-157.0-0.0,CKN_102,102,NA,NA,NA,NA,NA,1555,"<button class=""jspsych-btn""><img src=""stimuli/yellow.png"" style=""width: 200px;height: 200px;""></button>",1,yellow,brown,"[""yellow"",""brown"",""high nameability""]",right-left,"[""brown"",""yellow""]",5,high nameability,42,right,response,1,CKN_102
/Users/martincz/Documents/Madison/Sapirlab/colorRuleKid/norming/v1/analysis/../data/raw_data/kids/color-rule-kid-norming_CKN_102_FINAL_SESSION_2023-03-03_09h58.21.355.csv,html-button-response,210,423946,0.0-160.0-0.0,CKN_102,102,NA,NA,NA,NA,NA,1771,"<button class=""jspsych-btn""><img src=""stimuli/brown.png"" style=""width: 200px;height: 200px;""></button>",0,brown,yellow,"[""brown"",""yellow"",""high nameability""]",left-right,"[""brown"",""yellow"",""high nameability""]",5,high nameability,43,left,response,1,CKN_102
/Users/martincz/Documents/Madison/Sapirlab/colorRuleKid/norming/v1/analysis/../data/raw_data/kids/color-rule-kid-norming_CKN_102_FINAL_SESSION_2023-03-03_09h58.21.355.csv,html-button-response,214,426937,0.0-163.0-0.0,CKN_102,102,NA,NA,NA,NA,NA,1201,"<button class=""jspsych-btn""><img src=""stimuli/mustard.png"" style=""width: 200px;height: 200px;""></button>",0,mustard,turquoise,"[""mustard"",""turquoise"",""low nameability""]",left-right,"[""mustard"",""turquoise"",""low nameability""]",5,low nameability,44,left,response,1,CKN_102
/Users/martincz/Documents/Madison/Sapirlab/colorRuleKid/norming/v1/analysis/../data/raw_data/kids/color-rule-kid-norming_CKN_102_FINAL_SESSION_2023-03-03_09h58.21.355.csv,html-button-response,218,429831,0.0-166.0-0.0,CKN_102,102,NA,NA,NA,NA,NA,1289,"<button class=""jspsych-btn""><img src=""stimuli/blue.png"" style=""width: 200px;height: 200px;""></button>",0,blue,red,"[""blue"",""red"",""high nameability""]",left-right,"[""blue"",""red"",""high nameability""]",5,high nameability,45,left,response,1,CKN_102
/Users/martincz/Documents/Madison/Sapirlab/colorRuleKid/norming/v1/analysis/../data/raw_data/kids/color-rule-kid-norming_CKN_102_FINAL_SESSION_2023-03-03_09h58.21.355.csv,html-button-response,222,433120,0.0-169.0-0.0,CKN_102,102,NA,NA,NA,NA,NA,1584,"<button class=""jspsych-btn""><img src=""stimuli/red.png"" style=""width: 200px;height: 200px;""></button>",0,red,purple,"[""red"",""purple"",""high nameability""]",left-right,"[""red"",""purple"",""high nameability""]",5,high nameability,46,left,response,1,CKN_102
/Users/martincz/Documents/Madison/Sapirlab/colorRuleKid/norming/v1/analysis/../data/raw_data/kids/color-rule-kid-norming_CKN_102_FINAL_SESSION_2023-03-03_09h58.21.355.csv,html-button-response,226,437003,0.0-172.0-0.0,CKN_102,102,NA,NA,NA,NA,NA,1605,"<button class=""jspsych-btn""><img src=""stimuli/turquoise.png"" style=""width: 200px;height: 200px;""></button>",1,turquoise,mustard,"[""turquoise"",""mustard"",""low nameability""]",right-left,"[""mustard"",""turquoise""]",5,low nameability,47,right,response,1,CKN_102
/Users/martincz/Documents/Madison/Sapirlab/colorRuleKid/norming/v1/analysis/../data/raw_data/kids/color-rule-kid-norming_CKN_102_FINAL_SESSION_2023-03-03_09h58.21.355.csv,html-button-response,230,440751,0.0-175.0-0.0,CKN_102,102,NA,NA,NA,NA,NA,2193,"<button class=""jspsych-btn""><img src=""stimuli/mustard.png"" style=""width: 200px;height: 200px;""></button>",1,mustard,lightred,"[""mustard"",""lightred"",""low nameability""]",right-left,"[""lightred"",""mustard""]",5,low nameability,48,right,response,1,CKN_102
/Users/martincz/Documents/Madison/Sapirlab/colorRuleKid/norming/v1/analysis/../data/raw_data/kids/color-rule-kid-norming_CKN_102_FINAL_SESSION_2023-03-03_09h58.21.355.csv,html-button-response,234,443512,0.0-178.0-0.0,CKN_102,102,NA,NA,NA,NA,NA,1415,"<button class=""jspsych-btn""><img src=""stimuli/brown.png"" style=""width: 200px;height: 200px;""></button>",0,brown,purple,"[""brown"",""purple"",""high nameability""]",left-right,"[""brown"",""purple"",""high nameability""]",5,high nameability,49,left,response,1,CKN_102
/Users/martincz/Documents/Madison/Sapirlab/colorRuleKid/norming/v1/analysis/../data/raw_data/kids/color-rule-kid-norming_CKN_102_FINAL_SESSION_2023-03-03_09h58.21.355.csv,html-button-response,238,446764,0.0-181.0-0.0,CKN_102,102,NA,NA,NA,NA,NA,1988,"<button class=""jspsych-btn""><img src=""stimuli/orange.png"" style=""width: 200px;height: 200px;""></button>",1,orange,yellow,"[""orange"",""yellow"",""high nameability""]",right-left,"[""yellow"",""orange""]",5,high nameability,50,right,response,1,CKN_102
/Users/martincz/Documents/Madison/Sapirlab/colorRuleKid/norming/v1/analysis/../data/raw_data/kids/color-rule-kid-norming_CKN_102_FINAL_SESSION_2023-03-03_09h58.21.355.csv,html-button-response,246,465385,0.0-188.0-0.0,CKN_102,102,NA,NA,NA,NA,NA,2814,"<button class=""jspsych-btn""><img src=""stimuli/purple.png"" style=""width: 200px;height: 200px;""></button>",0,purple,red,"[""purple"",""red"",""high nameability""]",left-right,"[""purple"",""red"",""high nameability""]",6,high nameability,51,left,response,1,CKN_102
/Users/martincz/Documents/Madison/Sapirlab/colorRuleKid/norming/v1/analysis/../data/raw_data/kids/color-rule-kid-norming_CKN_102_FINAL_SESSION_2023-03-03_09h58.21.355.csv,html-button-response,250,473086,0.0-191.0-0.0,CKN_102,102,NA,NA,NA,NA,NA,1221,"<button class=""jspsych-btn""><img src=""stimuli/brown.png"" style=""width: 200px;height: 200px;""></button>",0,brown,red,"[""brown"",""red"",""high nameability""]",left-right,"[""brown"",""red"",""high nameability""]",6,high nameability,52,left,response,1,CKN_102
/Users/martincz/Documents/Madison/Sapirlab/colorRuleKid/norming/v1/analysis/../data/raw_data/kids/color-rule-kid-norming_CKN_102_FINAL_SESSION_2023-03-03_09h58.21.355.csv,html-button-response,254,478759,0.0-194.0-0.0,CKN_102,102,NA,NA,NA,NA,NA,3213,"<button class=""jspsych-btn""><img src=""stimuli/pink.png"" style=""width: 200px;height: 200px;""></button>",1,pink,lightred,"[""pink"",""lightred"",""low nameability""]",right-left,"[""lightred"",""pink""]",6,low nameability,53,right,response,1,CKN_102
/Users/martincz/Documents/Madison/Sapirlab/colorRuleKid/norming/v1/analysis/../data/raw_data/kids/color-rule-kid-norming_CKN_102_FINAL_SESSION_2023-03-03_09h58.21.355.csv,html-button-response,258,485124,0.0-197.0-0.0,CKN_102,102,NA,NA,NA,NA,NA,4773,"<button class=""jspsych-btn""><img src=""stimuli/neonyellow.png"" style=""width: 200px;height: 200px;""></button>",1,neonyellow,turquoise,"[""neonyellow"",""turquoise"",""low nameability""]",right-left,"[""turquoise"",""neonyellow""]",6,low nameability,54,right,response,1,CKN_102
/Users/martincz/Documents/Madison/Sapirlab/colorRuleKid/norming/v1/analysis/../data/raw_data/kids/color-rule-kid-norming_CKN_102_FINAL_SESSION_2023-03-03_09h58.21.355.csv,html-button-response,262,497655,0.0-200.0-0.0,CKN_102,102,NA,NA,NA,NA,NA,2099,"<button class=""jspsych-btn""><img src=""stimuli/darkgreenblue.png"" style=""width: 200px;height: 200px;""></button>",0,darkgreenblue,neonyellow,"[""darkgreenblue"",""neonyellow"",""low nameability""]",left-right,"[""darkgreenblue"",""neonyellow"",""low nameability""]",6,low nameability,55,left,response,1,CKN_102
/Users/martincz/Documents/Madison/Sapirlab/colorRuleKid/norming/v1/analysis/../data/raw_data/kids/color-rule-kid-norming_CKN_102_FINAL_SESSION_2023-03-03_09h58.21.355.csv,html-button-response,266,501471,0.0-203.0-0.0,CKN_102,102,NA,NA,NA,NA,NA,2111,"<button class=""jspsych-btn""><img src=""stimuli/neonyellow.png"" style=""width: 200px;height: 200px;""></button>",1,neonyellow,darkgreenblue,"[""neonyellow"",""darkgreenblue"",""low nameability""]",right-left,"[""darkgreenblue"",""neonyellow""]",6,low nameability,56,right,response,1,CKN_102
/Users/martincz/Documents/Madison/Sapirlab/colorRuleKid/norming/v1/analysis/../data/raw_data/kids/color-rule-kid-norming_CKN_102_FINAL_SESSION_2023-03-03_09h58.21.355.csv,html-button-response,270,504700,0.0-206.0-0.0,CKN_102,102,NA,NA,NA,NA,NA,1449,"<button class=""jspsych-btn""><img src=""stimuli/lightred.png"" style=""width: 200px;height: 200px;""></button>",0,lightred,pink,"[""lightred"",""pink"",""low nameability""]",left-right,"[""lightred"",""pink"",""low nameability""]",6,low nameability,57,left,response,1,CKN_102
/Users/martincz/Documents/Madison/Sapirlab/colorRuleKid/norming/v1/analysis/../data/raw_data/kids/color-rule-kid-norming_CKN_102_FINAL_SESSION_2023-03-03_09h58.21.355.csv,html-button-response,274,507735,0.0-209.0-0.0,CKN_102,102,NA,NA,NA,NA,NA,1318,"<button class=""jspsych-btn""><img src=""stimuli/turquoise.png"" style=""width: 200px;height: 200px;""></button>",0,turquoise,darkgreenblue,"[""turquoise"",""darkgreenblue"",""low nameability""]",left-right,"[""turquoise"",""darkgreenblue"",""low nameability""]",6,low nameability,58,left,response,1,CKN_102
/Users/martincz/Documents/Madison/Sapirlab/colorRuleKid/norming/v1/analysis/../data/raw_data/kids/color-rule-kid-norming_CKN_102_FINAL_SESSION_2023-03-03_09h58.21.355.csv,html-button-response,278,510728,0.0-212.0-0.0,CKN_102,102,NA,NA,NA,NA,NA,1288,"<button class=""jspsych-btn""><img src=""stimuli/mustard.png"" style=""width: 200px;height: 200px;""></button>",1,mustard,darkgreenblue,"[""mustard"",""darkgreenblue"",""low nameability""]",right-left,"[""darkgreenblue"",""mustard""]",6,low nameability,59,right,response,1,CKN_102
/Users/martincz/Documents/Madison/Sapirlab/colorRuleKid/norming/v1/analysis/../data/raw_data/kids/color-rule-kid-norming_CKN_102_FINAL_SESSION_2023-03-03_09h58.21.355.csv,html-button-response,282,517245,0.0-215.0-0.0,CKN_102,102,NA,NA,NA,NA,NA,4364,"<button class=""jspsych-btn""><img src=""stimuli/red.png"" style=""width: 200px;height: 200px;""></button>",1,red,brown,"[""red"",""brown"",""high nameability""]",right-left,"[""brown"",""red""]",6,high nameability,60,right,response,1,CKN_102
/Users/martincz/Documents/Madison/Sapirlab/colorRuleKid/norming/v1/analysis/../data/raw_data/kids/color-rule-kid-norming_CKN_103_FINAL_SESSION_2023-03-03_10h05.39.6.csv,html-button-response,5,22939,0.0-5.0-0.0,CKN_103,103,NA,NA,NA,NA,NA,2457,"<button class=""jspsych-btn""><img src=""stimuli/star.png"" style=""width: 200px;height: 200px;""></button>",1,star,square,"[""square"",""star""]",left-right,"[""square"",""star""]",1,practice,1,right,response,1,CKN_103
/Users/martincz/Documents/Madison/Sapirlab/colorRuleKid/norming/v1/analysis/../data/raw_data/kids/color-rule-kid-norming_CKN_103_FINAL_SESSION_2023-03-03_10h05.39.6.csv,html-button-response,9,26911,0.0-8.0-0.0,CKN_103,103,NA,NA,NA,NA,NA,1571,"<button class=""jspsych-btn""><img src=""stimuli/triangle.png"" style=""width: 200px;height: 200px;""></button>",0,triangle,pentagram,"[""triangle"",""pentagram""]",left-right,"[""triangle"",""pentagram""]",1,practice,1,left,response,1,CKN_103
/Users/martincz/Documents/Madison/Sapirlab/colorRuleKid/norming/v1/analysis/../data/raw_data/kids/color-rule-kid-norming_CKN_103_FINAL_SESSION_2023-03-03_10h05.39.6.csv,html-button-response,13,30364,0.0-11.0-0.0,CKN_103,103,NA,NA,NA,NA,NA,1361,"<button class=""jspsych-btn""><img src=""stimuli/diamond.png"" style=""width: 200px;height: 200px;""></button>",1,diamond,rectangle,"[""rectangle"",""diamond""]",left-right,"[""rectangle"",""diamond""]",1,practice,1,right,response,1,CKN_103
/Users/martincz/Documents/Madison/Sapirlab/colorRuleKid/norming/v1/analysis/../data/raw_data/kids/color-rule-kid-norming_CKN_103_FINAL_SESSION_2023-03-03_10h05.39.6.csv,html-button-response,17,33902,0.0-14.0-0.0,CKN_103,103,NA,NA,NA,NA,NA,1582,"<button class=""jspsych-btn""><img src=""stimuli/pentagram.png"" style=""width: 200px;height: 200px;""></button>",0,pentagram,star,"[""pentagram"",""star""]",left-right,"[""pentagram"",""star""]",1,practice,1,left,response,1,CKN_103
/Users/martincz/Documents/Madison/Sapirlab/colorRuleKid/norming/v1/analysis/../data/raw_data/kids/color-rule-kid-norming_CKN_103_FINAL_SESSION_2023-03-03_10h05.39.6.csv,html-button-response,22,42275,0.0-18.0-0.0,CKN_103,103,NA,NA,NA,NA,NA,1277,"<button class=""jspsych-btn""><img src=""stimuli/yellow.png"" style=""width: 200px;height: 200px;""></button>",0,yellow,blue,"[""yellow"",""blue"",""high nameability""]",left-right,"[""yellow"",""blue"",""high nameability""]",1,high nameability,1,left,response,1,CKN_103
/Users/martincz/Documents/Madison/Sapirlab/colorRuleKid/norming/v1/analysis/../data/raw_data/kids/color-rule-kid-norming_CKN_103_FINAL_SESSION_2023-03-03_10h05.39.6.csv,html-button-response,26,44991,0.0-21.0-0.0,CKN_103,103,NA,NA,NA,NA,NA,803,"<button class=""jspsych-btn""><img src=""stimuli/yellow.png"" style=""width: 200px;height: 200px;""></button>",1,yellow,brown,"[""yellow"",""brown"",""high nameability""]",right-left,"[""brown"",""yellow""]",1,high nameability,2,right,response,1,CKN_103
/Users/martincz/Documents/Madison/Sapirlab/colorRuleKid/norming/v1/analysis/../data/raw_data/kids/color-rule-kid-norming_CKN_103_FINAL_SESSION_2023-03-03_10h05.39.6.csv,html-button-response,30,47334,0.0-24.0-0.0,CKN_103,103,NA,NA,NA,NA,NA,831,"<button class=""jspsych-btn""><img src=""stimuli/darkgreenblue.png"" style=""width: 200px;height: 200px;""></button>",0,darkgreenblue,pink,"[""darkgreenblue"",""pink"",""low nameability""]",left-right,"[""darkgreenblue"",""pink"",""low nameability""]",1,low nameability,3,left,response,1,CKN_103
/Users/martincz/Documents/Madison/Sapirlab/colorRuleKid/norming/v1/analysis/../data/raw_data/kids/color-rule-kid-norming_CKN_103_FINAL_SESSION_2023-03-03_10h05.39.6.csv,html-button-response,34,49823,0.0-27.0-0.0,CKN_103,103,NA,NA,NA,NA,NA,895,"<button class=""jspsych-btn""><img src=""stimuli/darkgreenblue.png"" style=""width: 200px;height: 200px;""></button>",0,darkgreenblue,neonyellow,"[""darkgreenblue"",""neonyellow"",""low nameability""]",left-right,"[""darkgreenblue"",""neonyellow"",""low nameability""]",1,low nameability,4,left,response,1,CKN_103
/Users/martincz/Documents/Madison/Sapirlab/colorRuleKid/norming/v1/analysis/../data/raw_data/kids/color-rule-kid-norming_CKN_103_FINAL_SESSION_2023-03-03_10h05.39.6.csv,html-button-response,38,52071,0.0-30.0-0.0,CKN_103,103,NA,NA,NA,NA,NA,769,"<button class=""jspsych-btn""><img src=""stimuli/blue.png"" style=""width: 200px;height: 200px;""></button>",1,blue,red,"[""blue"",""red"",""high nameability""]",right-left,"[""red"",""blue""]",1,high nameability,5,right,response,1,CKN_103
/Users/martincz/Documents/Madison/Sapirlab/colorRuleKid/norming/v1/analysis/../data/raw_data/kids/color-rule-kid-norming_CKN_103_FINAL_SESSION_2023-03-03_10h05.39.6.csv,html-button-response,42,54390,0.0-33.0-0.0,CKN_103,103,NA,NA,NA,NA,NA,834,"<button class=""jspsych-btn""><img src=""stimuli/red.png"" style=""width: 200px;height: 200px;""></button>",1,red,purple,"[""red"",""purple"",""high nameability""]",right-left,"[""purple"",""red""]",1,high nameability,6,right,response,1,CKN_103
/Users/martincz/Documents/Madison/Sapirlab/colorRuleKid/norming/v1/analysis/../data/raw_data/kids/color-rule-kid-norming_CKN_103_FINAL_SESSION_2023-03-03_10h05.39.6.csv,html-button-response,46,56658,0.0-36.0-0.0,CKN_103,103,NA,NA,NA,NA,NA,1073,"<button class=""jspsych-btn""><img src=""stimuli/pink.png"" style=""width: 200px;height: 200px;""></button>",1,pink,mustard,"[""pink"",""mustard"",""low nameability""]",right-left,"[""mustard"",""pink""]",1,low nameability,7,right,response,1,CKN_103
/Users/martincz/Documents/Madison/Sapirlab/colorRuleKid/norming/v1/analysis/../data/raw_data/kids/color-rule-kid-norming_CKN_103_FINAL_SESSION_2023-03-03_10h05.39.6.csv,html-button-response,50,59263,0.0-39.0-0.0,CKN_103,103,NA,NA,NA,NA,NA,927,"<button class=""jspsych-btn""><img src=""stimuli/red.png"" style=""width: 200px;height: 200px;""></button>",0,red,brown,"[""red"",""brown"",""high nameability""]",left-right,"[""red"",""brown"",""high nameability""]",1,high nameability,8,left,response,1,CKN_103
/Users/martincz/Documents/Madison/Sapirlab/colorRuleKid/norming/v1/analysis/../data/raw_data/kids/color-rule-kid-norming_CKN_103_FINAL_SESSION_2023-03-03_10h05.39.6.csv,html-button-response,54,62875,0.0-42.0-0.0,CKN_103,103,NA,NA,NA,NA,NA,898,"<button class=""jspsych-btn""><img src=""stimuli/red.png"" style=""width: 200px;height: 200px;""></button>",0,red,yellow,"[""red"",""yellow"",""high nameability""]",left-right,"[""red"",""yellow"",""high nameability""]",1,high nameability,9,left,response,1,CKN_103
/Users/martincz/Documents/Madison/Sapirlab/colorRuleKid/norming/v1/analysis/../data/raw_data/kids/color-rule-kid-norming_CKN_103_FINAL_SESSION_2023-03-03_10h05.39.6.csv,html-button-response,58,65449,0.0-45.0-0.0,CKN_103,103,NA,NA,NA,NA,NA,986,"<button class=""jspsych-btn""><img src=""stimuli/brown.png"" style=""width: 200px;height: 200px;""></button>",1,brown,blue,"[""brown"",""blue"",""high nameability""]",right-left,"[""blue"",""brown""]",1,high nameability,10,right,response,1,CKN_103
/Users/martincz/Documents/Madison/Sapirlab/colorRuleKid/norming/v1/analysis/../data/raw_data/kids/color-rule-kid-norming_CKN_103_FINAL_SESSION_2023-03-03_10h05.39.6.csv,html-button-response,66,74486,0.0-52.0-0.0,CKN_103,103,NA,NA,NA,NA,NA,852,"<button class=""jspsych-btn""><img src=""stimuli/orange.png"" style=""width: 200px;height: 200px;""></button>",1,orange,blue,"[""orange"",""blue"",""high nameability""]",right-left,"[""blue"",""orange""]",2,high nameability,11,right,response,1,CKN_103
/Users/martincz/Documents/Madison/Sapirlab/colorRuleKid/norming/v1/analysis/../data/raw_data/kids/color-rule-kid-norming_CKN_103_FINAL_SESSION_2023-03-03_10h05.39.6.csv,html-button-response,70,76802,0.0-55.0-0.0,CKN_103,103,NA,NA,NA,NA,NA,790,"<button class=""jspsych-btn""><img src=""stimuli/yellow.png"" style=""width: 200px;height: 200px;""></button>",1,yellow,orange,"[""yellow"",""orange"",""high nameability""]",left-right,"[""yellow"",""orange"",""high nameability""]",2,high nameability,12,left,response,0,CKN_103
/Users/martincz/Documents/Madison/Sapirlab/colorRuleKid/norming/v1/analysis/../data/raw_data/kids/color-rule-kid-norming_CKN_103_FINAL_SESSION_2023-03-03_10h05.39.6.csv,html-button-response,72,90929,0.0-55.1-0.1,CKN_103,103,NA,NA,NA,NA,NA,13458,"<button class=""jspsych-btn""><img src=""stimuli/yellow.png"" style=""width: 200px;height: 200px;""></button>",0,yellow,orange,"[""yellow"",""orange"",""high nameability""]",left-right,"[""yellow"",""orange"",""high nameability""]",2,high nameability,12,left,response,1,CKN_103
/Users/martincz/Documents/Madison/Sapirlab/colorRuleKid/norming/v1/analysis/../data/raw_data/kids/color-rule-kid-norming_CKN_103_FINAL_SESSION_2023-03-03_10h05.39.6.csv,html-button-response,76,93873,0.0-58.0-0.0,CKN_103,103,NA,NA,NA,NA,NA,1097,"<button class=""jspsych-btn""><img src=""stimuli/neonyellow.png"" style=""width: 200px;height: 200px;""></button>",0,neonyellow,darkgreenblue,"[""neonyellow"",""darkgreenblue"",""low nameability""]",left-right,"[""neonyellow"",""darkgreenblue"",""low nameability""]",2,low nameability,13,left,response,1,CKN_103
/Users/martincz/Documents/Madison/Sapirlab/colorRuleKid/norming/v1/analysis/../data/raw_data/kids/color-rule-kid-norming_CKN_103_FINAL_SESSION_2023-03-03_10h05.39.6.csv,html-button-response,80,96414,0.0-61.0-0.0,CKN_103,103,NA,NA,NA,NA,NA,1121,"<button class=""jspsych-btn""><img src=""stimuli/turquoise.png"" style=""width: 200px;height: 200px;""></button>",1,turquoise,pink,"[""turquoise"",""pink"",""low nameability""]",right-left,"[""pink"",""turquoise""]",2,low nameability,14,right,response,1,CKN_103
/Users/martincz/Documents/Madison/Sapirlab/colorRuleKid/norming/v1/analysis/../data/raw_data/kids/color-rule-kid-norming_CKN_103_FINAL_SESSION_2023-03-03_10h05.39.6.csv,html-button-response,84,100339,0.0-64.0-0.0,CKN_103,103,NA,NA,NA,NA,NA,1094,"<button class=""jspsych-btn""><img src=""stimuli/neonyellow.png"" style=""width: 200px;height: 200px;""></button>",1,neonyellow,turquoise,"[""neonyellow"",""turquoise"",""low nameability""]",right-left,"[""turquoise"",""neonyellow""]",2,low nameability,15,right,response,1,CKN_103
/Users/martincz/Documents/Madison/Sapirlab/colorRuleKid/norming/v1/analysis/../data/raw_data/kids/color-rule-kid-norming_CKN_103_FINAL_SESSION_2023-03-03_10h05.39.6.csv,html-button-response,88,102202,0.0-67.0-0.0,CKN_103,103,NA,NA,NA,NA,NA,797,"<button class=""jspsych-btn""><img src=""stimuli/darkgreenblue.png"" style=""width: 200px;height: 200px;""></button>",1,darkgreenblue,turquoise,"[""darkgreenblue"",""turquoise"",""low nameability""]",right-left,"[""turquoise"",""darkgreenblue""]",2,low nameability,16,right,response,1,CKN_103
/Users/martincz/Documents/Madison/Sapirlab/colorRuleKid/norming/v1/analysis/../data/raw_data/kids/color-rule-kid-norming_CKN_103_FINAL_SESSION_2023-03-03_10h05.39.6.csv,html-button-response,92,104255,0.0-70.0-0.0,CKN_103,103,NA,NA,NA,NA,NA,776,"<button class=""jspsych-btn""><img src=""stimuli/mustard.png"" style=""width: 200px;height: 200px;""></button>",1,mustard,darkgreenblue,"[""mustard"",""darkgreenblue"",""low nameability""]",right-left,"[""darkgreenblue"",""mustard""]",2,low nameability,17,right,response,1,CKN_103
/Users/martincz/Documents/Madison/Sapirlab/colorRuleKid/norming/v1/analysis/../data/raw_data/kids/color-rule-kid-norming_CKN_103_FINAL_SESSION_2023-03-03_10h05.39.6.csv,html-button-response,96,106316,0.0-73.0-0.0,CKN_103,103,NA,NA,NA,NA,NA,778,"<button class=""jspsych-btn""><img src=""stimuli/orange.png"" style=""width: 200px;height: 200px;""></button>",1,orange,purple,"[""orange"",""purple"",""high nameability""]",right-left,"[""purple"",""orange""]",2,high nameability,18,right,response,1,CKN_103
/Users/martincz/Documents/Madison/Sapirlab/colorRuleKid/norming/v1/analysis/../data/raw_data/kids/color-rule-kid-norming_CKN_103_FINAL_SESSION_2023-03-03_10h05.39.6.csv,html-button-response,100,109205,0.0-76.0-0.0,CKN_103,103,NA,NA,NA,NA,NA,1537,"<button class=""jspsych-btn""><img src=""stimuli/purple.png"" style=""width: 200px;height: 200px;""></button>",0,purple,yellow,"[""purple"",""yellow"",""high nameability""]",left-right,"[""purple"",""yellow"",""high nameability""]",2,high nameability,19,left,response,1,CKN_103
/Users/martincz/Documents/Madison/Sapirlab/colorRuleKid/norming/v1/analysis/../data/raw_data/kids/color-rule-kid-norming_CKN_103_FINAL_SESSION_2023-03-03_10h05.39.6.csv,html-button-response,104,111869,0.0-79.0-0.0,CKN_103,103,NA,NA,NA,NA,NA,881,"<button class=""jspsych-btn""><img src=""stimuli/purple.png"" style=""width: 200px;height: 200px;""></button>",0,purple,orange,"[""purple"",""orange"",""high nameability""]",left-right,"[""purple"",""orange"",""high nameability""]",2,high nameability,20,left,response,1,CKN_103
/Users/martincz/Documents/Madison/Sapirlab/colorRuleKid/norming/v1/analysis/../data/raw_data/kids/color-rule-kid-norming_CKN_103_FINAL_SESSION_2023-03-03_10h05.39.6.csv,html-button-response,112,122297,0.0-86.0-0.0,CKN_103,103,NA,NA,NA,NA,NA,1953,"<button class=""jspsych-btn""><img src=""stimuli/neonyellow.png"" style=""width: 200px;height: 200px;""></button>",0,neonyellow,mustard,"[""neonyellow"",""mustard"",""low nameability""]",left-right,"[""neonyellow"",""mustard"",""low nameability""]",3,low nameability,21,left,response,1,CKN_103
/Users/martincz/Documents/Madison/Sapirlab/colorRuleKid/norming/v1/analysis/../data/raw_data/kids/color-rule-kid-norming_CKN_103_FINAL_SESSION_2023-03-03_10h05.39.6.csv,html-button-response,116,124856,0.0-89.0-0.0,CKN_103,103,NA,NA,NA,NA,NA,858,"<button class=""jspsych-btn""><img src=""stimuli/turquoise.png"" style=""width: 200px;height: 200px;""></button>",1,turquoise,darkgreenblue,"[""turquoise"",""darkgreenblue"",""low nameability""]",right-left,"[""darkgreenblue"",""turquoise""]",3,low nameability,22,right,response,1,CKN_103
