"trial_type","trial_index","time_elapsed","internal_node_id","subject_id","seed","success","timeout","failed_images","failed_audio","failed_video","rt","stimulus","response","target","foil","choices","combination_order","choices_in_order","round","condition","trial_counter","target_location","trial_kind","correct"
"pavlovia","0","15","0.0-0.0","CKN_112","112","","","","","","","","","","","","","","","","","","",""
"preload","1","1126","0.0-1.0","CKN_112","112","true","false","[]","[]","[]","","","","","","","","","","","","","",""
"fullscreen","2","3735","0.0-2.0","CKN_112","112","true","","","","","","","","","","","","","","","","","",""
"html-button-response","3","21671","0.0-3.0","CKN_112","112","","","","","","17912","","0","","","","","","","","","","",""
"html-button-response","4","25779","0.0-4.0","CKN_112","112","","","","","","4094","","0","star","square","[""square"",""star""]","left-right","[""square"",""star""]","1","practice","1","right","trigger",""
"html-button-response","5","36319","0.0-5.0-0.0","CKN_112","112","","","","","","10530","<button class=""jspsych-btn""><img src=""stimuli/star.png"" style=""width: 200px;height: 200px;""></button>","0","star","square","[""square"",""star""]","left-right","[""square"",""star""]","1","practice","1","right","response","0"
"html-audio-button-response","6","36971","0.0-5.0-1.0","CKN_112","112","","","","","","null","stimuli/boing.m4a","null","star","square","[""square"",""star""]","left-right","[""square"",""star""]","1","practice","1","right","audio_feedback","0"
"html-button-response","7","44647","0.0-5.1-0.1","CKN_112","112","","","","","","7654","<button class=""jspsych-btn""><img src=""stimuli/star.png"" style=""width: 200px;height: 200px;""></button>","1","star","square","[""square"",""star""]","left-right","[""square"",""star""]","1","practice","1","right","response","1"
"html-audio-button-response","8","44852","0.0-5.1-1.1","CKN_112","112","","","","","","null","stimuli/bleep.m4a","null","star","square","[""square"",""star""]","left-right","[""square"",""star""]","1","practice","1","right","audio_feedback","1"
"html-button-response","9","45365","0.0-6.0","CKN_112","112","","","","","","null","<button class=""jspsych-btn""><img src=""stimuli/white_square.png"" style=""width: 200px;height: 200px;""></button>","null","star","square","[""square"",""star""]","left-right","[""square"",""star""]","1","practice","1","right","iti",""
"html-button-response","10","49691","0.0-7.0","CKN_112","112","","","","","","4317","","0","triangle","pentagram","[""triangle"",""pentagram""]","left-right","[""triangle"",""pentagram""]","1","practice","1","left","trigger",""
"html-button-response","11","54066","0.0-8.0-0.0","CKN_112","112","","","","","","4364","<button class=""jspsych-btn""><img src=""stimuli/triangle.png"" style=""width: 200px;height: 200px;""></button>","1","triangle","pentagram","[""triangle"",""pentagram""]","left-right","[""triangle"",""pentagram""]","1","practice","1","left","response","0"
"html-audio-button-response","12","54702","0.0-8.0-1.0","CKN_112","112","","","","","","null","stimuli/boing.m4a","null","triangle","pentagram","[""triangle"",""pentagram""]","left-right","[""triangle"",""pentagram""]","1","practice","1","left","audio_feedback","0"
"html-button-response","13","58232","0.0-8.1-0.1","CKN_112","112","","","","","","3500","<button class=""jspsych-btn""><img src=""stimuli/triangle.png"" style=""width: 200px;height: 200px;""></button>","0","triangle","pentagram","[""triangle"",""pentagram""]","left-right","[""triangle"",""pentagram""]","1","practice","1","left","response","1"
"html-audio-button-response","14","58440","0.0-8.1-1.1","CKN_112","112","","","","","","null","stimuli/bleep.m4a","null","triangle","pentagram","[""triangle"",""pentagram""]","left-right","[""triangle"",""pentagram""]","1","practice","1","left","audio_feedback","1"
"html-button-response","15","58953","0.0-9.0","CKN_112","112","","","","","","null","<button class=""jspsych-btn""><img src=""stimuli/white_square.png"" style=""width: 200px;height: 200px;""></button>","null","triangle","pentagram","[""triangle"",""pentagram""]","left-right","[""triangle"",""pentagram""]","1","practice","1","left","iti",""
"html-button-response","16","63966","0.0-10.0","CKN_112","112","","","","","","5004","","0","diamond","rectangle","[""rectangle"",""diamond""]","left-right","[""rectangle"",""diamond""]","1","practice","1","right","trigger",""
"html-button-response","17","67916","0.0-11.0-0.0","CKN_112","112","","","","","","3943","<button class=""jspsych-btn""><img src=""stimuli/diamond.png"" style=""width: 200px;height: 200px;""></button>","1","diamond","rectangle","[""rectangle"",""diamond""]","left-right","[""rectangle"",""diamond""]","1","practice","1","right","response","1"
"html-audio-button-response","18","68124","0.0-11.0-1.0","CKN_112","112","","","","","","null","stimuli/bleep.m4a","null","diamond","rectangle","[""rectangle"",""diamond""]","left-right","[""rectangle"",""diamond""]","1","practice","1","right","audio_feedback","1"
"html-button-response","19","68638","0.0-12.0","CKN_112","112","","","","","","null","<button class=""jspsych-btn""><img src=""stimuli/white_square.png"" style=""width: 200px;height: 200px;""></button>","null","diamond","rectangle","[""rectangle"",""diamond""]","left-right","[""rectangle"",""diamond""]","1","practice","1","right","iti",""
"html-button-response","20","71419","0.0-13.0","CKN_112","112","","","","","","2768","","0","pentagram","star","[""pentagram"",""star""]","left-right","[""pentagram"",""star""]","1","practice","1","left","trigger",""
"html-button-response","21","74939","0.0-14.0-0.0","CKN_112","112","","","","","","3510","<button class=""jspsych-btn""><img src=""stimuli/pentagram.png"" style=""width: 200px;height: 200px;""></button>","0","pentagram","star","[""pentagram"",""star""]","left-right","[""pentagram"",""star""]","1","practice","1","left","response","1"
"html-audio-button-response","22","75148","0.0-14.0-1.0","CKN_112","112","","","","","","null","stimuli/bleep.m4a","null","pentagram","star","[""pentagram"",""star""]","left-right","[""pentagram"",""star""]","1","practice","1","left","audio_feedback","1"
"html-button-response","23","75666","0.0-15.0","CKN_112","112","","","","","","null","<button class=""jspsych-btn""><img src=""stimuli/white_square.png"" style=""width: 200px;height: 200px;""></button>","null","pentagram","star","[""pentagram"",""star""]","left-right","[""pentagram"",""star""]","1","practice","1","left","iti",""
"html-button-response","24","89550","0.0-16.0","CKN_112","112","","","","","","13869","","0","","","","","","","","","","",""
"html-button-response","25","92560","0.0-17.0","CKN_112","112","","","","","","3001","","0","turquoise","mustard","[""turquoise"",""mustard"",""low nameability""]","left-right","[""turquoise"",""mustard"",""low nameability""]","1","low nameability","1","left","trigger",""
"html-button-response","26","98657","0.0-18.0-0.0","CKN_112","112","","","","","","6089","<button class=""jspsych-btn""><img src=""stimuli/turquoise.png"" style=""width: 200px;height: 200px;""></button>","1","turquoise","mustard","[""turquoise"",""mustard"",""low nameability""]","left-right","[""turquoise"",""mustard"",""low nameability""]","1","low nameability","1","left","response","0"
"html-audio-button-response","27","99291","0.0-18.0-1.0","CKN_112","112","","","","","","null","stimuli/boing.m4a","null","turquoise","mustard","[""turquoise"",""mustard"",""low nameability""]","left-right","[""turquoise"",""mustard"",""low nameability""]","1","low nameability","1","left","audio_feedback","0"
"html-button-response","28","99775","0.0-18.1-0.1","CKN_112","112","","","","","","454","<button class=""jspsych-btn""><img src=""stimuli/turquoise.png"" style=""width: 200px;height: 200px;""></button>","0","turquoise","mustard","[""turquoise"",""mustard"",""low nameability""]","left-right","[""turquoise"",""mustard"",""low nameability""]","1","low nameability","1","left","response","1"
"html-audio-button-response","29","99983","0.0-18.1-1.1","CKN_112","112","","","","","","null","stimuli/bleep.m4a","null","turquoise","mustard","[""turquoise"",""mustard"",""low nameability""]","left-right","[""turquoise"",""mustard"",""low nameability""]","1","low nameability","1","left","audio_feedback","1"
"html-button-response","30","100504","0.0-19.0","CKN_112","112","","","","","","null","<button class=""jspsych-btn""><img src=""stimuli/white_square.png"" style=""width: 200px;height: 200px;""></button>","null","turquoise","mustard","[""turquoise"",""mustard"",""low nameability""]","left-right","[""turquoise"",""mustard"",""low nameability""]","1","low nameability","1","left","iti",""
"html-button-response","31","103402","0.0-20.0","CKN_112","112","","","","","","2881","","0","darkgreenblue","pink","[""darkgreenblue"",""pink"",""low nameability""]","left-right","[""darkgreenblue"",""pink"",""low nameability""]","1","low nameability","2","left","trigger",""
"html-button-response","32","108014","0.0-21.0-0.0","CKN_112","112","","","","","","4604","<button class=""jspsych-btn""><img src=""stimuli/darkgreenblue.png"" style=""width: 200px;height: 200px;""></button>","0","darkgreenblue","pink","[""darkgreenblue"",""pink"",""low nameability""]","left-right","[""darkgreenblue"",""pink"",""low nameability""]","1","low nameability","2","left","response","1"
"html-audio-button-response","33","108222","0.0-21.0-1.0","CKN_112","112","","","","","","null","stimuli/bleep.m4a","null","darkgreenblue","pink","[""darkgreenblue"",""pink"",""low nameability""]","left-right","[""darkgreenblue"",""pink"",""low nameability""]","1","low nameability","2","left","audio_feedback","1"
"html-button-response","34","108737","0.0-22.0","CKN_112","112","","","","","","null","<button class=""jspsych-btn""><img src=""stimuli/white_square.png"" style=""width: 200px;height: 200px;""></button>","null","darkgreenblue","pink","[""darkgreenblue"",""pink"",""low nameability""]","left-right","[""darkgreenblue"",""pink"",""low nameability""]","1","low nameability","2","left","iti",""
"html-button-response","35","112426","0.0-23.0","CKN_112","112","","","","","","3674","","0","yellow","purple","[""yellow"",""purple"",""high nameability""]","left-right","[""yellow"",""purple"",""high nameability""]","1","high nameability","3","left","trigger",""
"html-button-response","36","115705","0.0-24.0-0.0","CKN_112","112","","","","","","3269","<button class=""jspsych-btn""><img src=""stimuli/yellow.png"" style=""width: 200px;height: 200px;""></button>","0","yellow","purple","[""yellow"",""purple"",""high nameability""]","left-right","[""yellow"",""purple"",""high nameability""]","1","high nameability","3","left","response","1"
"html-audio-button-response","37","115915","0.0-24.0-1.0","CKN_112","112","","","","","","null","stimuli/bleep.m4a","null","yellow","purple","[""yellow"",""purple"",""high nameability""]","left-right","[""yellow"",""purple"",""high nameability""]","1","high nameability","3","left","audio_feedback","1"
"html-button-response","38","116433","0.0-25.0","CKN_112","112","","","","","","null","<button class=""jspsych-btn""><img src=""stimuli/white_square.png"" style=""width: 200px;height: 200px;""></button>","null","yellow","purple","[""yellow"",""purple"",""high nameability""]","left-right","[""yellow"",""purple"",""high nameability""]","1","high nameability","3","left","iti",""
"html-button-response","39","119445","0.0-26.0","CKN_112","112","","","","","","3003","","0","neonyellow","pink","[""neonyellow"",""pink"",""low nameability""]","left-right","[""neonyellow"",""pink"",""low nameability""]","1","low nameability","4","left","trigger",""
"html-button-response","40","121902","0.0-27.0-0.0","CKN_112","112","","","","","","2450","<button class=""jspsych-btn""><img src=""stimuli/neonyellow.png"" style=""width: 200px;height: 200px;""></button>","0","neonyellow","pink","[""neonyellow"",""pink"",""low nameability""]","left-right","[""neonyellow"",""pink"",""low nameability""]","1","low nameability","4","left","response","1"
"html-audio-button-response","41","122108","0.0-27.0-1.0","CKN_112","112","","","","","","null","stimuli/bleep.m4a","null","neonyellow","pink","[""neonyellow"",""pink"",""low nameability""]","left-right","[""neonyellow"",""pink"",""low nameability""]","1","low nameability","4","left","audio_feedback","1"
"html-button-response","42","122621","0.0-28.0","CKN_112","112","","","","","","null","<button class=""jspsych-btn""><img src=""stimuli/white_square.png"" style=""width: 200px;height: 200px;""></button>","null","neonyellow","pink","[""neonyellow"",""pink"",""low nameability""]","left-right","[""neonyellow"",""pink"",""low nameability""]","1","low nameability","4","left","iti",""
"html-button-response","43","124433","0.0-29.0","CKN_112","112","","","","","","1799","","0","pink","lightred","[""pink"",""lightred"",""low nameability""]","right-left","[""lightred"",""pink""]","1","low nameability","5","right","trigger",""
"html-button-response","44","128079","0.0-30.0-0.0","CKN_112","112","","","","","","3637","<button class=""jspsych-btn""><img src=""stimuli/pink.png"" style=""width: 200px;height: 200px;""></button>","1","pink","lightred","[""pink"",""lightred"",""low nameability""]","right-left","[""lightred"",""pink""]","1","low nameability","5","right","response","1"
"html-audio-button-response","45","128281","0.0-30.0-1.0","CKN_112","112","","","","","","null","stimuli/bleep.m4a","null","pink","lightred","[""pink"",""lightred"",""low nameability""]","right-left","[""lightred"",""pink""]","1","low nameability","5","right","audio_feedback","1"
"html-button-response","46","128792","0.0-31.0","CKN_112","112","","","","","","null","<button class=""jspsych-btn""><img src=""stimuli/white_square.png"" style=""width: 200px;height: 200px;""></button>","null","pink","lightred","[""pink"",""lightred"",""low nameability""]","right-left","[""lightred"",""pink""]","1","low nameability","5","right","iti",""
"html-button-response","47","131630","0.0-32.0","CKN_112","112","","","","","","2828","","0","blue","red","[""blue"",""red"",""high nameability""]","right-left","[""red"",""blue""]","1","high nameability","6","right","trigger",""
"html-button-response","48","134713","0.0-33.0-0.0","CKN_112","112","","","","","","3077","<button class=""jspsych-btn""><img src=""stimuli/blue.png"" style=""width: 200px;height: 200px;""></button>","1","blue","red","[""blue"",""red"",""high nameability""]","right-left","[""red"",""blue""]","1","high nameability","6","right","response","1"
"html-audio-button-response","49","134912","0.0-33.0-1.0","CKN_112","112","","","","","","null","stimuli/bleep.m4a","null","blue","red","[""blue"",""red"",""high nameability""]","right-left","[""red"",""blue""]","1","high nameability","6","right","audio_feedback","1"
"html-button-response","50","135422","0.0-34.0","CKN_112","112","","","","","","null","<button class=""jspsych-btn""><img src=""stimuli/white_square.png"" style=""width: 200px;height: 200px;""></button>","null","blue","red","[""blue"",""red"",""high nameability""]","right-left","[""red"",""blue""]","1","high nameability","6","right","iti",""
"html-button-response","51","137470","0.0-35.0","CKN_112","112","","","","","","2037","","0","yellow","brown","[""yellow"",""brown"",""high nameability""]","right-left","[""brown"",""yellow""]","1","high nameability","7","right","trigger",""
"html-button-response","52","141535","0.0-36.0-0.0","CKN_112","112","","","","","","4057","<button class=""jspsych-btn""><img src=""stimuli/yellow.png"" style=""width: 200px;height: 200px;""></button>","1","yellow","brown","[""yellow"",""brown"",""high nameability""]","right-left","[""brown"",""yellow""]","1","high nameability","7","right","response","1"
"html-audio-button-response","53","141739","0.0-36.0-1.0","CKN_112","112","","","","","","null","stimuli/bleep.m4a","null","yellow","brown","[""yellow"",""brown"",""high nameability""]","right-left","[""brown"",""yellow""]","1","high nameability","7","right","audio_feedback","1"
"html-button-response","54","142259","0.0-37.0","CKN_112","112","","","","","","null","<button class=""jspsych-btn""><img src=""stimuli/white_square.png"" style=""width: 200px;height: 200px;""></button>","null","yellow","brown","[""yellow"",""brown"",""high nameability""]","right-left","[""brown"",""yellow""]","1","high nameability","7","right","iti",""
"html-button-response","55","144677","0.0-38.0","CKN_112","112","","","","","","2406","","0","brown","orange","[""brown"",""orange"",""high nameability""]","right-left","[""orange"",""brown""]","1","high nameability","8","right","trigger",""
"html-button-response","56","148379","0.0-39.0-0.0","CKN_112","112","","","","","","3693","<button class=""jspsych-btn""><img src=""stimuli/brown.png"" style=""width: 200px;height: 200px;""></button>","1","brown","orange","[""brown"",""orange"",""high nameability""]","right-left","[""orange"",""brown""]","1","high nameability","8","right","response","1"
"html-audio-button-response","57","148592","0.0-39.0-1.0","CKN_112","112","","","","","","null","stimuli/bleep.m4a","null","brown","orange","[""brown"",""orange"",""high nameability""]","right-left","[""orange"",""brown""]","1","high nameability","8","right","audio_feedback","1"
"html-button-response","58","149104","0.0-40.0","CKN_112","112","","","","","","null","<button class=""jspsych-btn""><img src=""stimuli/white_square.png"" style=""width: 200px;height: 200px;""></button>","null","brown","orange","[""brown"",""orange"",""high nameability""]","right-left","[""orange"",""brown""]","1","high nameability","8","right","iti",""
"html-button-response","59","151119","0.0-41.0","CKN_112","112","","","","","","2001","","0","pink","darkgreenblue","[""pink"",""darkgreenblue"",""low nameability""]","left-right","[""pink"",""darkgreenblue"",""low nameability""]","1","low nameability","9","left","trigger",""
"html-button-response","60","154362","0.0-42.0-0.0","CKN_112","112","","","","","","3235","<button class=""jspsych-btn""><img src=""stimuli/pink.png"" style=""width: 200px;height: 200px;""></button>","0","pink","darkgreenblue","[""pink"",""darkgreenblue"",""low nameability""]","left-right","[""pink"",""darkgreenblue"",""low nameability""]","1","low nameability","9","left","response","1"
"html-audio-button-response","61","154569","0.0-42.0-1.0","CKN_112","112","","","","","","null","stimuli/bleep.m4a","null","pink","darkgreenblue","[""pink"",""darkgreenblue"",""low nameability""]","left-right","[""pink"",""darkgreenblue"",""low nameability""]","1","low nameability","9","left","audio_feedback","1"
"html-button-response","62","155084","0.0-43.0","CKN_112","112","","","","","","null","<button class=""jspsych-btn""><img src=""stimuli/white_square.png"" style=""width: 200px;height: 200px;""></button>","null","pink","darkgreenblue","[""pink"",""darkgreenblue"",""low nameability""]","left-right","[""pink"",""darkgreenblue"",""low nameability""]","1","low nameability","9","left","iti",""
"html-button-response","63","161594","0.0-44.0","CKN_112","112","","","","","","6497","","0","lightred","mustard","[""lightred"",""mustard"",""low nameability""]","left-right","[""lightred"",""mustard"",""low nameability""]","1","low nameability","10","left","trigger",""
"html-button-response","64","163828","0.0-45.0-0.0","CKN_112","112","","","","","","2224","<button class=""jspsych-btn""><img src=""stimuli/lightred.png"" style=""width: 200px;height: 200px;""></button>","0","lightred","mustard","[""lightred"",""mustard"",""low nameability""]","left-right","[""lightred"",""mustard"",""low nameability""]","1","low nameability","10","left","response","1"
"html-audio-button-response","65","164036","0.0-45.0-1.0","CKN_112","112","","","","","","null","stimuli/bleep.m4a","null","lightred","mustard","[""lightred"",""mustard"",""low nameability""]","left-right","[""lightred"",""mustard"",""low nameability""]","1","low nameability","10","left","audio_feedback","1"
"html-button-response","66","164554","0.0-46.0","CKN_112","112","","","","","","null","<button class=""jspsych-btn""><img src=""stimuli/white_square.png"" style=""width: 200px;height: 200px;""></button>","null","lightred","mustard","[""lightred"",""mustard"",""low nameability""]","left-right","[""lightred"",""mustard"",""low nameability""]","1","low nameability","10","left","iti",""
"pavlovia","67","164637","0.0-47.0","CKN_112","112","","","","","","","","","","","","","","","","","","",""
"pavlovia","68","164647","0.0-48.0","CKN_112","112","","","","","","","","","","","","","","","","","","",""
"html-audio-button-response","69","172539","0.0-49.0","CKN_112","112","","","","","","7984","stimuli/tada.m4a","0","","","","","","","","","","",""
"html-button-response","70","173100","0.0-50.0","CKN_112","112","","","","","","556","","0","","","","","","","","","","",""
"html-button-response","71","174740","0.0-51.0","CKN_112","112","","","","","","1630","","0","darkgreenblue","lightred","[""darkgreenblue"",""lightred"",""low nameability""]","right-left","[""lightred"",""darkgreenblue""]","2","low nameability","11","right","trigger",""
"html-button-response","72","176553","0.0-52.0-0.0","CKN_112","112","","","","","","1802","<button class=""jspsych-btn""><img src=""stimuli/darkgreenblue.png"" style=""width: 200px;height: 200px;""></button>","1","darkgreenblue","lightred","[""darkgreenblue"",""lightred"",""low nameability""]","right-left","[""lightred"",""darkgreenblue""]","2","low nameability","11","right","response","1"
"html-audio-button-response","73","176753","0.0-52.0-1.0","CKN_112","112","","","","","","null","stimuli/bleep.m4a","null","darkgreenblue","lightred","[""darkgreenblue"",""lightred"",""low nameability""]","right-left","[""lightred"",""darkgreenblue""]","2","low nameability","11","right","audio_feedback","1"
"html-button-response","74","177266","0.0-53.0","CKN_112","112","","","","","","null","<button class=""jspsych-btn""><img src=""stimuli/white_square.png"" style=""width: 200px;height: 200px;""></button>","null","darkgreenblue","lightred","[""darkgreenblue"",""lightred"",""low nameability""]","right-left","[""lightred"",""darkgreenblue""]","2","low nameability","11","right","iti",""
"html-button-response","75","178781","0.0-54.0","CKN_112","112","","","","","","1499","","0","purple","orange","[""purple"",""orange"",""high nameability""]","left-right","[""purple"",""orange"",""high nameability""]","2","high nameability","12","left","trigger",""
"html-button-response","76","180821","0.0-55.0-0.0","CKN_112","112","","","","","","2031","<button class=""jspsych-btn""><img src=""stimuli/purple.png"" style=""width: 200px;height: 200px;""></button>","0","purple","orange","[""purple"",""orange"",""high nameability""]","left-right","[""purple"",""orange"",""high nameability""]","2","high nameability","12","left","response","1"
"html-audio-button-response","77","181026","0.0-55.0-1.0","CKN_112","112","","","","","","null","stimuli/bleep.m4a","null","purple","orange","[""purple"",""orange"",""high nameability""]","left-right","[""purple"",""orange"",""high nameability""]","2","high nameability","12","left","audio_feedback","1"
"html-button-response","78","181543","0.0-56.0","CKN_112","112","","","","","","null","<button class=""jspsych-btn""><img src=""stimuli/white_square.png"" style=""width: 200px;height: 200px;""></button>","null","purple","orange","[""purple"",""orange"",""high nameability""]","left-right","[""purple"",""orange"",""high nameability""]","2","high nameability","12","left","iti",""
"html-button-response","79","181673","0.0-57.0","CKN_112","112","","","","","","109","","0","purple","blue","[""purple"",""blue"",""high nameability""]","right-left","[""blue"",""purple""]","2","high nameability","13","right","trigger",""
"html-button-response","80","185084","0.0-58.0-0.0","CKN_112","112","","","","","","3405","<button class=""jspsych-btn""><img src=""stimuli/purple.png"" style=""width: 200px;height: 200px;""></button>","1","purple","blue","[""purple"",""blue"",""high nameability""]","right-left","[""blue"",""purple""]","2","high nameability","13","right","response","1"
"html-audio-button-response","81","185290","0.0-58.0-1.0","CKN_112","112","","","","","","null","stimuli/bleep.m4a","null","purple","blue","[""purple"",""blue"",""high nameability""]","right-left","[""blue"",""purple""]","2","high nameability","13","right","audio_feedback","1"
"html-button-response","82","185802","0.0-59.0","CKN_112","112","","","","","","null","<button class=""jspsych-btn""><img src=""stimuli/white_square.png"" style=""width: 200px;height: 200px;""></button>","null","purple","blue","[""purple"",""blue"",""high nameability""]","right-left","[""blue"",""purple""]","2","high nameability","13","right","iti",""
"html-button-response","83","186704","0.0-60.0","CKN_112","112","","","","","","892","","0","orange","red","[""orange"",""red"",""high nameability""]","right-left","[""red"",""orange""]","2","high nameability","14","right","trigger",""
"html-button-response","84","189353","0.0-61.0-0.0","CKN_112","112","","","","","","2641","<button class=""jspsych-btn""><img src=""stimuli/orange.png"" style=""width: 200px;height: 200px;""></button>","1","orange","red","[""orange"",""red"",""high nameability""]","right-left","[""red"",""orange""]","2","high nameability","14","right","response","1"
"html-audio-button-response","85","189555","0.0-61.0-1.0","CKN_112","112","","","","","","null","stimuli/bleep.m4a","null","orange","red","[""orange"",""red"",""high nameability""]","right-left","[""red"",""orange""]","2","high nameability","14","right","audio_feedback","1"
"html-button-response","86","190071","0.0-62.0","CKN_112","112","","","","","","null","<button class=""jspsych-btn""><img src=""stimuli/white_square.png"" style=""width: 200px;height: 200px;""></button>","null","orange","red","[""orange"",""red"",""high nameability""]","right-left","[""red"",""orange""]","2","high nameability","14","right","iti",""
"html-button-response","87","193145","0.0-63.0","CKN_112","112","","","","","","3061","","0","yellow","orange","[""yellow"",""orange"",""high nameability""]","left-right","[""yellow"",""orange"",""high nameability""]","2","high nameability","15","left","trigger",""
"html-button-response","88","195101","0.0-64.0-0.0","CKN_112","112","","","","","","1947","<button class=""jspsych-btn""><img src=""stimuli/yellow.png"" style=""width: 200px;height: 200px;""></button>","0","yellow","orange","[""yellow"",""orange"",""high nameability""]","left-right","[""yellow"",""orange"",""high nameability""]","2","high nameability","15","left","response","1"
"html-audio-button-response","89","195304","0.0-64.0-1.0","CKN_112","112","","","","","","null","stimuli/bleep.m4a","null","yellow","orange","[""yellow"",""orange"",""high nameability""]","left-right","[""yellow"",""orange"",""high nameability""]","2","high nameability","15","left","audio_feedback","1"
"html-button-response","90","195819","0.0-65.0","CKN_112","112","","","","","","null","<button class=""jspsych-btn""><img src=""stimuli/white_square.png"" style=""width: 200px;height: 200px;""></button>","null","yellow","orange","[""yellow"",""orange"",""high nameability""]","left-right","[""yellow"",""orange"",""high nameability""]","2","high nameability","15","left","iti",""
"html-button-response","91","197688","0.0-66.0","CKN_112","112","","","","","","1859","","0","brown","yellow","[""brown"",""yellow"",""high nameability""]","right-left","[""yellow"",""brown""]","2","high nameability","16","right","trigger",""
"html-button-response","92","200051","0.0-67.0-0.0","CKN_112","112","","","","","","2356","<button class=""jspsych-btn""><img src=""stimuli/brown.png"" style=""width: 200px;height: 200px;""></button>","1","brown","yellow","[""brown"",""yellow"",""high nameability""]","right-left","[""yellow"",""brown""]","2","high nameability","16","right","response","1"
"html-audio-button-response","93","200259","0.0-67.0-1.0","CKN_112","112","","","","","","null","stimuli/bleep.m4a","null","brown","yellow","[""brown"",""yellow"",""high nameability""]","right-left","[""yellow"",""brown""]","2","high nameability","16","right","audio_feedback","1"
"html-button-response","94","200776","0.0-68.0","CKN_112","112","","","","","","null","<button class=""jspsych-btn""><img src=""stimuli/white_square.png"" style=""width: 200px;height: 200px;""></button>","null","brown","yellow","[""brown"",""yellow"",""high nameability""]","right-left","[""yellow"",""brown""]","2","high nameability","16","right","iti",""
"html-button-response","95","203456","0.0-69.0","CKN_112","112","","","","","","2667","","0","mustard","neonyellow","[""mustard"",""neonyellow"",""low nameability""]","left-right","[""mustard"",""neonyellow"",""low nameability""]","2","low nameability","17","left","trigger",""
"html-button-response","96","205473","0.0-70.0-0.0","CKN_112","112","","","","","","2009","<button class=""jspsych-btn""><img src=""stimuli/mustard.png"" style=""width: 200px;height: 200px;""></button>","0","mustard","neonyellow","[""mustard"",""neonyellow"",""low nameability""]","left-right","[""mustard"",""neonyellow"",""low nameability""]","2","low nameability","17","left","response","1"
"html-audio-button-response","97","205676","0.0-70.0-1.0","CKN_112","112","","","","","","null","stimuli/bleep.m4a","null","mustard","neonyellow","[""mustard"",""neonyellow"",""low nameability""]","left-right","[""mustard"",""neonyellow"",""low nameability""]","2","low nameability","17","left","audio_feedback","1"
"html-button-response","98","206191","0.0-71.0","CKN_112","112","","","","","","null","<button class=""jspsych-btn""><img src=""stimuli/white_square.png"" style=""width: 200px;height: 200px;""></button>","null","mustard","neonyellow","[""mustard"",""neonyellow"",""low nameability""]","left-right","[""mustard"",""neonyellow"",""low nameability""]","2","low nameability","17","left","iti",""
"html-button-response","99","207585","0.0-72.0","CKN_112","112","","","","","","1383","","0","neonyellow","darkgreenblue","[""neonyellow"",""darkgreenblue"",""low nameability""]","left-right","[""neonyellow"",""darkgreenblue"",""low nameability""]","2","low nameability","18","left","trigger",""
"html-button-response","100","209165","0.0-73.0-0.0","CKN_112","112","","","","","","1569","<button class=""jspsych-btn""><img src=""stimuli/neonyellow.png"" style=""width: 200px;height: 200px;""></button>","0","neonyellow","darkgreenblue","[""neonyellow"",""darkgreenblue"",""low nameability""]","left-right","[""neonyellow"",""darkgreenblue"",""low nameability""]","2","low nameability","18","left","response","1"
"html-audio-button-response","101","209363","0.0-73.0-1.0","CKN_112","112","","","","","","null","stimuli/bleep.m4a","null","neonyellow","darkgreenblue","[""neonyellow"",""darkgreenblue"",""low nameability""]","left-right","[""neonyellow"",""darkgreenblue"",""low nameability""]","2","low nameability","18","left","audio_feedback","1"
"html-button-response","102","209874","0.0-74.0","CKN_112","112","","","","","","null","<button class=""jspsych-btn""><img src=""stimuli/white_square.png"" style=""width: 200px;height: 200px;""></button>","null","neonyellow","darkgreenblue","[""neonyellow"",""darkgreenblue"",""low nameability""]","left-right","[""neonyellow"",""darkgreenblue"",""low nameability""]","2","low nameability","18","left","iti",""
"html-button-response","103","211467","0.0-75.0","CKN_112","112","","","","","","1577","","0","orange","brown","[""orange"",""brown"",""high nameability""]","right-left","[""brown"",""orange""]","2","high nameability","19","right","trigger",""
"html-button-response","104","215608","0.0-76.0-0.0","CKN_112","112","","","","","","4133","<button class=""jspsych-btn""><img src=""stimuli/orange.png"" style=""width: 200px;height: 200px;""></button>","1","orange","brown","[""orange"",""brown"",""high nameability""]","right-left","[""brown"",""orange""]","2","high nameability","19","right","response","1"
"html-audio-button-response","105","215820","0.0-76.0-1.0","CKN_112","112","","","","","","null","stimuli/bleep.m4a","null","orange","brown","[""orange"",""brown"",""high nameability""]","right-left","[""brown"",""orange""]","2","high nameability","19","right","audio_feedback","1"
"html-button-response","106","216332","0.0-77.0","CKN_112","112","","","","","","null","<button class=""jspsych-btn""><img src=""stimuli/white_square.png"" style=""width: 200px;height: 200px;""></button>","null","orange","brown","[""orange"",""brown"",""high nameability""]","right-left","[""brown"",""orange""]","2","high nameability","19","right","iti",""
"html-button-response","107","219051","0.0-78.0","CKN_112","112","","","","","","2707","","0","turquoise","darkgreenblue","[""turquoise"",""darkgreenblue"",""low nameability""]","right-left","[""darkgreenblue"",""turquoise""]","2","low nameability","20","right","trigger",""
"html-button-response","108","221520","0.0-79.0-0.0","CKN_112","112","","","","","","2461","<button class=""jspsych-btn""><img src=""stimuli/turquoise.png"" style=""width: 200px;height: 200px;""></button>","1","turquoise","darkgreenblue","[""turquoise"",""darkgreenblue"",""low nameability""]","right-left","[""darkgreenblue"",""turquoise""]","2","low nameability","20","right","response","1"
"html-audio-button-response","109","221721","0.0-79.0-1.0","CKN_112","112","","","","","","null","stimuli/bleep.m4a","null","turquoise","darkgreenblue","[""turquoise"",""darkgreenblue"",""low nameability""]","right-left","[""darkgreenblue"",""turquoise""]","2","low nameability","20","right","audio_feedback","1"
"html-button-response","110","222238","0.0-80.0","CKN_112","112","","","","","","null","<button class=""jspsych-btn""><img src=""stimuli/white_square.png"" style=""width: 200px;height: 200px;""></button>","null","turquoise","darkgreenblue","[""turquoise"",""darkgreenblue"",""low nameability""]","right-left","[""darkgreenblue"",""turquoise""]","2","low nameability","20","right","iti",""
"pavlovia","111","222293","0.0-81.0","CKN_112","112","","","","","","","","","","","","","","","","","","",""
"pavlovia","112","222302","0.0-82.0","CKN_112","112","","","","","","","","","","","","","","","","","","",""
"html-audio-button-response","113","227798","0.0-83.0","CKN_112","112","","","","","","5560","stimuli/tada.m4a","0","","","","","","","","","","",""
"html-button-response","114","228373","0.0-84.0","CKN_112","112","","","","","","569","","0","","","","","","","","","","",""
"html-button-response","115","229944","0.0-85.0","CKN_112","112","","","","","","1562","","0","pink","turquoise","[""pink"",""turquoise"",""low nameability""]","left-right","[""pink"",""turquoise"",""low nameability""]","3","low nameability","21","left","trigger",""
"html-button-response","116","232741","0.0-86.0-0.0","CKN_112","112","","","","","","2790","<button class=""jspsych-btn""><img src=""stimuli/pink.png"" style=""width: 200px;height: 200px;""></button>","0","pink","turquoise","[""pink"",""turquoise"",""low nameability""]","left-right","[""pink"",""turquoise"",""low nameability""]","3","low nameability","21","left","response","1"
"html-audio-button-response","117","232946","0.0-86.0-1.0","CKN_112","112","","","","","","null","stimuli/bleep.m4a","null","pink","turquoise","[""pink"",""turquoise"",""low nameability""]","left-right","[""pink"",""turquoise"",""low nameability""]","3","low nameability","21","left","audio_feedback","1"
"html-button-response","118","233459","0.0-87.0","CKN_112","112","","","","","","null","<button class=""jspsych-btn""><img src=""stimuli/white_square.png"" style=""width: 200px;height: 200px;""></button>","null","pink","turquoise","[""pink"",""turquoise"",""low nameability""]","left-right","[""pink"",""turquoise"",""low nameability""]","3","low nameability","21","left","iti",""
"html-button-response","119","236115","0.0-88.0","CKN_112","112","","","","","","2645","","0","lightred","pink","[""lightred"",""pink"",""low nameability""]","right-left","[""pink"",""lightred""]","3","low nameability","22","right","trigger",""
"html-button-response","120","237711","0.0-89.0-0.0","CKN_112","112","","","","","","1589","<button class=""jspsych-btn""><img src=""stimuli/lightred.png"" style=""width: 200px;height: 200px;""></button>","1","lightred","pink","[""lightred"",""pink"",""low nameability""]","right-left","[""pink"",""lightred""]","3","low nameability","22","right","response","1"
"html-audio-button-response","121","237910","0.0-89.0-1.0","CKN_112","112","","","","","","null","stimuli/bleep.m4a","null","lightred","pink","[""lightred"",""pink"",""low nameability""]","right-left","[""pink"",""lightred""]","3","low nameability","22","right","audio_feedback","1"
"html-button-response","122","238425","0.0-90.0","CKN_112","112","","","","","","null","<button class=""jspsych-btn""><img src=""stimuli/white_square.png"" style=""width: 200px;height: 200px;""></button>","null","lightred","pink","[""lightred"",""pink"",""low nameability""]","right-left","[""pink"",""lightred""]","3","low nameability","22","right","iti",""
"html-button-response","123","239311","0.0-91.0","CKN_112","112","","","","","","874","","0","neonyellow","mustard","[""neonyellow"",""mustard"",""low nameability""]","right-left","[""mustard"",""neonyellow""]","3","low nameability","23","right","trigger",""
"html-button-response","124","242450","0.0-92.0-0.0","CKN_112","112","","","","","","3132","<button class=""jspsych-btn""><img src=""stimuli/neonyellow.png"" style=""width: 200px;height: 200px;""></button>","1","neonyellow","mustard","[""neonyellow"",""mustard"",""low nameability""]","right-left","[""mustard"",""neonyellow""]","3","low nameability","23","right","response","1"
"html-audio-button-response","125","242653","0.0-92.0-1.0","CKN_112","112","","","","","","null","stimuli/bleep.m4a","null","neonyellow","mustard","[""neonyellow"",""mustard"",""low nameability""]","right-left","[""mustard"",""neonyellow""]","3","low nameability","23","right","audio_feedback","1"
"html-button-response","126","243167","0.0-93.0","CKN_112","112","","","","","","null","<button class=""jspsych-btn""><img src=""stimuli/white_square.png"" style=""width: 200px;height: 200px;""></button>","null","neonyellow","mustard","[""neonyellow"",""mustard"",""low nameability""]","right-left","[""mustard"",""neonyellow""]","3","low nameability","23","right","iti",""
"html-button-response","127","244073","0.0-94.0","CKN_112","112","","","","","","891","","0","pink","neonyellow","[""pink"",""neonyellow"",""low nameability""]","left-right","[""pink"",""neonyellow"",""low nameability""]","3","low nameability","24","left","trigger",""
"html-button-response","128","247603","0.0-95.0-0.0","CKN_112","112","","","","","","3522","<button class=""jspsych-btn""><img src=""stimuli/pink.png"" style=""width: 200px;height: 200px;""></button>","1","pink","neonyellow","[""pink"",""neonyellow"",""low nameability""]","left-right","[""pink"",""neonyellow"",""low nameability""]","3","low nameability","24","left","response","0"
"html-audio-button-response","129","248230","0.0-95.0-1.0","CKN_112","112","","","","","","null","stimuli/boing.m4a","null","pink","neonyellow","[""pink"",""neonyellow"",""low nameability""]","left-right","[""pink"",""neonyellow"",""low nameability""]","3","low nameability","24","left","audio_feedback","0"
"html-button-response","130","248605","0.0-95.1-0.1","CKN_112","112","","","","","","361","<button class=""jspsych-btn""><img src=""stimuli/pink.png"" style=""width: 200px;height: 200px;""></button>","0","pink","neonyellow","[""pink"",""neonyellow"",""low nameability""]","left-right","[""pink"",""neonyellow"",""low nameability""]","3","low nameability","24","left","response","1"
"html-audio-button-response","131","248808","0.0-95.1-1.1","CKN_112","112","","","","","","null","stimuli/bleep.m4a","null","pink","neonyellow","[""pink"",""neonyellow"",""low nameability""]","left-right","[""pink"",""neonyellow"",""low nameability""]","3","low nameability","24","left","audio_feedback","1"
"html-button-response","132","249329","0.0-96.0","CKN_112","112","","","","","","null","<button class=""jspsych-btn""><img src=""stimuli/white_square.png"" style=""width: 200px;height: 200px;""></button>","null","pink","neonyellow","[""pink"",""neonyellow"",""low nameability""]","left-right","[""pink"",""neonyellow"",""low nameability""]","3","low nameability","24","left","iti",""
"html-button-response","133","254897","0.0-97.0","CKN_112","112","","","","","","5558","","0","blue","purple","[""blue"",""purple"",""high nameability""]","right-left","[""purple"",""blue""]","3","high nameability","25","right","trigger",""
"html-button-response","134","263426","0.0-98.0-0.0","CKN_112","112","","","","","","8521","<button class=""jspsych-btn""><img src=""stimuli/blue.png"" style=""width: 200px;height: 200px;""></button>","1","blue","purple","[""blue"",""purple"",""high nameability""]","right-left","[""purple"",""blue""]","3","high nameability","25","right","response","1"
"html-audio-button-response","135","263630","0.0-98.0-1.0","CKN_112","112","","","","","","null","stimuli/bleep.m4a","null","blue","purple","[""blue"",""purple"",""high nameability""]","right-left","[""purple"",""blue""]","3","high nameability","25","right","audio_feedback","1"
"html-button-response","136","264140","0.0-99.0","CKN_112","112","","","","","","null","<button class=""jspsych-btn""><img src=""stimuli/white_square.png"" style=""width: 200px;height: 200px;""></button>","null","blue","purple","[""blue"",""purple"",""high nameability""]","right-left","[""purple"",""blue""]","3","high nameability","25","right","iti",""
"html-button-response","137","267157","0.0-100.0","CKN_112","112","","","","","","3002","","0","brown","red","[""brown"",""red"",""high nameability""]","right-left","[""red"",""brown""]","3","high nameability","26","right","trigger",""
"html-button-response","138","268670","0.0-101.0-0.0","CKN_112","112","","","","","","1503","<button class=""jspsych-btn""><img src=""stimuli/brown.png"" style=""width: 200px;height: 200px;""></button>","1","brown","red","[""brown"",""red"",""high nameability""]","right-left","[""red"",""brown""]","3","high nameability","26","right","response","1"
"html-audio-button-response","139","268874","0.0-101.0-1.0","CKN_112","112","","","","","","null","stimuli/bleep.m4a","null","brown","red","[""brown"",""red"",""high nameability""]","right-left","[""red"",""brown""]","3","high nameability","26","right","audio_feedback","1"
"html-button-response","140","269390","0.0-102.0","CKN_112","112","","","","","","null","<button class=""jspsych-btn""><img src=""stimuli/white_square.png"" style=""width: 200px;height: 200px;""></button>","null","brown","red","[""brown"",""red"",""high nameability""]","right-left","[""red"",""brown""]","3","high nameability","26","right","iti",""
"html-button-response","141","271986","0.0-103.0","CKN_112","112","","","","","","2579","","0","turquoise","pink","[""turquoise"",""pink"",""low nameability""]","left-right","[""turquoise"",""pink"",""low nameability""]","3","low nameability","27","left","trigger",""
"html-button-response","142","273541","0.0-104.0-0.0","CKN_112","112","","","","","","1548","<button class=""jspsych-btn""><img src=""stimuli/turquoise.png"" style=""width: 200px;height: 200px;""></button>","0","turquoise","pink","[""turquoise"",""pink"",""low nameability""]","left-right","[""turquoise"",""pink"",""low nameability""]","3","low nameability","27","left","response","1"
"html-audio-button-response","143","273746","0.0-104.0-1.0","CKN_112","112","","","","","","null","stimuli/bleep.m4a","null","turquoise","pink","[""turquoise"",""pink"",""low nameability""]","left-right","[""turquoise"",""pink"",""low nameability""]","3","low nameability","27","left","audio_feedback","1"
"html-button-response","144","274266","0.0-105.0","CKN_112","112","","","","","","null","<button class=""jspsych-btn""><img src=""stimuli/white_square.png"" style=""width: 200px;height: 200px;""></button>","null","turquoise","pink","[""turquoise"",""pink"",""low nameability""]","left-right","[""turquoise"",""pink"",""low nameability""]","3","low nameability","27","left","iti",""
"html-button-response","145","276044","0.0-106.0","CKN_112","112","","","","","","1753","","0","neonyellow","lightred","[""neonyellow"",""lightred"",""low nameability""]","right-left","[""lightred"",""neonyellow""]","3","low nameability","28","right","trigger",""
"html-button-response","146","278585","0.0-107.0-0.0","CKN_112","112","","","","","","2533","<button class=""jspsych-btn""><img src=""stimuli/neonyellow.png"" style=""width: 200px;height: 200px;""></button>","1","neonyellow","lightred","[""neonyellow"",""lightred"",""low nameability""]","right-left","[""lightred"",""neonyellow""]","3","low nameability","28","right","response","1"
"html-audio-button-response","147","278789","0.0-107.0-1.0","CKN_112","112","","","","","","null","stimuli/bleep.m4a","null","neonyellow","lightred","[""neonyellow"",""lightred"",""low nameability""]","right-left","[""lightred"",""neonyellow""]","3","low nameability","28","right","audio_feedback","1"
"html-button-response","148","279301","0.0-108.0","CKN_112","112","","","","","","null","<button class=""jspsych-btn""><img src=""stimuli/white_square.png"" style=""width: 200px;height: 200px;""></button>","null","neonyellow","lightred","[""neonyellow"",""lightred"",""low nameability""]","right-left","[""lightred"",""neonyellow""]","3","low nameability","28","right","iti",""
"html-button-response","149","282774","0.0-109.0","CKN_112","112","","","","","","3461","","0","purple","red","[""purple"",""red"",""high nameability""]","left-right","[""purple"",""red"",""high nameability""]","3","high nameability","29","left","trigger",""
"html-button-response","150","286079","0.0-110.0-0.0","CKN_112","112","","","","","","3298","<button class=""jspsych-btn""><img src=""stimuli/purple.png"" style=""width: 200px;height: 200px;""></button>","0","purple","red","[""purple"",""red"",""high nameability""]","left-right","[""purple"",""red"",""high nameability""]","3","high nameability","29","left","response","1"
"html-audio-button-response","151","286286","0.0-110.0-1.0","CKN_112","112","","","","","","null","stimuli/bleep.m4a","null","purple","red","[""purple"",""red"",""high nameability""]","left-right","[""purple"",""red"",""high nameability""]","3","high nameability","29","left","audio_feedback","1"
"html-button-response","152","286797","0.0-111.0","CKN_112","112","","","","","","null","<button class=""jspsych-btn""><img src=""stimuli/white_square.png"" style=""width: 200px;height: 200px;""></button>","null","purple","red","[""purple"",""red"",""high nameability""]","left-right","[""purple"",""red"",""high nameability""]","3","high nameability","29","left","iti",""
"html-button-response","153","289057","0.0-112.0","CKN_112","112","","","","","","2250","","0","darkgreenblue","neonyellow","[""darkgreenblue"",""neonyellow"",""low nameability""]","left-right","[""darkgreenblue"",""neonyellow"",""low nameability""]","3","low nameability","30","left","trigger",""
"html-button-response","154","290424","0.0-113.0-0.0","CKN_112","112","","","","","","1359","<button class=""jspsych-btn""><img src=""stimuli/darkgreenblue.png"" style=""width: 200px;height: 200px;""></button>","0","darkgreenblue","neonyellow","[""darkgreenblue"",""neonyellow"",""low nameability""]","left-right","[""darkgreenblue"",""neonyellow"",""low nameability""]","3","low nameability","30","left","response","1"
"html-audio-button-response","155","290627","0.0-113.0-1.0","CKN_112","112","","","","","","null","stimuli/bleep.m4a","null","darkgreenblue","neonyellow","[""darkgreenblue"",""neonyellow"",""low nameability""]","left-right","[""darkgreenblue"",""neonyellow"",""low nameability""]","3","low nameability","30","left","audio_feedback","1"
"html-button-response","156","291142","0.0-114.0","CKN_112","112","","","","","","null","<button class=""jspsych-btn""><img src=""stimuli/white_square.png"" style=""width: 200px;height: 200px;""></button>","null","darkgreenblue","neonyellow","[""darkgreenblue"",""neonyellow"",""low nameability""]","left-right","[""darkgreenblue"",""neonyellow"",""low nameability""]","3","low nameability","30","left","iti",""
"pavlovia","157","291206","0.0-115.0","CKN_112","112","","","","","","","","","","","","","","","","","","",""
"pavlovia","158","291211","0.0-116.0","CKN_112","112","","","","","","","","","","","","","","","","","","",""
"html-audio-button-response","159","299716","0.0-117.0","CKN_112","112","","","","","","8571","stimuli/tada.m4a","0","","","","","","","","","","",""
"html-button-response","160","300228","0.0-118.0","CKN_112","112","","","","","","507","","0","","","","","","","","","","",""
"html-button-response","161","301607","0.0-119.0","CKN_112","112","","","","","","1373","","0","brown","purple","[""brown"",""purple"",""high nameability""]","right-left","[""purple"",""brown""]","4","high nameability","31","right","trigger",""
"html-button-response","162","304211","0.0-120.0-0.0","CKN_112","112","","","","","","2597","<button class=""jspsych-btn""><img src=""stimuli/brown.png"" style=""width: 200px;height: 200px;""></button>","1","brown","purple","[""brown"",""purple"",""high nameability""]","right-left","[""purple"",""brown""]","4","high nameability","31","right","response","1"
"html-audio-button-response","163","304414","0.0-120.0-1.0","CKN_112","112","","","","","","null","stimuli/bleep.m4a","null","brown","purple","[""brown"",""purple"",""high nameability""]","right-left","[""purple"",""brown""]","4","high nameability","31","right","audio_feedback","1"
"html-button-response","164","304922","0.0-121.0","CKN_112","112","","","","","","null","<button class=""jspsych-btn""><img src=""stimuli/white_square.png"" style=""width: 200px;height: 200px;""></button>","null","brown","purple","[""brown"",""purple"",""high nameability""]","right-left","[""purple"",""brown""]","4","high nameability","31","right","iti",""
"html-button-response","165","306003","0.0-122.0","CKN_112","112","","","","","","1074","","0","red","yellow","[""red"",""yellow"",""high nameability""]","right-left","[""yellow"",""red""]","4","high nameability","32","right","trigger",""
"html-button-response","166","307346","0.0-123.0-0.0","CKN_112","112","","","","","","1324","<button class=""jspsych-btn""><img src=""stimuli/red.png"" style=""width: 200px;height: 200px;""></button>","1","red","yellow","[""red"",""yellow"",""high nameability""]","right-left","[""yellow"",""red""]","4","high nameability","32","right","response","1"
"html-audio-button-response","167","307553","0.0-123.0-1.0","CKN_112","112","","","","","","null","stimuli/bleep.m4a","null","red","yellow","[""red"",""yellow"",""high nameability""]","right-left","[""yellow"",""red""]","4","high nameability","32","right","audio_feedback","1"
"html-button-response","168","308075","0.0-124.0","CKN_112","112","","","","","","null","<button class=""jspsych-btn""><img src=""stimuli/white_square.png"" style=""width: 200px;height: 200px;""></button>","null","red","yellow","[""red"",""yellow"",""high nameability""]","right-left","[""yellow"",""red""]","4","high nameability","32","right","iti",""
"html-button-response","169","309107","0.0-125.0","CKN_112","112","","","","","","1020","","0","red","brown","[""red"",""brown"",""high nameability""]","right-left","[""brown"",""red""]","4","high nameability","33","right","trigger",""
"html-button-response","170","310296","0.0-126.0-0.0","CKN_112","112","","","","","","1176","<button class=""jspsych-btn""><img src=""stimuli/red.png"" style=""width: 200px;height: 200px;""></button>","1","red","brown","[""red"",""brown"",""high nameability""]","right-left","[""brown"",""red""]","4","high nameability","33","right","response","1"
"html-audio-button-response","171","310507","0.0-126.0-1.0","CKN_112","112","","","","","","null","stimuli/bleep.m4a","null","red","brown","[""red"",""brown"",""high nameability""]","right-left","[""brown"",""red""]","4","high nameability","33","right","audio_feedback","1"
"html-button-response","172","311031","0.0-127.0","CKN_112","112","","","","","","null","<button class=""jspsych-btn""><img src=""stimuli/white_square.png"" style=""width: 200px;height: 200px;""></button>","null","red","brown","[""red"",""brown"",""high nameability""]","right-left","[""brown"",""red""]","4","high nameability","33","right","iti",""
"html-button-response","173","314067","0.0-128.0","CKN_112","112","","","","","","3022","","0","purple","yellow","[""purple"",""yellow"",""high nameability""]","left-right","[""purple"",""yellow"",""high nameability""]","4","high nameability","34","left","trigger",""
"html-button-response","174","315858","0.0-129.0-0.0","CKN_112","112","","","","","","1779","<button class=""jspsych-btn""><img src=""stimuli/purple.png"" style=""width: 200px;height: 200px;""></button>","0","purple","yellow","[""purple"",""yellow"",""high nameability""]","left-right","[""purple"",""yellow"",""high nameability""]","4","high nameability","34","left","response","1"
"html-audio-button-response","175","316067","0.0-129.0-1.0","CKN_112","112","","","","","","null","stimuli/bleep.m4a","null","purple","yellow","[""purple"",""yellow"",""high nameability""]","left-right","[""purple"",""yellow"",""high nameability""]","4","high nameability","34","left","audio_feedback","1"
"html-button-response","176","316582","0.0-130.0","CKN_112","112","","","","","","null","<button class=""jspsych-btn""><img src=""stimuli/white_square.png"" style=""width: 200px;height: 200px;""></button>","null","purple","yellow","[""purple"",""yellow"",""high nameability""]","left-right","[""purple"",""yellow"",""high nameability""]","4","high nameability","34","left","iti",""
"html-button-response","177","318666","0.0-131.0","CKN_112","112","","","","","","2072","","0","brown","blue","[""brown"",""blue"",""high nameability""]","right-left","[""blue"",""brown""]","4","high nameability","35","right","trigger",""
"html-button-response","178","321420","0.0-132.0-0.0","CKN_112","112","","","","","","2744","<button class=""jspsych-btn""><img src=""stimuli/brown.png"" style=""width: 200px;height: 200px;""></button>","1","brown","blue","[""brown"",""blue"",""high nameability""]","right-left","[""blue"",""brown""]","4","high nameability","35","right","response","1"
"html-audio-button-response","179","321623","0.0-132.0-1.0","CKN_112","112","","","","","","null","stimuli/bleep.m4a","null","brown","blue","[""brown"",""blue"",""high nameability""]","right-left","[""blue"",""brown""]","4","high nameability","35","right","audio_feedback","1"
"html-button-response","180","322139","0.0-133.0","CKN_112","112","","","","","","null","<button class=""jspsych-btn""><img src=""stimuli/white_square.png"" style=""width: 200px;height: 200px;""></button>","null","brown","blue","[""brown"",""blue"",""high nameability""]","right-left","[""blue"",""brown""]","4","high nameability","35","right","iti",""
"html-button-response","181","323524","0.0-134.0","CKN_112","112","","","","","","1373","","0","purple","brown","[""purple"",""brown"",""high nameability""]","left-right","[""purple"",""brown"",""high nameability""]","4","high nameability","36","left","trigger",""
"html-button-response","182","325749","0.0-135.0-0.0","CKN_112","112","","","","","","2219","<button class=""jspsych-btn""><img src=""stimuli/purple.png"" style=""width: 200px;height: 200px;""></button>","0","purple","brown","[""purple"",""brown"",""high nameability""]","left-right","[""purple"",""brown"",""high nameability""]","4","high nameability","36","left","response","1"
"html-audio-button-response","183","325953","0.0-135.0-1.0","CKN_112","112","","","","","","null","stimuli/bleep.m4a","null","purple","brown","[""purple"",""brown"",""high nameability""]","left-right","[""purple"",""brown"",""high nameability""]","4","high nameability","36","left","audio_feedback","1"
"html-button-response","184","326468","0.0-136.0","CKN_112","112","","","","","","null","<button class=""jspsych-btn""><img src=""stimuli/white_square.png"" style=""width: 200px;height: 200px;""></button>","null","purple","brown","[""purple"",""brown"",""high nameability""]","left-right","[""purple"",""brown"",""high nameability""]","4","high nameability","36","left","iti",""
"html-button-response","185","328470","0.0-137.0","CKN_112","112","","","","","","1990","","0","red","blue","[""red"",""blue"",""high nameability""]","left-right","[""red"",""blue"",""high nameability""]","4","high nameability","37","left","trigger",""
"html-button-response","186","332960","0.0-138.0-0.0","CKN_112","112","","","","","","4481","<button class=""jspsych-btn""><img src=""stimuli/red.png"" style=""width: 200px;height: 200px;""></button>","0","red","blue","[""red"",""blue"",""high nameability""]","left-right","[""red"",""blue"",""high nameability""]","4","high nameability","37","left","response","1"
"html-audio-button-response","187","333169","0.0-138.0-1.0","CKN_112","112","","","","","","null","stimuli/bleep.m4a","null","red","blue","[""red"",""blue"",""high nameability""]","left-right","[""red"",""blue"",""high nameability""]","4","high nameability","37","left","audio_feedback","1"
"html-button-response","188","333686","0.0-139.0","CKN_112","112","","","","","","null","<button class=""jspsych-btn""><img src=""stimuli/white_square.png"" style=""width: 200px;height: 200px;""></button>","null","red","blue","[""red"",""blue"",""high nameability""]","left-right","[""red"",""blue"",""high nameability""]","4","high nameability","37","left","iti",""
"html-button-response","189","338386","0.0-140.0","CKN_112","112","","","","","","4687","","0","mustard","pink","[""mustard"",""pink"",""low nameability""]","right-left","[""pink"",""mustard""]","4","low nameability","38","right","trigger",""
"html-button-response","190","340589","0.0-141.0-0.0","CKN_112","112","","","","","","2194","<button class=""jspsych-btn""><img src=""stimuli/mustard.png"" style=""width: 200px;height: 200px;""></button>","1","mustard","pink","[""mustard"",""pink"",""low nameability""]","right-left","[""pink"",""mustard""]","4","low nameability","38","right","response","1"
"html-audio-button-response","191","340793","0.0-141.0-1.0","CKN_112","112","","","","","","null","stimuli/bleep.m4a","null","mustard","pink","[""mustard"",""pink"",""low nameability""]","right-left","[""pink"",""mustard""]","4","low nameability","38","right","audio_feedback","1"
"html-button-response","192","341305","0.0-142.0","CKN_112","112","","","","","","null","<button class=""jspsych-btn""><img src=""stimuli/white_square.png"" style=""width: 200px;height: 200px;""></button>","null","mustard","pink","[""mustard"",""pink"",""low nameability""]","right-left","[""pink"",""mustard""]","4","low nameability","38","right","iti",""
"html-button-response","193","345711","0.0-143.0","CKN_112","112","","","","","","4392","","0","red","orange","[""red"",""orange"",""high nameability""]","left-right","[""red"",""orange"",""high nameability""]","4","high nameability","39","left","trigger",""
"html-button-response","194","352039","0.0-144.0-0.0","CKN_112","112","","","","","","6313","<button class=""jspsych-btn""><img src=""stimuli/red.png"" style=""width: 200px;height: 200px;""></button>","0","red","orange","[""red"",""orange"",""high nameability""]","left-right","[""red"",""orange"",""high nameability""]","4","high nameability","39","left","response","1"
"html-audio-button-response","195","352248","0.0-144.0-1.0","CKN_112","112","","","","","","null","stimuli/bleep.m4a","null","red","orange","[""red"",""orange"",""high nameability""]","left-right","[""red"",""orange"",""high nameability""]","4","high nameability","39","left","audio_feedback","1"
"html-button-response","196","352763","0.0-145.0","CKN_112","112","","","","","","123","<button class=""jspsych-btn""><img src=""stimuli/white_square.png"" style=""width: 200px;height: 200px;""></button>","0","red","orange","[""red"",""orange"",""high nameability""]","left-right","[""red"",""orange"",""high nameability""]","4","high nameability","39","left","iti",""
"html-button-response","197","355312","0.0-146.0","CKN_112","112","","","","","","2541","","0","mustard","darkgreenblue","[""mustard"",""darkgreenblue"",""low nameability""]","left-right","[""mustard"",""darkgreenblue"",""low nameability""]","4","low nameability","40","left","trigger",""
"html-button-response","198","357931","0.0-147.0-0.0","CKN_112","112","","","","","","2609","<button class=""jspsych-btn""><img src=""stimuli/mustard.png"" style=""width: 200px;height: 200px;""></button>","0","mustard","darkgreenblue","[""mustard"",""darkgreenblue"",""low nameability""]","left-right","[""mustard"",""darkgreenblue"",""low nameability""]","4","low nameability","40","left","response","1"
"html-audio-button-response","199","358137","0.0-147.0-1.0","CKN_112","112","","","","","","null","stimuli/bleep.m4a","null","mustard","darkgreenblue","[""mustard"",""darkgreenblue"",""low nameability""]","left-right","[""mustard"",""darkgreenblue"",""low nameability""]","4","low nameability","40","left","audio_feedback","1"
"html-button-response","200","358657","0.0-148.0","CKN_112","112","","","","","","null","<button class=""jspsych-btn""><img src=""stimuli/white_square.png"" style=""width: 200px;height: 200px;""></button>","null","mustard","darkgreenblue","[""mustard"",""darkgreenblue"",""low nameability""]","left-right","[""mustard"",""darkgreenblue"",""low nameability""]","4","low nameability","40","left","iti",""
"pavlovia","201","358768","0.0-149.0","CKN_112","112","","","","","","","","","","","","","","","","","","",""
"pavlovia","202","358777","0.0-150.0","CKN_112","112","","","","","","","","","","","","","","","","","","",""
"html-audio-button-response","203","363235","0.0-151.0","CKN_112","112","","","","","","4579","stimuli/tada.m4a","0","","","","","","","","","","",""
"html-button-response","204","363864","0.0-152.0","CKN_112","112","","","","","","620","","0","","","","","","","","","","",""
"html-button-response","205","365988","0.0-153.0","CKN_112","112","","","","","","2114","","0","orange","purple","[""orange"",""purple"",""high nameability""]","left-right","[""orange"",""purple"",""high nameability""]","5","high nameability","41","left","trigger",""
"html-button-response","206","367775","0.0-154.0-0.0","CKN_112","112","","","","","","1776","<button class=""jspsych-btn""><img src=""stimuli/orange.png"" style=""width: 200px;height: 200px;""></button>","0","orange","purple","[""orange"",""purple"",""high nameability""]","left-right","[""orange"",""purple"",""high nameability""]","5","high nameability","41","left","response","1"
"html-audio-button-response","207","367986","0.0-154.0-1.0","CKN_112","112","","","","","","null","stimuli/bleep.m4a","null","orange","purple","[""orange"",""purple"",""high nameability""]","left-right","[""orange"",""purple"",""high nameability""]","5","high nameability","41","left","audio_feedback","1"
"html-button-response","208","368510","0.0-155.0","CKN_112","112","","","","","","null","<button class=""jspsych-btn""><img src=""stimuli/white_square.png"" style=""width: 200px;height: 200px;""></button>","null","orange","purple","[""orange"",""purple"",""high nameability""]","left-right","[""orange"",""purple"",""high nameability""]","5","high nameability","41","left","iti",""
"html-button-response","209","373832","0.0-156.0","CKN_112","112","","","","","","5292","","0","lightred","neonyellow","[""lightred"",""neonyellow"",""low nameability""]","right-left","[""neonyellow"",""lightred""]","5","low nameability","42","right","trigger",""
"html-button-response","210","375531","0.0-157.0-0.0","CKN_112","112","","","","","","1687","<button class=""jspsych-btn""><img src=""stimuli/lightred.png"" style=""width: 200px;height: 200px;""></button>","1","lightred","neonyellow","[""lightred"",""neonyellow"",""low nameability""]","right-left","[""neonyellow"",""lightred""]","5","low nameability","42","right","response","1"
"html-audio-button-response","211","375733","0.0-157.0-1.0","CKN_112","112","","","","","","null","stimuli/bleep.m4a","null","lightred","neonyellow","[""lightred"",""neonyellow"",""low nameability""]","right-left","[""neonyellow"",""lightred""]","5","low nameability","42","right","audio_feedback","1"
"html-button-response","212","376245","0.0-158.0","CKN_112","112","","","","","","null","<button class=""jspsych-btn""><img src=""stimuli/white_square.png"" style=""width: 200px;height: 200px;""></button>","null","lightred","neonyellow","[""lightred"",""neonyellow"",""low nameability""]","right-left","[""neonyellow"",""lightred""]","5","low nameability","42","right","iti",""
"html-button-response","213","378008","0.0-159.0","CKN_112","112","","","","","","1748","","0","neonyellow","turquoise","[""neonyellow"",""turquoise"",""low nameability""]","right-left","[""turquoise"",""neonyellow""]","5","low nameability","43","right","trigger",""
"html-button-response","214","380300","0.0-160.0-0.0","CKN_112","112","","","","","","2285","<button class=""jspsych-btn""><img src=""stimuli/neonyellow.png"" style=""width: 200px;height: 200px;""></button>","1","neonyellow","turquoise","[""neonyellow"",""turquoise"",""low nameability""]","right-left","[""turquoise"",""neonyellow""]","5","low nameability","43","right","response","1"
"html-audio-button-response","215","380507","0.0-160.0-1.0","CKN_112","112","","","","","","null","stimuli/bleep.m4a","null","neonyellow","turquoise","[""neonyellow"",""turquoise"",""low nameability""]","right-left","[""turquoise"",""neonyellow""]","5","low nameability","43","right","audio_feedback","1"
"html-button-response","216","381019","0.0-161.0","CKN_112","112","","","","","","null","<button class=""jspsych-btn""><img src=""stimuli/white_square.png"" style=""width: 200px;height: 200px;""></button>","null","neonyellow","turquoise","[""neonyellow"",""turquoise"",""low nameability""]","right-left","[""turquoise"",""neonyellow""]","5","low nameability","43","right","iti",""
"html-button-response","217","382476","0.0-162.0","CKN_112","112","","","","","","1443","","0","darkgreenblue","mustard","[""darkgreenblue"",""mustard"",""low nameability""]","left-right","[""darkgreenblue"",""mustard"",""low nameability""]","5","low nameability","44","left","trigger",""
"html-button-response","218","384594","0.0-163.0-0.0","CKN_112","112","","","","","","2109","<button class=""jspsych-btn""><img src=""stimuli/darkgreenblue.png"" style=""width: 200px;height: 200px;""></button>","0","darkgreenblue","mustard","[""darkgreenblue"",""mustard"",""low nameability""]","left-right","[""darkgreenblue"",""mustard"",""low nameability""]","5","low nameability","44","left","response","1"
"html-audio-button-response","219","384802","0.0-163.0-1.0","CKN_112","112","","","","","","null","stimuli/bleep.m4a","null","darkgreenblue","mustard","[""darkgreenblue"",""mustard"",""low nameability""]","left-right","[""darkgreenblue"",""mustard"",""low nameability""]","5","low nameability","44","left","audio_feedback","1"
"html-button-response","220","385318","0.0-164.0","CKN_112","112","","","","","","null","<button class=""jspsych-btn""><img src=""stimuli/white_square.png"" style=""width: 200px;height: 200px;""></button>","null","darkgreenblue","mustard","[""darkgreenblue"",""mustard"",""low nameability""]","left-right","[""darkgreenblue"",""mustard"",""low nameability""]","5","low nameability","44","left","iti",""
"html-button-response","221","386568","0.0-165.0","CKN_112","112","","","","","","1242","","0","pink","mustard","[""pink"",""mustard"",""low nameability""]","right-left","[""mustard"",""pink""]","5","low nameability","45","right","trigger",""
"html-button-response","222","388114","0.0-166.0-0.0","CKN_112","112","","","","","","1539","<button class=""jspsych-btn""><img src=""stimuli/pink.png"" style=""width: 200px;height: 200px;""></button>","1","pink","mustard","[""pink"",""mustard"",""low nameability""]","right-left","[""mustard"",""pink""]","5","low nameability","45","right","response","1"
"html-audio-button-response","223","388317","0.0-166.0-1.0","CKN_112","112","","","","","","null","stimuli/bleep.m4a","null","pink","mustard","[""pink"",""mustard"",""low nameability""]","right-left","[""mustard"",""pink""]","5","low nameability","45","right","audio_feedback","1"
"html-button-response","224","388828","0.0-167.0","CKN_112","112","","","","","","null","<button class=""jspsych-btn""><img src=""stimuli/white_square.png"" style=""width: 200px;height: 200px;""></button>","null","pink","mustard","[""pink"",""mustard"",""low nameability""]","right-left","[""mustard"",""pink""]","5","low nameability","45","right","iti",""
"html-button-response","225","391621","0.0-168.0","CKN_112","112","","","","","","2783","","0","yellow","red","[""yellow"",""red"",""high nameability""]","right-left","[""red"",""yellow""]","5","high nameability","46","right","trigger",""
"html-button-response","226","394043","0.0-169.0-0.0","CKN_112","112","","","","","","2413","<button class=""jspsych-btn""><img src=""stimuli/yellow.png"" style=""width: 200px;height: 200px;""></button>","1","yellow","red","[""yellow"",""red"",""high nameability""]","right-left","[""red"",""yellow""]","5","high nameability","46","right","response","1"
"html-audio-button-response","227","394250","0.0-169.0-1.0","CKN_112","112","","","","","","null","stimuli/bleep.m4a","null","yellow","red","[""yellow"",""red"",""high nameability""]","right-left","[""red"",""yellow""]","5","high nameability","46","right","audio_feedback","1"
"html-button-response","228","394770","0.0-170.0","CKN_112","112","","","","","","null","<button class=""jspsych-btn""><img src=""stimuli/white_square.png"" style=""width: 200px;height: 200px;""></button>","null","yellow","red","[""yellow"",""red"",""high nameability""]","right-left","[""red"",""yellow""]","5","high nameability","46","right","iti",""
"html-button-response","229","395836","0.0-171.0","CKN_112","112","","","","","","1050","","0","darkgreenblue","turquoise","[""darkgreenblue"",""turquoise"",""low nameability""]","left-right","[""darkgreenblue"",""turquoise"",""low nameability""]","5","low nameability","47","left","trigger",""
"html-button-response","230","397754","0.0-172.0-0.0","CKN_112","112","","","","","","1910","<button class=""jspsych-btn""><img src=""stimuli/darkgreenblue.png"" style=""width: 200px;height: 200px;""></button>","0","darkgreenblue","turquoise","[""darkgreenblue"",""turquoise"",""low nameability""]","left-right","[""darkgreenblue"",""turquoise"",""low nameability""]","5","low nameability","47","left","response","1"
"html-audio-button-response","231","397959","0.0-172.0-1.0","CKN_112","112","","","","","","null","stimuli/bleep.m4a","null","darkgreenblue","turquoise","[""darkgreenblue"",""turquoise"",""low nameability""]","left-right","[""darkgreenblue"",""turquoise"",""low nameability""]","5","low nameability","47","left","audio_feedback","1"
"html-button-response","232","398486","0.0-173.0","CKN_112","112","","","","","","null","<button class=""jspsych-btn""><img src=""stimuli/white_square.png"" style=""width: 200px;height: 200px;""></button>","null","darkgreenblue","turquoise","[""darkgreenblue"",""turquoise"",""low nameability""]","left-right","[""darkgreenblue"",""turquoise"",""low nameability""]","5","low nameability","47","left","iti",""
"html-button-response","233","401960","0.0-174.0","CKN_112","112","","","","","","3464","","0","lightred","turquoise","[""lightred"",""turquoise"",""low nameability""]","right-left","[""turquoise"",""lightred""]","5","low nameability","48","right","trigger",""
"html-button-response","234","404348","0.0-175.0-0.0","CKN_112","112","","","","","","2379","<button class=""jspsych-btn""><img src=""stimuli/lightred.png"" style=""width: 200px;height: 200px;""></button>","1","lightred","turquoise","[""lightred"",""turquoise"",""low nameability""]","right-left","[""turquoise"",""lightred""]","5","low nameability","48","right","response","1"
"html-audio-button-response","235","404550","0.0-175.0-1.0","CKN_112","112","","","","","","null","stimuli/bleep.m4a","null","lightred","turquoise","[""lightred"",""turquoise"",""low nameability""]","right-left","[""turquoise"",""lightred""]","5","low nameability","48","right","audio_feedback","1"
"html-button-response","236","405068","0.0-176.0","CKN_112","112","","","","","","null","<button class=""jspsych-btn""><img src=""stimuli/white_square.png"" style=""width: 200px;height: 200px;""></button>","null","lightred","turquoise","[""lightred"",""turquoise"",""low nameability""]","right-left","[""turquoise"",""lightred""]","5","low nameability","48","right","iti",""
"html-button-response","237","407752","0.0-177.0","CKN_112","112","","","","","","2673","","0","mustard","lightred","[""mustard"",""lightred"",""low nameability""]","left-right","[""mustard"",""lightred"",""low nameability""]","5","low nameability","49","left","trigger",""
"html-button-response","238","409945","0.0-178.0-0.0","CKN_112","112","","","","","","2185","<button class=""jspsych-btn""><img src=""stimuli/mustard.png"" style=""width: 200px;height: 200px;""></button>","0","mustard","lightred","[""mustard"",""lightred"",""low nameability""]","left-right","[""mustard"",""lightred"",""low nameability""]","5","low nameability","49","left","response","1"
"html-audio-button-response","239","410153","0.0-178.0-1.0","CKN_112","112","","","","","","null","stimuli/bleep.m4a","null","mustard","lightred","[""mustard"",""lightred"",""low nameability""]","left-right","[""mustard"",""lightred"",""low nameability""]","5","low nameability","49","left","audio_feedback","1"
"html-button-response","240","410672","0.0-179.0","CKN_112","112","","","","","","null","<button class=""jspsych-btn""><img src=""stimuli/white_square.png"" style=""width: 200px;height: 200px;""></button>","null","mustard","lightred","[""mustard"",""lightred"",""low nameability""]","left-right","[""mustard"",""lightred"",""low nameability""]","5","low nameability","49","left","iti",""
"html-button-response","241","411667","0.0-180.0","CKN_112","112","","","","","","981","","0","orange","blue","[""orange"",""blue"",""high nameability""]","right-left","[""blue"",""orange""]","5","high nameability","50","right","trigger",""
"html-button-response","242","413254","0.0-181.0-0.0","CKN_112","112","","","","","","1578","<button class=""jspsych-btn""><img src=""stimuli/orange.png"" style=""width: 200px;height: 200px;""></button>","1","orange","blue","[""orange"",""blue"",""high nameability""]","right-left","[""blue"",""orange""]","5","high nameability","50","right","response","1"
"html-audio-button-response","243","413460","0.0-181.0-1.0","CKN_112","112","","","","","","null","stimuli/bleep.m4a","null","orange","blue","[""orange"",""blue"",""high nameability""]","right-left","[""blue"",""orange""]","5","high nameability","50","right","audio_feedback","1"
"html-button-response","244","413973","0.0-182.0","CKN_112","112","","","","","","null","<button class=""jspsych-btn""><img src=""stimuli/white_square.png"" style=""width: 200px;height: 200px;""></button>","null","orange","blue","[""orange"",""blue"",""high nameability""]","right-left","[""blue"",""orange""]","5","high nameability","50","right","iti",""
"pavlovia","245","414062","0.0-183.0","CKN_112","112","","","","","","","","","","","","","","","","","","",""
"pavlovia","246","414070","0.0-184.0","CKN_112","112","","","","","","","","","","","","","","","","","","",""
"html-audio-button-response","247","418367","0.0-185.0","CKN_112","112","","","","","","4371","stimuli/tada.m4a","0","","","","","","","","","","",""
"html-button-response","248","418836","0.0-186.0","CKN_112","112","","","","","","464","","0","","","","","","","","","","",""
"html-button-response","249","420380","0.0-187.0","CKN_112","112","","","","","","1535","","0","yellow","blue","[""yellow"",""blue"",""high nameability""]","left-right","[""yellow"",""blue"",""high nameability""]","6","high nameability","51","left","trigger",""
"html-button-response","250","424031","0.0-188.0-0.0","CKN_112","112","","","","","","3641","<button class=""jspsych-btn""><img src=""stimuli/yellow.png"" style=""width: 200px;height: 200px;""></button>","0","yellow","blue","[""yellow"",""blue"",""high nameability""]","left-right","[""yellow"",""blue"",""high nameability""]","6","high nameability","51","left","response","1"
"html-audio-button-response","251","424244","0.0-188.0-1.0","CKN_112","112","","","","","","null","stimuli/bleep.m4a","null","yellow","blue","[""yellow"",""blue"",""high nameability""]","left-right","[""yellow"",""blue"",""high nameability""]","6","high nameability","51","left","audio_feedback","1"
"html-button-response","252","424758","0.0-189.0","CKN_112","112","","","","","","null","<button class=""jspsych-btn""><img src=""stimuli/white_square.png"" style=""width: 200px;height: 200px;""></button>","null","yellow","blue","[""yellow"",""blue"",""high nameability""]","left-right","[""yellow"",""blue"",""high nameability""]","6","high nameability","51","left","iti",""
"html-button-response","253","426481","0.0-190.0","CKN_112","112","","","","","","1711","","0","blue","brown","[""blue"",""brown"",""high nameability""]","left-right","[""blue"",""brown"",""high nameability""]","6","high nameability","52","left","trigger",""
"html-button-response","254","427720","0.0-191.0-0.0","CKN_112","112","","","","","","1230","<button class=""jspsych-btn""><img src=""stimuli/blue.png"" style=""width: 200px;height: 200px;""></button>","0","blue","brown","[""blue"",""brown"",""high nameability""]","left-right","[""blue"",""brown"",""high nameability""]","6","high nameability","52","left","response","1"
"html-audio-button-response","255","427922","0.0-191.0-1.0","CKN_112","112","","","","","","null","stimuli/bleep.m4a","null","blue","brown","[""blue"",""brown"",""high nameability""]","left-right","[""blue"",""brown"",""high nameability""]","6","high nameability","52","left","audio_feedback","1"
"html-button-response","256","428433","0.0-192.0","CKN_112","112","","","","","","null","<button class=""jspsych-btn""><img src=""stimuli/white_square.png"" style=""width: 200px;height: 200px;""></button>","null","blue","brown","[""blue"",""brown"",""high nameability""]","left-right","[""blue"",""brown"",""high nameability""]","6","high nameability","52","left","iti",""
"html-button-response","257","430784","0.0-193.0","CKN_112","112","","","","","","2339","","0","blue","orange","[""blue"",""orange"",""high nameability""]","right-left","[""orange"",""blue""]","6","high nameability","53","right","trigger",""
"html-button-response","258","432942","0.0-194.0-0.0","CKN_112","112","","","","","","2150","<button class=""jspsych-btn""><img src=""stimuli/blue.png"" style=""width: 200px;height: 200px;""></button>","1","blue","orange","[""blue"",""orange"",""high nameability""]","right-left","[""orange"",""blue""]","6","high nameability","53","right","response","1"
"html-audio-button-response","259","433148","0.0-194.0-1.0","CKN_112","112","","","","","","null","stimuli/bleep.m4a","null","blue","orange","[""blue"",""orange"",""high nameability""]","right-left","[""orange"",""blue""]","6","high nameability","53","right","audio_feedback","1"
"html-button-response","260","433667","0.0-195.0","CKN_112","112","","","","","","null","<button class=""jspsych-btn""><img src=""stimuli/white_square.png"" style=""width: 200px;height: 200px;""></button>","null","blue","orange","[""blue"",""orange"",""high nameability""]","right-left","[""orange"",""blue""]","6","high nameability","53","right","iti",""
"html-button-response","261","436893","0.0-196.0","CKN_112","112","","","","","","3211","","0","mustard","turquoise","[""mustard"",""turquoise"",""low nameability""]","left-right","[""mustard"",""turquoise"",""low nameability""]","6","low nameability","54","left","trigger",""
"html-button-response","262","440209","0.0-197.0-0.0","CKN_112","112","","","","","","3305","<button class=""jspsych-btn""><img src=""stimuli/mustard.png"" style=""width: 200px;height: 200px;""></button>","0","mustard","turquoise","[""mustard"",""turquoise"",""low nameability""]","left-right","[""mustard"",""turquoise"",""low nameability""]","6","low nameability","54","left","response","1"
"html-audio-button-response","263","440415","0.0-197.0-1.0","CKN_112","112","","","","","","null","stimuli/bleep.m4a","null","mustard","turquoise","[""mustard"",""turquoise"",""low nameability""]","left-right","[""mustard"",""turquoise"",""low nameability""]","6","low nameability","54","left","audio_feedback","1"
"html-button-response","264","440932","0.0-198.0","CKN_112","112","","","","","","null","<button class=""jspsych-btn""><img src=""stimuli/white_square.png"" style=""width: 200px;height: 200px;""></button>","null","mustard","turquoise","[""mustard"",""turquoise"",""low nameability""]","left-right","[""mustard"",""turquoise"",""low nameability""]","6","low nameability","54","left","iti",""
"html-button-response","265","442049","0.0-199.0","CKN_112","112","","","","","","1101","","0","lightred","darkgreenblue","[""lightred"",""darkgreenblue"",""low nameability""]","right-left","[""darkgreenblue"",""lightred""]","6","low nameability","55","right","trigger",""
"html-button-response","266","444793","0.0-200.0-0.0","CKN_112","112","","","","","","2736","<button class=""jspsych-btn""><img src=""stimuli/lightred.png"" style=""width: 200px;height: 200px;""></button>","1","lightred","darkgreenblue","[""lightred"",""darkgreenblue"",""low nameability""]","right-left","[""darkgreenblue"",""lightred""]","6","low nameability","55","right","response","1"
"html-audio-button-response","267","445002","0.0-200.0-1.0","CKN_112","112","","","","","","null","stimuli/bleep.m4a","null","lightred","darkgreenblue","[""lightred"",""darkgreenblue"",""low nameability""]","right-left","[""darkgreenblue"",""lightred""]","6","low nameability","55","right","audio_feedback","1"
"html-button-response","268","445513","0.0-201.0","CKN_112","112","","","","","","null","<button class=""jspsych-btn""><img src=""stimuli/white_square.png"" style=""width: 200px;height: 200px;""></button>","null","lightred","darkgreenblue","[""lightred"",""darkgreenblue"",""low nameability""]","right-left","[""darkgreenblue"",""lightred""]","6","low nameability","55","right","iti",""
"html-button-response","269","449845","0.0-202.0","CKN_112","112","","","","","","4317","","0","turquoise","neonyellow","[""turquoise"",""neonyellow"",""low nameability""]","left-right","[""turquoise"",""neonyellow"",""low nameability""]","6","low nameability","56","left","trigger",""
"html-button-response","270","453145","0.0-203.0-0.0","CKN_112","112","","","","","","3290","<button class=""jspsych-btn""><img src=""stimuli/turquoise.png"" style=""width: 200px;height: 200px;""></button>","0","turquoise","neonyellow","[""turquoise"",""neonyellow"",""low nameability""]","left-right","[""turquoise"",""neonyellow"",""low nameability""]","6","low nameability","56","left","response","1"
"html-audio-button-response","271","453352","0.0-203.0-1.0","CKN_112","112","","","","","","null","stimuli/bleep.m4a","null","turquoise","neonyellow","[""turquoise"",""neonyellow"",""low nameability""]","left-right","[""turquoise"",""neonyellow"",""low nameability""]","6","low nameability","56","left","audio_feedback","1"
"html-button-response","272","453865","0.0-204.0","CKN_112","112","","","","","","null","<button class=""jspsych-btn""><img src=""stimuli/white_square.png"" style=""width: 200px;height: 200px;""></button>","null","turquoise","neonyellow","[""turquoise"",""neonyellow"",""low nameability""]","left-right","[""turquoise"",""neonyellow"",""low nameability""]","6","low nameability","56","left","iti",""
"html-button-response","273","454733","0.0-205.0","CKN_112","112","","","","","","854","","0","turquoise","lightred","[""turquoise"",""lightred"",""low nameability""]","left-right","[""turquoise"",""lightred"",""low nameability""]","6","low nameability","57","left","trigger",""
"html-button-response","274","456497","0.0-206.0-0.0","CKN_112","112","","","","","","1755","<button class=""jspsych-btn""><img src=""stimuli/turquoise.png"" style=""width: 200px;height: 200px;""></button>","0","turquoise","lightred","[""turquoise"",""lightred"",""low nameability""]","left-right","[""turquoise"",""lightred"",""low nameability""]","6","low nameability","57","left","response","1"
"html-audio-button-response","275","456699","0.0-206.0-1.0","CKN_112","112","","","","","","null","stimuli/bleep.m4a","null","turquoise","lightred","[""turquoise"",""lightred"",""low nameability""]","left-right","[""turquoise"",""lightred"",""low nameability""]","6","low nameability","57","left","audio_feedback","1"
"html-button-response","276","457208","0.0-207.0","CKN_112","112","","","","","","null","<button class=""jspsych-btn""><img src=""stimuli/white_square.png"" style=""width: 200px;height: 200px;""></button>","null","turquoise","lightred","[""turquoise"",""lightred"",""low nameability""]","left-right","[""turquoise"",""lightred"",""low nameability""]","6","low nameability","57","left","iti",""
"html-button-response","277","458802","0.0-208.0","CKN_112","112","","","","","","1589","","0","red","purple","[""red"",""purple"",""high nameability""]","right-left","[""purple"",""red""]","6","high nameability","58","right","trigger",""
"html-button-response","278","459976","0.0-209.0-0.0","CKN_112","112","","","","","","1164","<button class=""jspsych-btn""><img src=""stimuli/red.png"" style=""width: 200px;height: 200px;""></button>","0","red","purple","[""red"",""purple"",""high nameability""]","right-left","[""purple"",""red""]","6","high nameability","58","right","response","0"
"html-audio-button-response","279","460603","0.0-209.0-1.0","CKN_112","112","","","","","","null","stimuli/boing.m4a","null","red","purple","[""red"",""purple"",""high nameability""]","right-left","[""purple"",""red""]","6","high nameability","58","right","audio_feedback","0"
"html-button-response","280","464425","0.0-209.1-0.1","CKN_112","112","","","","","","3804","<button class=""jspsych-btn""><img src=""stimuli/red.png"" style=""width: 200px;height: 200px;""></button>","1","red","purple","[""red"",""purple"",""high nameability""]","right-left","[""purple"",""red""]","6","high nameability","58","right","response","1"
"html-audio-button-response","281","464630","0.0-209.1-1.1","CKN_112","112","","","","","","null","stimuli/bleep.m4a","null","red","purple","[""red"",""purple"",""high nameability""]","right-left","[""purple"",""red""]","6","high nameability","58","right","audio_feedback","1"
"html-button-response","282","465142","0.0-210.0","CKN_112","112","","","","","","null","<button class=""jspsych-btn""><img src=""stimuli/white_square.png"" style=""width: 200px;height: 200px;""></button>","null","red","purple","[""red"",""purple"",""high nameability""]","right-left","[""purple"",""red""]","6","high nameability","58","right","iti",""
"html-button-response","283","466897","0.0-211.0","CKN_112","112","","","","","","1741","","0","blue","yellow","[""blue"",""yellow"",""high nameability""]","left-right","[""blue"",""yellow"",""high nameability""]","6","high nameability","59","left","trigger",""
"html-button-response","284","468444","0.0-212.0-0.0","CKN_112","112","","","","","","1539","<button class=""jspsych-btn""><img src=""stimuli/blue.png"" style=""width: 200px;height: 200px;""></button>","0","blue","yellow","[""blue"",""yellow"",""high nameability""]","left-right","[""blue"",""yellow"",""high nameability""]","6","high nameability","59","left","response","1"
"html-audio-button-response","285","468646","0.0-212.0-1.0","CKN_112","112","","","","","","null","stimuli/bleep.m4a","null","blue","yellow","[""blue"",""yellow"",""high nameability""]","left-right","[""blue"",""yellow"",""high nameability""]","6","high nameability","59","left","audio_feedback","1"
"html-button-response","286","469160","0.0-213.0","CKN_112","112","","","","","","null","<button class=""jspsych-btn""><img src=""stimuli/white_square.png"" style=""width: 200px;height: 200px;""></button>","null","blue","yellow","[""blue"",""yellow"",""high nameability""]","left-right","[""blue"",""yellow"",""high nameability""]","6","high nameability","59","left","iti",""
"html-button-response","287","469989","0.0-214.0","CKN_112","112","","","","","","820","","0","orange","yellow","[""orange"",""yellow"",""high nameability""]","right-left","[""yellow"",""orange""]","6","high nameability","60","right","trigger",""
"html-button-response","288","471567","0.0-215.0-0.0","CKN_112","112","","","","","","1569","<button class=""jspsych-btn""><img src=""stimuli/orange.png"" style=""width: 200px;height: 200px;""></button>","1","orange","yellow","[""orange"",""yellow"",""high nameability""]","right-left","[""yellow"",""orange""]","6","high nameability","60","right","response","1"
"html-audio-button-response","289","471776","0.0-215.0-1.0","CKN_112","112","","","","","","null","stimuli/bleep.m4a","null","orange","yellow","[""orange"",""yellow"",""high nameability""]","right-left","[""yellow"",""orange""]","6","high nameability","60","right","audio_feedback","1"
"html-button-response","290","472291","0.0-216.0","CKN_112","112","","","","","","null","<button class=""jspsych-btn""><img src=""stimuli/white_square.png"" style=""width: 200px;height: 200px;""></button>","null","orange","yellow","[""orange"",""yellow"",""high nameability""]","right-left","[""yellow"",""orange""]","6","high nameability","60","right","iti",""
