"trial_type","trial_index","time_elapsed","internal_node_id","subject_id","seed","success","timeout","failed_images","failed_audio","failed_video","rt","stimulus","response","target","foil","choices","combination_order","choices_in_order","round","condition","trial_counter","target_location","trial_kind","correct"
"pavlovia","0","21","0.0-0.0","CKN_126","126","","","","","","","","","","","","","","","","","","",""
"preload","1","965","0.0-1.0","CKN_126","126","true","false","[]","[]","[]","","","","","","","","","","","","","",""
"fullscreen","2","2791","0.0-2.0","CKN_126","126","true","","","","","","","","","","","","","","","","","",""
"html-button-response","3","17944","0.0-3.0","CKN_126","126","","","","","","15135","","0","","","","","","","","","","",""
"html-button-response","4","21754","0.0-4.0","CKN_126","126","","","","","","3797","","0","star","square","[""square"",""star""]","left-right","[""square"",""star""]","1","practice","1","right","trigger",""
"html-button-response","5","24831","0.0-5.0-0.0","CKN_126","126","","","","","","3066","<button class=""jspsych-btn""><img src=""stimuli/star.png"" style=""width: 200px;height: 200px;""></button>","1","star","square","[""square"",""star""]","left-right","[""square"",""star""]","1","practice","1","right","response","1"
"html-audio-button-response","6","25038","0.0-5.0-1.0","CKN_126","126","","","","","","null","stimuli/bleep.m4a","null","star","square","[""square"",""star""]","left-right","[""square"",""star""]","1","practice","1","right","audio_feedback","1"
"html-button-response","7","25560","0.0-6.0","CKN_126","126","","","","","","null","<button class=""jspsych-btn""><img src=""stimuli/white_square.png"" style=""width: 200px;height: 200px;""></button>","null","star","square","[""square"",""star""]","left-right","[""square"",""star""]","1","practice","1","right","iti",""
"html-button-response","8","27638","0.0-7.0","CKN_126","126","","","","","","2070","","0","triangle","pentagram","[""triangle"",""pentagram""]","left-right","[""triangle"",""pentagram""]","1","practice","1","left","trigger",""
"html-button-response","9","32583","0.0-8.0-0.0","CKN_126","126","","","","","","4934","<button class=""jspsych-btn""><img src=""stimuli/triangle.png"" style=""width: 200px;height: 200px;""></button>","0","triangle","pentagram","[""triangle"",""pentagram""]","left-right","[""triangle"",""pentagram""]","1","practice","1","left","response","1"
"html-audio-button-response","10","32795","0.0-8.0-1.0","CKN_126","126","","","","","","null","stimuli/bleep.m4a","null","triangle","pentagram","[""triangle"",""pentagram""]","left-right","[""triangle"",""pentagram""]","1","practice","1","left","audio_feedback","1"
"html-button-response","11","33306","0.0-9.0","CKN_126","126","","","","","","50","<button class=""jspsych-btn""><img src=""stimuli/white_square.png"" style=""width: 200px;height: 200px;""></button>","0","triangle","pentagram","[""triangle"",""pentagram""]","left-right","[""triangle"",""pentagram""]","1","practice","1","left","iti",""
"html-button-response","12","36002","0.0-10.0","CKN_126","126","","","","","","2687","","0","diamond","rectangle","[""rectangle"",""diamond""]","left-right","[""rectangle"",""diamond""]","1","practice","1","right","trigger",""
"html-button-response","13","38504","0.0-11.0-0.0","CKN_126","126","","","","","","2494","<button class=""jspsych-btn""><img src=""stimuli/diamond.png"" style=""width: 200px;height: 200px;""></button>","1","diamond","rectangle","[""rectangle"",""diamond""]","left-right","[""rectangle"",""diamond""]","1","practice","1","right","response","1"
"html-audio-button-response","14","38710","0.0-11.0-1.0","CKN_126","126","","","","","","null","stimuli/bleep.m4a","null","diamond","rectangle","[""rectangle"",""diamond""]","left-right","[""rectangle"",""diamond""]","1","practice","1","right","audio_feedback","1"
"html-button-response","15","39221","0.0-12.0","CKN_126","126","","","","","","null","<button class=""jspsych-btn""><img src=""stimuli/white_square.png"" style=""width: 200px;height: 200px;""></button>","null","diamond","rectangle","[""rectangle"",""diamond""]","left-right","[""rectangle"",""diamond""]","1","practice","1","right","iti",""
"html-button-response","16","41707","0.0-13.0","CKN_126","126","","","","","","2475","","0","pentagram","star","[""pentagram"",""star""]","left-right","[""pentagram"",""star""]","1","practice","1","left","trigger",""
"html-button-response","17","43857","0.0-14.0-0.0","CKN_126","126","","","","","","2140","<button class=""jspsych-btn""><img src=""stimuli/pentagram.png"" style=""width: 200px;height: 200px;""></button>","0","pentagram","star","[""pentagram"",""star""]","left-right","[""pentagram"",""star""]","1","practice","1","left","response","1"
"html-audio-button-response","18","44072","0.0-14.0-1.0","CKN_126","126","","","","","","null","stimuli/bleep.m4a","null","pentagram","star","[""pentagram"",""star""]","left-right","[""pentagram"",""star""]","1","practice","1","left","audio_feedback","1"
"html-button-response","19","44607","0.0-15.0","CKN_126","126","","","","","","null","<button class=""jspsych-btn""><img src=""stimuli/white_square.png"" style=""width: 200px;height: 200px;""></button>","null","pentagram","star","[""pentagram"",""star""]","left-right","[""pentagram"",""star""]","1","practice","1","left","iti",""
"html-button-response","20","48319","0.0-16.0","CKN_126","126","","","","","","3701","","0","","","","","","","","","","",""
"html-button-response","21","51225","0.0-17.0","CKN_126","126","","","","","","2900","","0","lightred","turquoise","[""lightred"",""turquoise"",""low nameability""]","right-left","[""turquoise"",""lightred""]","1","low nameability","1","right","trigger",""
"html-button-response","22","60355","0.0-18.0-0.0","CKN_126","126","","","","","","9114","<button class=""jspsych-btn""><img src=""stimuli/lightred.png"" style=""width: 200px;height: 200px;""></button>","1","lightred","turquoise","[""lightred"",""turquoise"",""low nameability""]","right-left","[""turquoise"",""lightred""]","1","low nameability","1","right","response","1"
"html-audio-button-response","23","60573","0.0-18.0-1.0","CKN_126","126","","","","","","null","stimuli/bleep.m4a","null","lightred","turquoise","[""lightred"",""turquoise"",""low nameability""]","right-left","[""turquoise"",""lightred""]","1","low nameability","1","right","audio_feedback","1"
"html-button-response","24","61111","0.0-19.0","CKN_126","126","","","","","","null","<button class=""jspsych-btn""><img src=""stimuli/white_square.png"" style=""width: 200px;height: 200px;""></button>","null","lightred","turquoise","[""lightred"",""turquoise"",""low nameability""]","right-left","[""turquoise"",""lightred""]","1","low nameability","1","right","iti",""
"html-button-response","25","65609","0.0-20.0","CKN_126","126","","","","","","4470","","0","orange","blue","[""orange"",""blue"",""high nameability""]","left-right","[""orange"",""blue"",""high nameability""]","1","high nameability","2","left","trigger",""
"html-button-response","26","67972","0.0-21.0-0.0","CKN_126","126","","","","","","2354","<button class=""jspsych-btn""><img src=""stimuli/orange.png"" style=""width: 200px;height: 200px;""></button>","0","orange","blue","[""orange"",""blue"",""high nameability""]","left-right","[""orange"",""blue"",""high nameability""]","1","high nameability","2","left","response","1"
"html-audio-button-response","27","68186","0.0-21.0-1.0","CKN_126","126","","","","","","null","stimuli/bleep.m4a","null","orange","blue","[""orange"",""blue"",""high nameability""]","left-right","[""orange"",""blue"",""high nameability""]","1","high nameability","2","left","audio_feedback","1"
"html-button-response","28","68711","0.0-22.0","CKN_126","126","","","","","","null","<button class=""jspsych-btn""><img src=""stimuli/white_square.png"" style=""width: 200px;height: 200px;""></button>","null","orange","blue","[""orange"",""blue"",""high nameability""]","left-right","[""orange"",""blue"",""high nameability""]","1","high nameability","2","left","iti",""
"html-button-response","29","73254","0.0-23.0","CKN_126","126","","","","","","4534","","0","yellow","red","[""yellow"",""red"",""high nameability""]","left-right","[""yellow"",""red"",""high nameability""]","1","high nameability","3","left","trigger",""
"html-button-response","30","74824","0.0-24.0-0.0","CKN_126","126","","","","","","1560","<button class=""jspsych-btn""><img src=""stimuli/yellow.png"" style=""width: 200px;height: 200px;""></button>","0","yellow","red","[""yellow"",""red"",""high nameability""]","left-right","[""yellow"",""red"",""high nameability""]","1","high nameability","3","left","response","1"
"html-audio-button-response","31","75040","0.0-24.0-1.0","CKN_126","126","","","","","","null","stimuli/bleep.m4a","null","yellow","red","[""yellow"",""red"",""high nameability""]","left-right","[""yellow"",""red"",""high nameability""]","1","high nameability","3","left","audio_feedback","1"
"html-button-response","32","75556","0.0-25.0","CKN_126","126","","","","","","null","<button class=""jspsych-btn""><img src=""stimuli/white_square.png"" style=""width: 200px;height: 200px;""></button>","null","yellow","red","[""yellow"",""red"",""high nameability""]","left-right","[""yellow"",""red"",""high nameability""]","1","high nameability","3","left","iti",""
"html-button-response","33","78425","0.0-26.0","CKN_126","126","","","","","","2848","","0","mustard","lightred","[""mustard"",""lightred"",""low nameability""]","right-left","[""lightred"",""mustard""]","1","low nameability","4","right","trigger",""
"html-button-response","34","80008","0.0-27.0-0.0","CKN_126","126","","","","","","1574","<button class=""jspsych-btn""><img src=""stimuli/mustard.png"" style=""width: 200px;height: 200px;""></button>","1","mustard","lightred","[""mustard"",""lightred"",""low nameability""]","right-left","[""lightred"",""mustard""]","1","low nameability","4","right","response","1"
"html-audio-button-response","35","80214","0.0-27.0-1.0","CKN_126","126","","","","","","null","stimuli/bleep.m4a","null","mustard","lightred","[""mustard"",""lightred"",""low nameability""]","right-left","[""lightred"",""mustard""]","1","low nameability","4","right","audio_feedback","1"
"html-button-response","36","80745","0.0-28.0","CKN_126","126","","","","","","null","<button class=""jspsych-btn""><img src=""stimuli/white_square.png"" style=""width: 200px;height: 200px;""></button>","null","mustard","lightred","[""mustard"",""lightred"",""low nameability""]","right-left","[""lightred"",""mustard""]","1","low nameability","4","right","iti",""
"html-button-response","37","82178","0.0-29.0","CKN_126","126","","","","","","1420","","0","turquoise","mustard","[""turquoise"",""mustard"",""low nameability""]","left-right","[""turquoise"",""mustard"",""low nameability""]","1","low nameability","5","left","trigger",""
"html-button-response","38","84125","0.0-30.0-0.0","CKN_126","126","","","","","","1938","<button class=""jspsych-btn""><img src=""stimuli/turquoise.png"" style=""width: 200px;height: 200px;""></button>","0","turquoise","mustard","[""turquoise"",""mustard"",""low nameability""]","left-right","[""turquoise"",""mustard"",""low nameability""]","1","low nameability","5","left","response","1"
"html-audio-button-response","39","84335","0.0-30.0-1.0","CKN_126","126","","","","","","null","stimuli/bleep.m4a","null","turquoise","mustard","[""turquoise"",""mustard"",""low nameability""]","left-right","[""turquoise"",""mustard"",""low nameability""]","1","low nameability","5","left","audio_feedback","1"
"html-button-response","40","84851","0.0-31.0","CKN_126","126","","","","","","null","<button class=""jspsych-btn""><img src=""stimuli/white_square.png"" style=""width: 200px;height: 200px;""></button>","null","turquoise","mustard","[""turquoise"",""mustard"",""low nameability""]","left-right","[""turquoise"",""mustard"",""low nameability""]","1","low nameability","5","left","iti",""
"html-button-response","41","86900","0.0-32.0","CKN_126","126","","","","","","2020","","0","brown","purple","[""brown"",""purple"",""high nameability""]","left-right","[""brown"",""purple"",""high nameability""]","1","high nameability","6","left","trigger",""
"html-button-response","42","89268","0.0-33.0-0.0","CKN_126","126","","","","","","2362","<button class=""jspsych-btn""><img src=""stimuli/brown.png"" style=""width: 200px;height: 200px;""></button>","0","brown","purple","[""brown"",""purple"",""high nameability""]","left-right","[""brown"",""purple"",""high nameability""]","1","high nameability","6","left","response","1"
"html-audio-button-response","43","89470","0.0-33.0-1.0","CKN_126","126","","","","","","null","stimuli/bleep.m4a","null","brown","purple","[""brown"",""purple"",""high nameability""]","left-right","[""brown"",""purple"",""high nameability""]","1","high nameability","6","left","audio_feedback","1"
"html-button-response","44","89985","0.0-34.0","CKN_126","126","","","","","","null","<button class=""jspsych-btn""><img src=""stimuli/white_square.png"" style=""width: 200px;height: 200px;""></button>","null","brown","purple","[""brown"",""purple"",""high nameability""]","left-right","[""brown"",""purple"",""high nameability""]","1","high nameability","6","left","iti",""
"html-button-response","45","93273","0.0-35.0","CKN_126","126","","","","","","3267","","0","purple","blue","[""purple"",""blue"",""high nameability""]","right-left","[""blue"",""purple""]","1","high nameability","7","right","trigger",""
"html-button-response","46","94484","0.0-36.0-0.0","CKN_126","126","","","","","","1202","<button class=""jspsych-btn""><img src=""stimuli/purple.png"" style=""width: 200px;height: 200px;""></button>","1","purple","blue","[""purple"",""blue"",""high nameability""]","right-left","[""blue"",""purple""]","1","high nameability","7","right","response","1"
"html-audio-button-response","47","94687","0.0-36.0-1.0","CKN_126","126","","","","","","null","stimuli/bleep.m4a","null","purple","blue","[""purple"",""blue"",""high nameability""]","right-left","[""blue"",""purple""]","1","high nameability","7","right","audio_feedback","1"
"html-button-response","48","95202","0.0-37.0","CKN_126","126","","","","","","null","<button class=""jspsych-btn""><img src=""stimuli/white_square.png"" style=""width: 200px;height: 200px;""></button>","null","purple","blue","[""purple"",""blue"",""high nameability""]","right-left","[""blue"",""purple""]","1","high nameability","7","right","iti",""
"html-button-response","49","99102","0.0-38.0","CKN_126","126","","","","","","3884","","0","darkgreenblue","turquoise","[""darkgreenblue"",""turquoise"",""low nameability""]","left-right","[""darkgreenblue"",""turquoise"",""low nameability""]","1","low nameability","8","left","trigger",""
"html-button-response","50","100810","0.0-39.0-0.0","CKN_126","126","","","","","","1701","<button class=""jspsych-btn""><img src=""stimuli/darkgreenblue.png"" style=""width: 200px;height: 200px;""></button>","0","darkgreenblue","turquoise","[""darkgreenblue"",""turquoise"",""low nameability""]","left-right","[""darkgreenblue"",""turquoise"",""low nameability""]","1","low nameability","8","left","response","1"
"html-audio-button-response","51","101015","0.0-39.0-1.0","CKN_126","126","","","","","","null","stimuli/bleep.m4a","null","darkgreenblue","turquoise","[""darkgreenblue"",""turquoise"",""low nameability""]","left-right","[""darkgreenblue"",""turquoise"",""low nameability""]","1","low nameability","8","left","audio_feedback","1"
"html-button-response","52","101536","0.0-40.0","CKN_126","126","","","","","","null","<button class=""jspsych-btn""><img src=""stimuli/white_square.png"" style=""width: 200px;height: 200px;""></button>","null","darkgreenblue","turquoise","[""darkgreenblue"",""turquoise"",""low nameability""]","left-right","[""darkgreenblue"",""turquoise"",""low nameability""]","1","low nameability","8","left","iti",""
"html-button-response","53","103197","0.0-41.0","CKN_126","126","","","","","","1641","","0","red","orange","[""red"",""orange"",""high nameability""]","right-left","[""orange"",""red""]","1","high nameability","9","right","trigger",""
"html-button-response","54","104795","0.0-42.0-0.0","CKN_126","126","","","","","","1590","<button class=""jspsych-btn""><img src=""stimuli/red.png"" style=""width: 200px;height: 200px;""></button>","1","red","orange","[""red"",""orange"",""high nameability""]","right-left","[""orange"",""red""]","1","high nameability","9","right","response","1"
"html-audio-button-response","55","104999","0.0-42.0-1.0","CKN_126","126","","","","","","null","stimuli/bleep.m4a","null","red","orange","[""red"",""orange"",""high nameability""]","right-left","[""orange"",""red""]","1","high nameability","9","right","audio_feedback","1"
"html-button-response","56","105510","0.0-43.0","CKN_126","126","","","","","","null","<button class=""jspsych-btn""><img src=""stimuli/white_square.png"" style=""width: 200px;height: 200px;""></button>","null","red","orange","[""red"",""orange"",""high nameability""]","right-left","[""orange"",""red""]","1","high nameability","9","right","iti",""
"html-button-response","57","107526","0.0-44.0","CKN_126","126","","","","","","2005","","0","orange","purple","[""orange"",""purple"",""high nameability""]","left-right","[""orange"",""purple"",""high nameability""]","1","high nameability","10","left","trigger",""
"html-button-response","58","108831","0.0-45.0-0.0","CKN_126","126","","","","","","1297","<button class=""jspsych-btn""><img src=""stimuli/orange.png"" style=""width: 200px;height: 200px;""></button>","0","orange","purple","[""orange"",""purple"",""high nameability""]","left-right","[""orange"",""purple"",""high nameability""]","1","high nameability","10","left","response","1"
"html-audio-button-response","59","109036","0.0-45.0-1.0","CKN_126","126","","","","","","null","stimuli/bleep.m4a","null","orange","purple","[""orange"",""purple"",""high nameability""]","left-right","[""orange"",""purple"",""high nameability""]","1","high nameability","10","left","audio_feedback","1"
"html-button-response","60","109548","0.0-46.0","CKN_126","126","","","","","","null","<button class=""jspsych-btn""><img src=""stimuli/white_square.png"" style=""width: 200px;height: 200px;""></button>","null","orange","purple","[""orange"",""purple"",""high nameability""]","left-right","[""orange"",""purple"",""high nameability""]","1","high nameability","10","left","iti",""
"pavlovia","61","109669","0.0-47.0","CKN_126","126","","","","","","","","","","","","","","","","","","",""
"pavlovia","62","109684","0.0-48.0","CKN_126","126","","","","","","","","","","","","","","","","","","",""
"html-audio-button-response","63","115041","0.0-49.0","CKN_126","126","","","","","","5496","stimuli/tada.m4a","0","","","","","","","","","","",""
"html-button-response","64","115511","0.0-50.0","CKN_126","126","","","","","","465","","0","","","","","","","","","","",""
"html-button-response","65","117254","0.0-51.0","CKN_126","126","","","","","","1735","","0","blue","red","[""blue"",""red"",""high nameability""]","left-right","[""blue"",""red"",""high nameability""]","2","high nameability","11","left","trigger",""
"html-button-response","66","120258","0.0-52.0-0.0","CKN_126","126","","","","","","2997","<button class=""jspsych-btn""><img src=""stimuli/blue.png"" style=""width: 200px;height: 200px;""></button>","0","blue","red","[""blue"",""red"",""high nameability""]","left-right","[""blue"",""red"",""high nameability""]","2","high nameability","11","left","response","1"
"html-audio-button-response","67","120462","0.0-52.0-1.0","CKN_126","126","","","","","","null","stimuli/bleep.m4a","null","blue","red","[""blue"",""red"",""high nameability""]","left-right","[""blue"",""red"",""high nameability""]","2","high nameability","11","left","audio_feedback","1"
"html-button-response","68","120972","0.0-53.0","CKN_126","126","","","","","","null","<button class=""jspsych-btn""><img src=""stimuli/white_square.png"" style=""width: 200px;height: 200px;""></button>","null","blue","red","[""blue"",""red"",""high nameability""]","left-right","[""blue"",""red"",""high nameability""]","2","high nameability","11","left","iti",""
"html-button-response","69","123333","0.0-54.0","CKN_126","126","","","","","","2341","","0","brown","yellow","[""brown"",""yellow"",""high nameability""]","left-right","[""brown"",""yellow"",""high nameability""]","2","high nameability","12","left","trigger",""
"html-button-response","70","124789","0.0-55.0-0.0","CKN_126","126","","","","","","1444","<button class=""jspsych-btn""><img src=""stimuli/brown.png"" style=""width: 200px;height: 200px;""></button>","0","brown","yellow","[""brown"",""yellow"",""high nameability""]","left-right","[""brown"",""yellow"",""high nameability""]","2","high nameability","12","left","response","1"
"html-audio-button-response","71","125002","0.0-55.0-1.0","CKN_126","126","","","","","","null","stimuli/bleep.m4a","null","brown","yellow","[""brown"",""yellow"",""high nameability""]","left-right","[""brown"",""yellow"",""high nameability""]","2","high nameability","12","left","audio_feedback","1"
"html-button-response","72","125532","0.0-56.0","CKN_126","126","","","","","","null","<button class=""jspsych-btn""><img src=""stimuli/white_square.png"" style=""width: 200px;height: 200px;""></button>","null","brown","yellow","[""brown"",""yellow"",""high nameability""]","left-right","[""brown"",""yellow"",""high nameability""]","2","high nameability","12","left","iti",""
"html-button-response","73","128695","0.0-57.0","CKN_126","126","","","","","","3135","","0","darkgreenblue","pink","[""darkgreenblue"",""pink"",""low nameability""]","right-left","[""pink"",""darkgreenblue""]","2","low nameability","13","right","trigger",""
"html-button-response","74","129937","0.0-58.0-0.0","CKN_126","126","","","","","","1226","<button class=""jspsych-btn""><img src=""stimuli/darkgreenblue.png"" style=""width: 200px;height: 200px;""></button>","1","darkgreenblue","pink","[""darkgreenblue"",""pink"",""low nameability""]","right-left","[""pink"",""darkgreenblue""]","2","low nameability","13","right","response","1"
"html-audio-button-response","75","130151","0.0-58.0-1.0","CKN_126","126","","","","","","null","stimuli/bleep.m4a","null","darkgreenblue","pink","[""darkgreenblue"",""pink"",""low nameability""]","right-left","[""pink"",""darkgreenblue""]","2","low nameability","13","right","audio_feedback","1"
"html-button-response","76","130693","0.0-59.0","CKN_126","126","","","","","","null","<button class=""jspsych-btn""><img src=""stimuli/white_square.png"" style=""width: 200px;height: 200px;""></button>","null","darkgreenblue","pink","[""darkgreenblue"",""pink"",""low nameability""]","right-left","[""pink"",""darkgreenblue""]","2","low nameability","13","right","iti",""
"html-button-response","77","134415","0.0-60.0","CKN_126","126","","","","","","3699","","0","purple","orange","[""purple"",""orange"",""high nameability""]","right-left","[""orange"",""purple""]","2","high nameability","14","right","trigger",""
"html-button-response","78","135797","0.0-61.0-0.0","CKN_126","126","","","","","","1373","<button class=""jspsych-btn""><img src=""stimuli/purple.png"" style=""width: 200px;height: 200px;""></button>","1","purple","orange","[""purple"",""orange"",""high nameability""]","right-left","[""orange"",""purple""]","2","high nameability","14","right","response","1"
"html-audio-button-response","79","136014","0.0-61.0-1.0","CKN_126","126","","","","","","null","stimuli/bleep.m4a","null","purple","orange","[""purple"",""orange"",""high nameability""]","right-left","[""orange"",""purple""]","2","high nameability","14","right","audio_feedback","1"
"html-button-response","80","136543","0.0-62.0","CKN_126","126","","","","","","null","<button class=""jspsych-btn""><img src=""stimuli/white_square.png"" style=""width: 200px;height: 200px;""></button>","null","purple","orange","[""purple"",""orange"",""high nameability""]","right-left","[""orange"",""purple""]","2","high nameability","14","right","iti",""
"html-button-response","81","137878","0.0-63.0","CKN_126","126","","","","","","1319","","0","darkgreenblue","neonyellow","[""darkgreenblue"",""neonyellow"",""low nameability""]","left-right","[""darkgreenblue"",""neonyellow"",""low nameability""]","2","low nameability","15","left","trigger",""
"html-button-response","82","140293","0.0-64.0-0.0","CKN_126","126","","","","","","2405","<button class=""jspsych-btn""><img src=""stimuli/darkgreenblue.png"" style=""width: 200px;height: 200px;""></button>","0","darkgreenblue","neonyellow","[""darkgreenblue"",""neonyellow"",""low nameability""]","left-right","[""darkgreenblue"",""neonyellow"",""low nameability""]","2","low nameability","15","left","response","1"
"html-audio-button-response","83","140507","0.0-64.0-1.0","CKN_126","126","","","","","","null","stimuli/bleep.m4a","null","darkgreenblue","neonyellow","[""darkgreenblue"",""neonyellow"",""low nameability""]","left-right","[""darkgreenblue"",""neonyellow"",""low nameability""]","2","low nameability","15","left","audio_feedback","1"
"html-button-response","84","141031","0.0-65.0","CKN_126","126","","","","","","60","<button class=""jspsych-btn""><img src=""stimuli/white_square.png"" style=""width: 200px;height: 200px;""></button>","0","darkgreenblue","neonyellow","[""darkgreenblue"",""neonyellow"",""low nameability""]","left-right","[""darkgreenblue"",""neonyellow"",""low nameability""]","2","low nameability","15","left","iti",""
"html-button-response","85","146436","0.0-66.0","CKN_126","126","","","","","","5388","","0","brown","blue","[""brown"",""blue"",""high nameability""]","right-left","[""blue"",""brown""]","2","high nameability","16","right","trigger",""
"html-button-response","86","147695","0.0-67.0-0.0","CKN_126","126","","","","","","1252","<button class=""jspsych-btn""><img src=""stimuli/brown.png"" style=""width: 200px;height: 200px;""></button>","1","brown","blue","[""brown"",""blue"",""high nameability""]","right-left","[""blue"",""brown""]","2","high nameability","16","right","response","1"
"html-audio-button-response","87","147904","0.0-67.0-1.0","CKN_126","126","","","","","","null","stimuli/bleep.m4a","null","brown","blue","[""brown"",""blue"",""high nameability""]","right-left","[""blue"",""brown""]","2","high nameability","16","right","audio_feedback","1"
"html-button-response","88","148434","0.0-68.0","CKN_126","126","","","","","","null","<button class=""jspsych-btn""><img src=""stimuli/white_square.png"" style=""width: 200px;height: 200px;""></button>","null","brown","blue","[""brown"",""blue"",""high nameability""]","right-left","[""blue"",""brown""]","2","high nameability","16","right","iti",""
"html-button-response","89","152099","0.0-69.0","CKN_126","126","","","","","","3645","","0","lightred","pink","[""lightred"",""pink"",""low nameability""]","right-left","[""pink"",""lightred""]","2","low nameability","17","right","trigger",""
"html-button-response","90","153219","0.0-70.0-0.0","CKN_126","126","","","","","","1108","<button class=""jspsych-btn""><img src=""stimuli/lightred.png"" style=""width: 200px;height: 200px;""></button>","1","lightred","pink","[""lightred"",""pink"",""low nameability""]","right-left","[""pink"",""lightred""]","2","low nameability","17","right","response","1"
"html-audio-button-response","91","153424","0.0-70.0-1.0","CKN_126","126","","","","","","null","stimuli/bleep.m4a","null","lightred","pink","[""lightred"",""pink"",""low nameability""]","right-left","[""pink"",""lightred""]","2","low nameability","17","right","audio_feedback","1"
"html-button-response","92","153941","0.0-71.0","CKN_126","126","","","","","","null","<button class=""jspsych-btn""><img src=""stimuli/white_square.png"" style=""width: 200px;height: 200px;""></button>","null","lightred","pink","[""lightred"",""pink"",""low nameability""]","right-left","[""pink"",""lightred""]","2","low nameability","17","right","iti",""
"html-button-response","93","156385","0.0-72.0","CKN_126","126","","","","","","2431","","0","neonyellow","darkgreenblue","[""neonyellow"",""darkgreenblue"",""low nameability""]","left-right","[""neonyellow"",""darkgreenblue"",""low nameability""]","2","low nameability","18","left","trigger",""
"html-button-response","94","159119","0.0-73.0-0.0","CKN_126","126","","","","","","2726","<button class=""jspsych-btn""><img src=""stimuli/neonyellow.png"" style=""width: 200px;height: 200px;""></button>","0","neonyellow","darkgreenblue","[""neonyellow"",""darkgreenblue"",""low nameability""]","left-right","[""neonyellow"",""darkgreenblue"",""low nameability""]","2","low nameability","18","left","response","1"
"html-audio-button-response","95","159324","0.0-73.0-1.0","CKN_126","126","","","","","","null","stimuli/bleep.m4a","null","neonyellow","darkgreenblue","[""neonyellow"",""darkgreenblue"",""low nameability""]","left-right","[""neonyellow"",""darkgreenblue"",""low nameability""]","2","low nameability","18","left","audio_feedback","1"
"html-button-response","96","159852","0.0-74.0","CKN_126","126","","","","","","null","<button class=""jspsych-btn""><img src=""stimuli/white_square.png"" style=""width: 200px;height: 200px;""></button>","null","neonyellow","darkgreenblue","[""neonyellow"",""darkgreenblue"",""low nameability""]","left-right","[""neonyellow"",""darkgreenblue"",""low nameability""]","2","low nameability","18","left","iti",""
"html-button-response","97","162204","0.0-75.0","CKN_126","126","","","","","","2338","","0","pink","lightred","[""pink"",""lightred"",""low nameability""]","right-left","[""lightred"",""pink""]","2","low nameability","19","right","trigger",""
"html-button-response","98","163440","0.0-76.0-0.0","CKN_126","126","","","","","","1231","<button class=""jspsych-btn""><img src=""stimuli/pink.png"" style=""width: 200px;height: 200px;""></button>","1","pink","lightred","[""pink"",""lightred"",""low nameability""]","right-left","[""lightred"",""pink""]","2","low nameability","19","right","response","1"
"html-audio-button-response","99","163652","0.0-76.0-1.0","CKN_126","126","","","","","","null","stimuli/bleep.m4a","null","pink","lightred","[""pink"",""lightred"",""low nameability""]","right-left","[""lightred"",""pink""]","2","low nameability","19","right","audio_feedback","1"
"html-button-response","100","164175","0.0-77.0","CKN_126","126","","","","","","null","<button class=""jspsych-btn""><img src=""stimuli/white_square.png"" style=""width: 200px;height: 200px;""></button>","null","pink","lightred","[""pink"",""lightred"",""low nameability""]","right-left","[""lightred"",""pink""]","2","low nameability","19","right","iti",""
"html-button-response","101","166392","0.0-78.0","CKN_126","126","","","","","","2188","","0","mustard","neonyellow","[""mustard"",""neonyellow"",""low nameability""]","left-right","[""mustard"",""neonyellow"",""low nameability""]","2","low nameability","20","left","trigger",""
"html-button-response","102","167839","0.0-79.0-0.0","CKN_126","126","","","","","","1440","<button class=""jspsych-btn""><img src=""stimuli/mustard.png"" style=""width: 200px;height: 200px;""></button>","0","mustard","neonyellow","[""mustard"",""neonyellow"",""low nameability""]","left-right","[""mustard"",""neonyellow"",""low nameability""]","2","low nameability","20","left","response","1"
"html-audio-button-response","103","168049","0.0-79.0-1.0","CKN_126","126","","","","","","null","stimuli/bleep.m4a","null","mustard","neonyellow","[""mustard"",""neonyellow"",""low nameability""]","left-right","[""mustard"",""neonyellow"",""low nameability""]","2","low nameability","20","left","audio_feedback","1"
"html-button-response","104","168567","0.0-80.0","CKN_126","126","","","","","","null","<button class=""jspsych-btn""><img src=""stimuli/white_square.png"" style=""width: 200px;height: 200px;""></button>","null","mustard","neonyellow","[""mustard"",""neonyellow"",""low nameability""]","left-right","[""mustard"",""neonyellow"",""low nameability""]","2","low nameability","20","left","iti",""
"pavlovia","105","168698","0.0-81.0","CKN_126","126","","","","","","","","","","","","","","","","","","",""
"pavlovia","106","168712","0.0-82.0","CKN_126","126","","","","","","","","","","","","","","","","","","",""
"html-audio-button-response","107","172494","0.0-83.0","CKN_126","126","","","","","","3928","stimuli/tada.m4a","0","","","","","","","","","","",""
"html-button-response","108","172904","0.0-84.0","CKN_126","126","","","","","","403","","0","","","","","","","","","","",""
"html-button-response","109","175124","0.0-85.0","CKN_126","126","","","","","","2214","","0","neonyellow","mustard","[""neonyellow"",""mustard"",""low nameability""]","right-left","[""mustard"",""neonyellow""]","3","low nameability","21","right","trigger",""
"html-button-response","110","179763","0.0-86.0-0.0","CKN_126","126","","","","","","4630","<button class=""jspsych-btn""><img src=""stimuli/neonyellow.png"" style=""width: 200px;height: 200px;""></button>","1","neonyellow","mustard","[""neonyellow"",""mustard"",""low nameability""]","right-left","[""mustard"",""neonyellow""]","3","low nameability","21","right","response","1"
"html-audio-button-response","111","179975","0.0-86.0-1.0","CKN_126","126","","","","","","null","stimuli/bleep.m4a","null","neonyellow","mustard","[""neonyellow"",""mustard"",""low nameability""]","right-left","[""mustard"",""neonyellow""]","3","low nameability","21","right","audio_feedback","1"
"html-button-response","112","180494","0.0-87.0","CKN_126","126","","","","","","null","<button class=""jspsych-btn""><img src=""stimuli/white_square.png"" style=""width: 200px;height: 200px;""></button>","null","neonyellow","mustard","[""neonyellow"",""mustard"",""low nameability""]","right-left","[""mustard"",""neonyellow""]","3","low nameability","21","right","iti",""
"html-button-response","113","183963","0.0-88.0","CKN_126","126","","","","","","3451","","0","yellow","brown","[""yellow"",""brown"",""high nameability""]","right-left","[""brown"",""yellow""]","3","high nameability","22","right","trigger",""
"html-button-response","114","185152","0.0-89.0-0.0","CKN_126","126","","","","","","1182","<button class=""jspsych-btn""><img src=""stimuli/yellow.png"" style=""width: 200px;height: 200px;""></button>","1","yellow","brown","[""yellow"",""brown"",""high nameability""]","right-left","[""brown"",""yellow""]","3","high nameability","22","right","response","1"
"html-audio-button-response","115","185371","0.0-89.0-1.0","CKN_126","126","","","","","","null","stimuli/bleep.m4a","null","yellow","brown","[""yellow"",""brown"",""high nameability""]","right-left","[""brown"",""yellow""]","3","high nameability","22","right","audio_feedback","1"
"html-button-response","116","185913","0.0-90.0","CKN_126","126","","","","","","null","<button class=""jspsych-btn""><img src=""stimuli/white_square.png"" style=""width: 200px;height: 200px;""></button>","null","yellow","brown","[""yellow"",""brown"",""high nameability""]","right-left","[""brown"",""yellow""]","3","high nameability","22","right","iti",""
"html-button-response","117","189111","0.0-91.0","CKN_126","126","","","","","","3171","","0","mustard","darkgreenblue","[""mustard"",""darkgreenblue"",""low nameability""]","left-right","[""mustard"",""darkgreenblue"",""low nameability""]","3","low nameability","23","left","trigger",""
"html-button-response","118","190606","0.0-92.0-0.0","CKN_126","126","","","","","","1475","<button class=""jspsych-btn""><img src=""stimuli/mustard.png"" style=""width: 200px;height: 200px;""></button>","0","mustard","darkgreenblue","[""mustard"",""darkgreenblue"",""low nameability""]","left-right","[""mustard"",""darkgreenblue"",""low nameability""]","3","low nameability","23","left","response","1"
"html-audio-button-response","119","190832","0.0-92.0-1.0","CKN_126","126","","","","","","null","stimuli/bleep.m4a","null","mustard","darkgreenblue","[""mustard"",""darkgreenblue"",""low nameability""]","left-right","[""mustard"",""darkgreenblue"",""low nameability""]","3","low nameability","23","left","audio_feedback","1"
"html-button-response","120","191359","0.0-93.0","CKN_126","126","","","","","","null","<button class=""jspsych-btn""><img src=""stimuli/white_square.png"" style=""width: 200px;height: 200px;""></button>","null","mustard","darkgreenblue","[""mustard"",""darkgreenblue"",""low nameability""]","left-right","[""mustard"",""darkgreenblue"",""low nameability""]","3","low nameability","23","left","iti",""
"html-button-response","121","193498","0.0-94.0","CKN_126","126","","","","","","2120","","0","turquoise","pink","[""turquoise"",""pink"",""low nameability""]","right-left","[""pink"",""turquoise""]","3","low nameability","24","right","trigger",""
"html-button-response","122","194645","0.0-95.0-0.0","CKN_126","126","","","","","","1135","<button class=""jspsych-btn""><img src=""stimuli/turquoise.png"" style=""width: 200px;height: 200px;""></button>","1","turquoise","pink","[""turquoise"",""pink"",""low nameability""]","right-left","[""pink"",""turquoise""]","3","low nameability","24","right","response","1"
"html-audio-button-response","123","194881","0.0-95.0-1.0","CKN_126","126","","","","","","null","stimuli/bleep.m4a","null","turquoise","pink","[""turquoise"",""pink"",""low nameability""]","right-left","[""pink"",""turquoise""]","3","low nameability","24","right","audio_feedback","1"
"html-button-response","124","195402","0.0-96.0","CKN_126","126","","","","","","null","<button class=""jspsych-btn""><img src=""stimuli/white_square.png"" style=""width: 200px;height: 200px;""></button>","null","turquoise","pink","[""turquoise"",""pink"",""low nameability""]","right-left","[""pink"",""turquoise""]","3","low nameability","24","right","iti",""
"html-button-response","125","203220","0.0-97.0","CKN_126","126","","","","","","7801","","0","lightred","darkgreenblue","[""lightred"",""darkgreenblue"",""low nameability""]","left-right","[""lightred"",""darkgreenblue"",""low nameability""]","3","low nameability","25","left","trigger",""
"html-button-response","126","208378","0.0-98.0-0.0","CKN_126","126","","","","","","5150","<button class=""jspsych-btn""><img src=""stimuli/lightred.png"" style=""width: 200px;height: 200px;""></button>","0","lightred","darkgreenblue","[""lightred"",""darkgreenblue"",""low nameability""]","left-right","[""lightred"",""darkgreenblue"",""low nameability""]","3","low nameability","25","left","response","1"
"html-audio-button-response","127","208582","0.0-98.0-1.0","CKN_126","126","","","","","","null","stimuli/bleep.m4a","null","lightred","darkgreenblue","[""lightred"",""darkgreenblue"",""low nameability""]","left-right","[""lightred"",""darkgreenblue"",""low nameability""]","3","low nameability","25","left","audio_feedback","1"
"html-button-response","128","209109","0.0-99.0","CKN_126","126","","","","","","null","<button class=""jspsych-btn""><img src=""stimuli/white_square.png"" style=""width: 200px;height: 200px;""></button>","null","lightred","darkgreenblue","[""lightred"",""darkgreenblue"",""low nameability""]","left-right","[""lightred"",""darkgreenblue"",""low nameability""]","3","low nameability","25","left","iti",""
"html-button-response","129","215131","0.0-100.0","CKN_126","126","","","","","","5991","","0","turquoise","neonyellow","[""turquoise"",""neonyellow"",""low nameability""]","left-right","[""turquoise"",""neonyellow"",""low nameability""]","3","low nameability","26","left","trigger",""
"html-button-response","130","217884","0.0-101.0-0.0","CKN_126","126","","","","","","2745","<button class=""jspsych-btn""><img src=""stimuli/turquoise.png"" style=""width: 200px;height: 200px;""></button>","0","turquoise","neonyellow","[""turquoise"",""neonyellow"",""low nameability""]","left-right","[""turquoise"",""neonyellow"",""low nameability""]","3","low nameability","26","left","response","1"
"html-audio-button-response","131","218096","0.0-101.0-1.0","CKN_126","126","","","","","","null","stimuli/bleep.m4a","null","turquoise","neonyellow","[""turquoise"",""neonyellow"",""low nameability""]","left-right","[""turquoise"",""neonyellow"",""low nameability""]","3","low nameability","26","left","audio_feedback","1"
"html-button-response","132","218617","0.0-102.0","CKN_126","126","","","","","","null","<button class=""jspsych-btn""><img src=""stimuli/white_square.png"" style=""width: 200px;height: 200px;""></button>","null","turquoise","neonyellow","[""turquoise"",""neonyellow"",""low nameability""]","left-right","[""turquoise"",""neonyellow"",""low nameability""]","3","low nameability","26","left","iti",""
"html-button-response","133","219986","0.0-103.0","CKN_126","126","","","","","","1356","","0","turquoise","darkgreenblue","[""turquoise"",""darkgreenblue"",""low nameability""]","left-right","[""turquoise"",""darkgreenblue"",""low nameability""]","3","low nameability","27","left","trigger",""
"html-button-response","134","221042","0.0-104.0-0.0","CKN_126","126","","","","","","1049","<button class=""jspsych-btn""><img src=""stimuli/turquoise.png"" style=""width: 200px;height: 200px;""></button>","0","turquoise","darkgreenblue","[""turquoise"",""darkgreenblue"",""low nameability""]","left-right","[""turquoise"",""darkgreenblue"",""low nameability""]","3","low nameability","27","left","response","1"
"html-audio-button-response","135","221246","0.0-104.0-1.0","CKN_126","126","","","","","","null","stimuli/bleep.m4a","null","turquoise","darkgreenblue","[""turquoise"",""darkgreenblue"",""low nameability""]","left-right","[""turquoise"",""darkgreenblue"",""low nameability""]","3","low nameability","27","left","audio_feedback","1"
"html-button-response","136","221773","0.0-105.0","CKN_126","126","","","","","","null","<button class=""jspsych-btn""><img src=""stimuli/white_square.png"" style=""width: 200px;height: 200px;""></button>","null","turquoise","darkgreenblue","[""turquoise"",""darkgreenblue"",""low nameability""]","left-right","[""turquoise"",""darkgreenblue"",""low nameability""]","3","low nameability","27","left","iti",""
"html-button-response","137","223804","0.0-106.0","CKN_126","126","","","","","","2018","","0","mustard","turquoise","[""mustard"",""turquoise"",""low nameability""]","left-right","[""mustard"",""turquoise"",""low nameability""]","3","low nameability","28","left","trigger",""
"html-button-response","138","225191","0.0-107.0-0.0","CKN_126","126","","","","","","1380","<button class=""jspsych-btn""><img src=""stimuli/mustard.png"" style=""width: 200px;height: 200px;""></button>","0","mustard","turquoise","[""mustard"",""turquoise"",""low nameability""]","left-right","[""mustard"",""turquoise"",""low nameability""]","3","low nameability","28","left","response","1"
"html-audio-button-response","139","225398","0.0-107.0-1.0","CKN_126","126","","","","","","null","stimuli/bleep.m4a","null","mustard","turquoise","[""mustard"",""turquoise"",""low nameability""]","left-right","[""mustard"",""turquoise"",""low nameability""]","3","low nameability","28","left","audio_feedback","1"
"html-button-response","140","225930","0.0-108.0","CKN_126","126","","","","","","null","<button class=""jspsych-btn""><img src=""stimuli/white_square.png"" style=""width: 200px;height: 200px;""></button>","null","mustard","turquoise","[""mustard"",""turquoise"",""low nameability""]","left-right","[""mustard"",""turquoise"",""low nameability""]","3","low nameability","28","left","iti",""
"html-button-response","141","232305","0.0-109.0","CKN_126","126","","","","","","6361","","0","purple","brown","[""purple"",""brown"",""high nameability""]","right-left","[""brown"",""purple""]","3","high nameability","29","right","trigger",""
"html-button-response","142","233582","0.0-110.0-0.0","CKN_126","126","","","","","","1271","<button class=""jspsych-btn""><img src=""stimuli/purple.png"" style=""width: 200px;height: 200px;""></button>","1","purple","brown","[""purple"",""brown"",""high nameability""]","right-left","[""brown"",""purple""]","3","high nameability","29","right","response","1"
"html-audio-button-response","143","233782","0.0-110.0-1.0","CKN_126","126","","","","","","null","stimuli/bleep.m4a","null","purple","brown","[""purple"",""brown"",""high nameability""]","right-left","[""brown"",""purple""]","3","high nameability","29","right","audio_feedback","1"
"html-button-response","144","234295","0.0-111.0","CKN_126","126","","","","","","null","<button class=""jspsych-btn""><img src=""stimuli/white_square.png"" style=""width: 200px;height: 200px;""></button>","null","purple","brown","[""purple"",""brown"",""high nameability""]","right-left","[""brown"",""purple""]","3","high nameability","29","right","iti",""
"html-button-response","145","238194","0.0-112.0","CKN_126","126","","","","","","3889","","0","purple","red","[""purple"",""red"",""high nameability""]","right-left","[""red"",""purple""]","3","high nameability","30","right","trigger",""
"html-button-response","146","239266","0.0-113.0-0.0","CKN_126","126","","","","","","1065","<button class=""jspsych-btn""><img src=""stimuli/purple.png"" style=""width: 200px;height: 200px;""></button>","1","purple","red","[""purple"",""red"",""high nameability""]","right-left","[""red"",""purple""]","3","high nameability","30","right","response","1"
"html-audio-button-response","147","239479","0.0-113.0-1.0","CKN_126","126","","","","","","null","stimuli/bleep.m4a","null","purple","red","[""purple"",""red"",""high nameability""]","right-left","[""red"",""purple""]","3","high nameability","30","right","audio_feedback","1"
"html-button-response","148","240014","0.0-114.0","CKN_126","126","","","","","","null","<button class=""jspsych-btn""><img src=""stimuli/white_square.png"" style=""width: 200px;height: 200px;""></button>","null","purple","red","[""purple"",""red"",""high nameability""]","right-left","[""red"",""purple""]","3","high nameability","30","right","iti",""
"pavlovia","149","240133","0.0-115.0","CKN_126","126","","","","","","","","","","","","","","","","","","",""
"pavlovia","150","240143","0.0-116.0","CKN_126","126","","","","","","","","","","","","","","","","","","",""
"html-audio-button-response","151","250025","0.0-117.0","CKN_126","126","","","","","","10008","stimuli/tada.m4a","0","","","","","","","","","","",""
"html-button-response","152","250505","0.0-118.0","CKN_126","126","","","","","","470","","0","","","","","","","","","","",""
"html-button-response","153","254525","0.0-119.0","CKN_126","126","","","","","","4010","","0","yellow","blue","[""yellow"",""blue"",""high nameability""]","left-right","[""yellow"",""blue"",""high nameability""]","4","high nameability","31","left","trigger",""
"html-button-response","154","255904","0.0-120.0-0.0","CKN_126","126","","","","","","1360","<button class=""jspsych-btn""><img src=""stimuli/yellow.png"" style=""width: 200px;height: 200px;""></button>","0","yellow","blue","[""yellow"",""blue"",""high nameability""]","left-right","[""yellow"",""blue"",""high nameability""]","4","high nameability","31","left","response","1"
"html-audio-button-response","155","256119","0.0-120.0-1.0","CKN_126","126","","","","","","null","stimuli/bleep.m4a","null","yellow","blue","[""yellow"",""blue"",""high nameability""]","left-right","[""yellow"",""blue"",""high nameability""]","4","high nameability","31","left","audio_feedback","1"
"html-button-response","156","256656","0.0-121.0","CKN_126","126","","","","","","null","<button class=""jspsych-btn""><img src=""stimuli/white_square.png"" style=""width: 200px;height: 200px;""></button>","null","yellow","blue","[""yellow"",""blue"",""high nameability""]","left-right","[""yellow"",""blue"",""high nameability""]","4","high nameability","31","left","iti",""
"html-button-response","157","259689","0.0-122.0","CKN_126","126","","","","","","3004","","0","turquoise","lightred","[""turquoise"",""lightred"",""low nameability""]","right-left","[""lightred"",""turquoise""]","4","low nameability","32","right","trigger",""
"html-button-response","158","272512","0.0-123.0-0.0","CKN_126","126","","","","","","12816","<button class=""jspsych-btn""><img src=""stimuli/turquoise.png"" style=""width: 200px;height: 200px;""></button>","1","turquoise","lightred","[""turquoise"",""lightred"",""low nameability""]","right-left","[""lightred"",""turquoise""]","4","low nameability","32","right","response","1"
"html-audio-button-response","159","272719","0.0-123.0-1.0","CKN_126","126","","","","","","null","stimuli/bleep.m4a","null","turquoise","lightred","[""turquoise"",""lightred"",""low nameability""]","right-left","[""lightred"",""turquoise""]","4","low nameability","32","right","audio_feedback","1"
"html-button-response","160","273234","0.0-124.0","CKN_126","126","","","","","","null","<button class=""jspsych-btn""><img src=""stimuli/white_square.png"" style=""width: 200px;height: 200px;""></button>","null","turquoise","lightred","[""turquoise"",""lightred"",""low nameability""]","right-left","[""lightred"",""turquoise""]","4","low nameability","32","right","iti",""
"html-button-response","161","274588","0.0-125.0","CKN_126","126","","","","","","1327","","0","orange","red","[""orange"",""red"",""high nameability""]","left-right","[""orange"",""red"",""high nameability""]","4","high nameability","33","left","trigger",""
"html-button-response","162","277659","0.0-126.0-0.0","CKN_126","126","","","","","","3056","<button class=""jspsych-btn""><img src=""stimuli/orange.png"" style=""width: 200px;height: 200px;""></button>","0","orange","red","[""orange"",""red"",""high nameability""]","left-right","[""orange"",""red"",""high nameability""]","4","high nameability","33","left","response","1"
"html-audio-button-response","163","277875","0.0-126.0-1.0","CKN_126","126","","","","","","null","stimuli/bleep.m4a","null","orange","red","[""orange"",""red"",""high nameability""]","left-right","[""orange"",""red"",""high nameability""]","4","high nameability","33","left","audio_feedback","1"
"html-button-response","164","278401","0.0-127.0","CKN_126","126","","","","","","null","<button class=""jspsych-btn""><img src=""stimuli/white_square.png"" style=""width: 200px;height: 200px;""></button>","null","orange","red","[""orange"",""red"",""high nameability""]","left-right","[""orange"",""red"",""high nameability""]","4","high nameability","33","left","iti",""
"html-button-response","165","279639","0.0-128.0","CKN_126","126","","","","","","1222","","0","mustard","pink","[""mustard"",""pink"",""low nameability""]","right-left","[""pink"",""mustard""]","4","low nameability","34","right","trigger",""
"html-button-response","166","281944","0.0-129.0-0.0","CKN_126","126","","","","","","2295","<button class=""jspsych-btn""><img src=""stimuli/mustard.png"" style=""width: 200px;height: 200px;""></button>","1","mustard","pink","[""mustard"",""pink"",""low nameability""]","right-left","[""pink"",""mustard""]","4","low nameability","34","right","response","1"
"html-audio-button-response","167","282151","0.0-129.0-1.0","CKN_126","126","","","","","","null","stimuli/bleep.m4a","null","mustard","pink","[""mustard"",""pink"",""low nameability""]","right-left","[""pink"",""mustard""]","4","low nameability","34","right","audio_feedback","1"
"html-button-response","168","282688","0.0-130.0","CKN_126","126","","","","","","null","<button class=""jspsych-btn""><img src=""stimuli/white_square.png"" style=""width: 200px;height: 200px;""></button>","null","mustard","pink","[""mustard"",""pink"",""low nameability""]","right-left","[""pink"",""mustard""]","4","low nameability","34","right","iti",""
"html-button-response","169","285669","0.0-131.0","CKN_126","126","","","","","","2955","","0","lightred","neonyellow","[""lightred"",""neonyellow"",""low nameability""]","right-left","[""neonyellow"",""lightred""]","4","low nameability","35","right","trigger",""
"html-button-response","170","288550","0.0-132.0-0.0","CKN_126","126","","","","","","2876","<button class=""jspsych-btn""><img src=""stimuli/lightred.png"" style=""width: 200px;height: 200px;""></button>","1","lightred","neonyellow","[""lightred"",""neonyellow"",""low nameability""]","right-left","[""neonyellow"",""lightred""]","4","low nameability","35","right","response","1"
"html-audio-button-response","171","288764","0.0-132.0-1.0","CKN_126","126","","","","","","null","stimuli/bleep.m4a","null","lightred","neonyellow","[""lightred"",""neonyellow"",""low nameability""]","right-left","[""neonyellow"",""lightred""]","4","low nameability","35","right","audio_feedback","1"
"html-button-response","172","289303","0.0-133.0","CKN_126","126","","","","","","null","<button class=""jspsych-btn""><img src=""stimuli/white_square.png"" style=""width: 200px;height: 200px;""></button>","null","lightred","neonyellow","[""lightred"",""neonyellow"",""low nameability""]","right-left","[""neonyellow"",""lightred""]","4","low nameability","35","right","iti",""
"html-button-response","173","295843","0.0-134.0","CKN_126","126","","","","","","6528","","0","yellow","purple","[""yellow"",""purple"",""high nameability""]","right-left","[""purple"",""yellow""]","4","high nameability","36","right","trigger",""
"html-button-response","174","297998","0.0-135.0-0.0","CKN_126","126","","","","","","2145","<button class=""jspsych-btn""><img src=""stimuli/yellow.png"" style=""width: 200px;height: 200px;""></button>","1","yellow","purple","[""yellow"",""purple"",""high nameability""]","right-left","[""purple"",""yellow""]","4","high nameability","36","right","response","1"
"html-audio-button-response","175","298207","0.0-135.0-1.0","CKN_126","126","","","","","","null","stimuli/bleep.m4a","null","yellow","purple","[""yellow"",""purple"",""high nameability""]","right-left","[""purple"",""yellow""]","4","high nameability","36","right","audio_feedback","1"
"html-button-response","176","298728","0.0-136.0","CKN_126","126","","","","","","null","<button class=""jspsych-btn""><img src=""stimuli/white_square.png"" style=""width: 200px;height: 200px;""></button>","null","yellow","purple","[""yellow"",""purple"",""high nameability""]","right-left","[""purple"",""yellow""]","4","high nameability","36","right","iti",""
"html-button-response","177","300002","0.0-137.0","CKN_126","126","","","","","","1262","","0","pink","turquoise","[""pink"",""turquoise"",""low nameability""]","left-right","[""pink"",""turquoise"",""low nameability""]","4","low nameability","37","left","trigger",""
"html-button-response","178","303085","0.0-138.0-0.0","CKN_126","126","","","","","","3076","<button class=""jspsych-btn""><img src=""stimuli/pink.png"" style=""width: 200px;height: 200px;""></button>","0","pink","turquoise","[""pink"",""turquoise"",""low nameability""]","left-right","[""pink"",""turquoise"",""low nameability""]","4","low nameability","37","left","response","1"
"html-audio-button-response","179","303287","0.0-138.0-1.0","CKN_126","126","","","","","","null","stimuli/bleep.m4a","null","pink","turquoise","[""pink"",""turquoise"",""low nameability""]","left-right","[""pink"",""turquoise"",""low nameability""]","4","low nameability","37","left","audio_feedback","1"
"html-button-response","180","303811","0.0-139.0","CKN_126","126","","","","","","null","<button class=""jspsych-btn""><img src=""stimuli/white_square.png"" style=""width: 200px;height: 200px;""></button>","null","pink","turquoise","[""pink"",""turquoise"",""low nameability""]","left-right","[""pink"",""turquoise"",""low nameability""]","4","low nameability","37","left","iti",""
"html-button-response","181","305853","0.0-140.0","CKN_126","126","","","","","","2007","","0","pink","neonyellow","[""pink"",""neonyellow"",""low nameability""]","right-left","[""neonyellow"",""pink""]","4","low nameability","38","right","trigger",""
"html-button-response","182","306951","0.0-141.0-0.0","CKN_126","126","","","","","","1091","<button class=""jspsych-btn""><img src=""stimuli/pink.png"" style=""width: 200px;height: 200px;""></button>","1","pink","neonyellow","[""pink"",""neonyellow"",""low nameability""]","right-left","[""neonyellow"",""pink""]","4","low nameability","38","right","response","1"
"html-audio-button-response","183","307159","0.0-141.0-1.0","CKN_126","126","","","","","","null","stimuli/bleep.m4a","null","pink","neonyellow","[""pink"",""neonyellow"",""low nameability""]","right-left","[""neonyellow"",""pink""]","4","low nameability","38","right","audio_feedback","1"
"html-button-response","184","307679","0.0-142.0","CKN_126","126","","","","","","null","<button class=""jspsych-btn""><img src=""stimuli/white_square.png"" style=""width: 200px;height: 200px;""></button>","null","pink","neonyellow","[""pink"",""neonyellow"",""low nameability""]","right-left","[""neonyellow"",""pink""]","4","low nameability","38","right","iti",""
"html-button-response","185","310076","0.0-143.0","CKN_126","126","","","","","","2380","","0","red","purple","[""red"",""purple"",""high nameability""]","right-left","[""purple"",""red""]","4","high nameability","39","right","trigger",""
"html-button-response","186","311346","0.0-144.0-0.0","CKN_126","126","","","","","","1262","<button class=""jspsych-btn""><img src=""stimuli/red.png"" style=""width: 200px;height: 200px;""></button>","1","red","purple","[""red"",""purple"",""high nameability""]","right-left","[""purple"",""red""]","4","high nameability","39","right","response","1"
"html-audio-button-response","187","311551","0.0-144.0-1.0","CKN_126","126","","","","","","null","stimuli/bleep.m4a","null","red","purple","[""red"",""purple"",""high nameability""]","right-left","[""purple"",""red""]","4","high nameability","39","right","audio_feedback","1"
"html-button-response","188","312064","0.0-145.0","CKN_126","126","","","","","","null","<button class=""jspsych-btn""><img src=""stimuli/white_square.png"" style=""width: 200px;height: 200px;""></button>","null","red","purple","[""red"",""purple"",""high nameability""]","right-left","[""purple"",""red""]","4","high nameability","39","right","iti",""
"html-button-response","189","314844","0.0-146.0","CKN_126","126","","","","","","2762","","0","lightred","mustard","[""lightred"",""mustard"",""low nameability""]","right-left","[""mustard"",""lightred""]","4","low nameability","40","right","trigger",""
"html-button-response","190","315969","0.0-147.0-0.0","CKN_126","126","","","","","","1118","<button class=""jspsych-btn""><img src=""stimuli/lightred.png"" style=""width: 200px;height: 200px;""></button>","1","lightred","mustard","[""lightred"",""mustard"",""low nameability""]","right-left","[""mustard"",""lightred""]","4","low nameability","40","right","response","1"
"html-audio-button-response","191","316179","0.0-147.0-1.0","CKN_126","126","","","","","","null","stimuli/bleep.m4a","null","lightred","mustard","[""lightred"",""mustard"",""low nameability""]","right-left","[""mustard"",""lightred""]","4","low nameability","40","right","audio_feedback","1"
"html-button-response","192","316693","0.0-148.0","CKN_126","126","","","","","","null","<button class=""jspsych-btn""><img src=""stimuli/white_square.png"" style=""width: 200px;height: 200px;""></button>","null","lightred","mustard","[""lightred"",""mustard"",""low nameability""]","right-left","[""mustard"",""lightred""]","4","low nameability","40","right","iti",""
"pavlovia","193","316798","0.0-149.0","CKN_126","126","","","","","","","","","","","","","","","","","","",""
"pavlovia","194","316812","0.0-150.0","CKN_126","126","","","","","","","","","","","","","","","","","","",""
"html-audio-button-response","195","320771","0.0-151.0","CKN_126","126","","","","","","4077","stimuli/tada.m4a","0","","","","","","","","","","",""
"html-button-response","196","321194","0.0-152.0","CKN_126","126","","","","","","417","","0","","","","","","","","","","",""
"html-button-response","197","322481","0.0-153.0","CKN_126","126","","","","","","1281","","0","blue","yellow","[""blue"",""yellow"",""high nameability""]","left-right","[""blue"",""yellow"",""high nameability""]","5","high nameability","41","left","trigger",""
"html-button-response","198","324772","0.0-154.0-0.0","CKN_126","126","","","","","","2281","<button class=""jspsych-btn""><img src=""stimuli/blue.png"" style=""width: 200px;height: 200px;""></button>","0","blue","yellow","[""blue"",""yellow"",""high nameability""]","left-right","[""blue"",""yellow"",""high nameability""]","5","high nameability","41","left","response","1"
"html-audio-button-response","199","324983","0.0-154.0-1.0","CKN_126","126","","","","","","null","stimuli/bleep.m4a","null","blue","yellow","[""blue"",""yellow"",""high nameability""]","left-right","[""blue"",""yellow"",""high nameability""]","5","high nameability","41","left","audio_feedback","1"
"html-button-response","200","325502","0.0-155.0","CKN_126","126","","","","","","null","<button class=""jspsych-btn""><img src=""stimuli/white_square.png"" style=""width: 200px;height: 200px;""></button>","null","blue","yellow","[""blue"",""yellow"",""high nameability""]","left-right","[""blue"",""yellow"",""high nameability""]","5","high nameability","41","left","iti",""
"html-button-response","201","329257","0.0-156.0","CKN_126","126","","","","","","3738","","0","pink","mustard","[""pink"",""mustard"",""low nameability""]","right-left","[""mustard"",""pink""]","5","low nameability","42","right","trigger",""
"html-button-response","202","331286","0.0-157.0-0.0","CKN_126","126","","","","","","2021","<button class=""jspsych-btn""><img src=""stimuli/pink.png"" style=""width: 200px;height: 200px;""></button>","1","pink","mustard","[""pink"",""mustard"",""low nameability""]","right-left","[""mustard"",""pink""]","5","low nameability","42","right","response","1"
"html-audio-button-response","203","331493","0.0-157.0-1.0","CKN_126","126","","","","","","null","stimuli/bleep.m4a","null","pink","mustard","[""pink"",""mustard"",""low nameability""]","right-left","[""mustard"",""pink""]","5","low nameability","42","right","audio_feedback","1"
"html-button-response","204","332004","0.0-158.0","CKN_126","126","","","","","","null","<button class=""jspsych-btn""><img src=""stimuli/white_square.png"" style=""width: 200px;height: 200px;""></button>","null","pink","mustard","[""pink"",""mustard"",""low nameability""]","right-left","[""mustard"",""pink""]","5","low nameability","42","right","iti",""
"html-button-response","205","333422","0.0-159.0","CKN_126","126","","","","","","1411","","0","neonyellow","lightred","[""neonyellow"",""lightred"",""low nameability""]","left-right","[""neonyellow"",""lightred"",""low nameability""]","5","low nameability","43","left","trigger",""
"html-button-response","206","334848","0.0-160.0-0.0","CKN_126","126","","","","","","1418","<button class=""jspsych-btn""><img src=""stimuli/neonyellow.png"" style=""width: 200px;height: 200px;""></button>","0","neonyellow","lightred","[""neonyellow"",""lightred"",""low nameability""]","left-right","[""neonyellow"",""lightred"",""low nameability""]","5","low nameability","43","left","response","1"
"html-audio-button-response","207","335054","0.0-160.0-1.0","CKN_126","126","","","","","","null","stimuli/bleep.m4a","null","neonyellow","lightred","[""neonyellow"",""lightred"",""low nameability""]","left-right","[""neonyellow"",""lightred"",""low nameability""]","5","low nameability","43","left","audio_feedback","1"
"html-button-response","208","335585","0.0-161.0","CKN_126","126","","","","","","null","<button class=""jspsych-btn""><img src=""stimuli/white_square.png"" style=""width: 200px;height: 200px;""></button>","null","neonyellow","lightred","[""neonyellow"",""lightred"",""low nameability""]","left-right","[""neonyellow"",""lightred"",""low nameability""]","5","low nameability","43","left","iti",""
"html-button-response","209","345046","0.0-162.0","CKN_126","126","","","","","","9447","","0","neonyellow","pink","[""neonyellow"",""pink"",""low nameability""]","left-right","[""neonyellow"",""pink"",""low nameability""]","5","low nameability","44","left","trigger",""
"html-button-response","210","347913","0.0-163.0-0.0","CKN_126","126","","","","","","2861","<button class=""jspsych-btn""><img src=""stimuli/neonyellow.png"" style=""width: 200px;height: 200px;""></button>","0","neonyellow","pink","[""neonyellow"",""pink"",""low nameability""]","left-right","[""neonyellow"",""pink"",""low nameability""]","5","low nameability","44","left","response","1"
"html-audio-button-response","211","348119","0.0-163.0-1.0","CKN_126","126","","","","","","null","stimuli/bleep.m4a","null","neonyellow","pink","[""neonyellow"",""pink"",""low nameability""]","left-right","[""neonyellow"",""pink"",""low nameability""]","5","low nameability","44","left","audio_feedback","1"
"html-button-response","212","348646","0.0-164.0","CKN_126","126","","","","","","null","<button class=""jspsych-btn""><img src=""stimuli/white_square.png"" style=""width: 200px;height: 200px;""></button>","null","neonyellow","pink","[""neonyellow"",""pink"",""low nameability""]","left-right","[""neonyellow"",""pink"",""low nameability""]","5","low nameability","44","left","iti",""
"html-button-response","213","360414","0.0-165.0","CKN_126","126","","","","","","11753","","0","red","blue","[""red"",""blue"",""high nameability""]","left-right","[""red"",""blue"",""high nameability""]","5","high nameability","45","left","trigger",""
"html-button-response","214","362055","0.0-166.0-0.0","CKN_126","126","","","","","","1634","<button class=""jspsych-btn""><img src=""stimuli/red.png"" style=""width: 200px;height: 200px;""></button>","0","red","blue","[""red"",""blue"",""high nameability""]","left-right","[""red"",""blue"",""high nameability""]","5","high nameability","45","left","response","1"
"html-audio-button-response","215","362270","0.0-166.0-1.0","CKN_126","126","","","","","","null","stimuli/bleep.m4a","null","red","blue","[""red"",""blue"",""high nameability""]","left-right","[""red"",""blue"",""high nameability""]","5","high nameability","45","left","audio_feedback","1"
"html-button-response","216","362787","0.0-167.0","CKN_126","126","","","","","","null","<button class=""jspsych-btn""><img src=""stimuli/white_square.png"" style=""width: 200px;height: 200px;""></button>","null","red","blue","[""red"",""blue"",""high nameability""]","left-right","[""red"",""blue"",""high nameability""]","5","high nameability","45","left","iti",""
"html-button-response","217","369782","0.0-168.0","CKN_126","126","","","","","","6980","","0","brown","red","[""brown"",""red"",""high nameability""]","right-left","[""red"",""brown""]","5","high nameability","46","right","trigger",""
"html-button-response","218","370992","0.0-169.0-0.0","CKN_126","126","","","","","","1203","<button class=""jspsych-btn""><img src=""stimuli/brown.png"" style=""width: 200px;height: 200px;""></button>","1","brown","red","[""brown"",""red"",""high nameability""]","right-left","[""red"",""brown""]","5","high nameability","46","right","response","1"
"html-audio-button-response","219","371206","0.0-169.0-1.0","CKN_126","126","","","","","","null","stimuli/bleep.m4a","null","brown","red","[""brown"",""red"",""high nameability""]","right-left","[""red"",""brown""]","5","high nameability","46","right","audio_feedback","1"
"html-button-response","220","371726","0.0-170.0","CKN_126","126","","","","","","null","<button class=""jspsych-btn""><img src=""stimuli/white_square.png"" style=""width: 200px;height: 200px;""></button>","null","brown","red","[""brown"",""red"",""high nameability""]","right-left","[""red"",""brown""]","5","high nameability","46","right","iti",""
"html-button-response","221","373721","0.0-171.0","CKN_126","126","","","","","","1978","","0","red","yellow","[""red"",""yellow"",""high nameability""]","right-left","[""yellow"",""red""]","5","high nameability","47","right","trigger",""
"html-button-response","222","375362","0.0-172.0-0.0","CKN_126","126","","","","","","1634","<button class=""jspsych-btn""><img src=""stimuli/red.png"" style=""width: 200px;height: 200px;""></button>","1","red","yellow","[""red"",""yellow"",""high nameability""]","right-left","[""yellow"",""red""]","5","high nameability","47","right","response","1"
"html-audio-button-response","223","375567","0.0-172.0-1.0","CKN_126","126","","","","","","null","stimuli/bleep.m4a","null","red","yellow","[""red"",""yellow"",""high nameability""]","right-left","[""yellow"",""red""]","5","high nameability","47","right","audio_feedback","1"
"html-button-response","224","376086","0.0-173.0","CKN_126","126","","","","","","null","<button class=""jspsych-btn""><img src=""stimuli/white_square.png"" style=""width: 200px;height: 200px;""></button>","null","red","yellow","[""red"",""yellow"",""high nameability""]","right-left","[""yellow"",""red""]","5","high nameability","47","right","iti",""
"html-button-response","225","382861","0.0-174.0","CKN_126","126","","","","","","6760","","0","blue","brown","[""blue"",""brown"",""high nameability""]","right-left","[""brown"",""blue""]","5","high nameability","48","right","trigger",""
"html-button-response","226","384015","0.0-175.0-0.0","CKN_126","126","","","","","","1148","<button class=""jspsych-btn""><img src=""stimuli/blue.png"" style=""width: 200px;height: 200px;""></button>","1","blue","brown","[""blue"",""brown"",""high nameability""]","right-left","[""brown"",""blue""]","5","high nameability","48","right","response","1"
"html-audio-button-response","227","384233","0.0-175.0-1.0","CKN_126","126","","","","","","null","stimuli/bleep.m4a","null","blue","brown","[""blue"",""brown"",""high nameability""]","right-left","[""brown"",""blue""]","5","high nameability","48","right","audio_feedback","1"
"html-button-response","228","384752","0.0-176.0","CKN_126","126","","","","","","null","<button class=""jspsych-btn""><img src=""stimuli/white_square.png"" style=""width: 200px;height: 200px;""></button>","null","blue","brown","[""blue"",""brown"",""high nameability""]","right-left","[""brown"",""blue""]","5","high nameability","48","right","iti",""
"html-button-response","229","385712","0.0-177.0","CKN_126","126","","","","","","947","","0","darkgreenblue","lightred","[""darkgreenblue"",""lightred"",""low nameability""]","right-left","[""lightred"",""darkgreenblue""]","5","low nameability","49","right","trigger",""
"html-button-response","230","386812","0.0-178.0-0.0","CKN_126","126","","","","","","1093","<button class=""jspsych-btn""><img src=""stimuli/darkgreenblue.png"" style=""width: 200px;height: 200px;""></button>","1","darkgreenblue","lightred","[""darkgreenblue"",""lightred"",""low nameability""]","right-left","[""lightred"",""darkgreenblue""]","5","low nameability","49","right","response","1"
"html-audio-button-response","231","387016","0.0-178.0-1.0","CKN_126","126","","","","","","null","stimuli/bleep.m4a","null","darkgreenblue","lightred","[""darkgreenblue"",""lightred"",""low nameability""]","right-left","[""lightred"",""darkgreenblue""]","5","low nameability","49","right","audio_feedback","1"
"html-button-response","232","387533","0.0-179.0","CKN_126","126","","","","","","null","<button class=""jspsych-btn""><img src=""stimuli/white_square.png"" style=""width: 200px;height: 200px;""></button>","null","darkgreenblue","lightred","[""darkgreenblue"",""lightred"",""low nameability""]","right-left","[""lightred"",""darkgreenblue""]","5","low nameability","49","right","iti",""
"html-button-response","233","399037","0.0-180.0","CKN_126","126","","","","","","11490","","0","brown","orange","[""brown"",""orange"",""high nameability""]","right-left","[""orange"",""brown""]","5","high nameability","50","right","trigger",""
"html-button-response","234","407415","0.0-181.0-0.0","CKN_126","126","","","","","","8372","<button class=""jspsych-btn""><img src=""stimuli/brown.png"" style=""width: 200px;height: 200px;""></button>","1","brown","orange","[""brown"",""orange"",""high nameability""]","right-left","[""orange"",""brown""]","5","high nameability","50","right","response","1"
"html-audio-button-response","235","407623","0.0-181.0-1.0","CKN_126","126","","","","","","null","stimuli/bleep.m4a","null","brown","orange","[""brown"",""orange"",""high nameability""]","right-left","[""orange"",""brown""]","5","high nameability","50","right","audio_feedback","1"
"html-button-response","236","408139","0.0-182.0","CKN_126","126","","","","","","null","<button class=""jspsych-btn""><img src=""stimuli/white_square.png"" style=""width: 200px;height: 200px;""></button>","null","brown","orange","[""brown"",""orange"",""high nameability""]","right-left","[""orange"",""brown""]","5","high nameability","50","right","iti",""
"pavlovia","237","408231","0.0-183.0","CKN_126","126","","","","","","","","","","","","","","","","","","",""
"pavlovia","238","408239","0.0-184.0","CKN_126","126","","","","","","","","","","","","","","","","","","",""
"html-audio-button-response","239","412107","0.0-185.0","CKN_126","126","","","","","","3965","stimuli/tada.m4a","0","","","","","","","","","","",""
"html-button-response","240","412558","0.0-186.0","CKN_126","126","","","","","","446","","0","","","","","","","","","","",""
"html-button-response","241","413939","0.0-187.0","CKN_126","126","","","","","","1377","","0","purple","yellow","[""purple"",""yellow"",""high nameability""]","left-right","[""purple"",""yellow"",""high nameability""]","6","high nameability","51","left","trigger",""
"html-button-response","242","415041","0.0-188.0-0.0","CKN_126","126","","","","","","1094","<button class=""jspsych-btn""><img src=""stimuli/purple.png"" style=""width: 200px;height: 200px;""></button>","0","purple","yellow","[""purple"",""yellow"",""high nameability""]","left-right","[""purple"",""yellow"",""high nameability""]","6","high nameability","51","left","response","1"
"html-audio-button-response","243","415248","0.0-188.0-1.0","CKN_126","126","","","","","","null","stimuli/bleep.m4a","null","purple","yellow","[""purple"",""yellow"",""high nameability""]","left-right","[""purple"",""yellow"",""high nameability""]","6","high nameability","51","left","audio_feedback","1"
"html-button-response","244","415767","0.0-189.0","CKN_126","126","","","","","","null","<button class=""jspsych-btn""><img src=""stimuli/white_square.png"" style=""width: 200px;height: 200px;""></button>","null","purple","yellow","[""purple"",""yellow"",""high nameability""]","left-right","[""purple"",""yellow"",""high nameability""]","6","high nameability","51","left","iti",""
"html-button-response","245","417429","0.0-190.0","CKN_126","126","","","","","","1642","","0","orange","yellow","[""orange"",""yellow"",""high nameability""]","left-right","[""orange"",""yellow"",""high nameability""]","6","high nameability","52","left","trigger",""
"html-button-response","246","418472","0.0-191.0-0.0","CKN_126","126","","","","","","1039","<button class=""jspsych-btn""><img src=""stimuli/orange.png"" style=""width: 200px;height: 200px;""></button>","0","orange","yellow","[""orange"",""yellow"",""high nameability""]","left-right","[""orange"",""yellow"",""high nameability""]","6","high nameability","52","left","response","1"
"html-audio-button-response","247","418677","0.0-191.0-1.0","CKN_126","126","","","","","","null","stimuli/bleep.m4a","null","orange","yellow","[""orange"",""yellow"",""high nameability""]","left-right","[""orange"",""yellow"",""high nameability""]","6","high nameability","52","left","audio_feedback","1"
"html-button-response","248","419192","0.0-192.0","CKN_126","126","","","","","","null","<button class=""jspsych-btn""><img src=""stimuli/white_square.png"" style=""width: 200px;height: 200px;""></button>","null","orange","yellow","[""orange"",""yellow"",""high nameability""]","left-right","[""orange"",""yellow"",""high nameability""]","6","high nameability","52","left","iti",""
"html-button-response","249","423681","0.0-193.0","CKN_126","126","","","","","","4478","","0","darkgreenblue","mustard","[""darkgreenblue"",""mustard"",""low nameability""]","left-right","[""darkgreenblue"",""mustard"",""low nameability""]","6","low nameability","53","left","trigger",""
"html-button-response","250","432827","0.0-194.0-0.0","CKN_126","126","","","","","","9139","<button class=""jspsych-btn""><img src=""stimuli/darkgreenblue.png"" style=""width: 200px;height: 200px;""></button>","0","darkgreenblue","mustard","[""darkgreenblue"",""mustard"",""low nameability""]","left-right","[""darkgreenblue"",""mustard"",""low nameability""]","6","low nameability","53","left","response","1"
"html-audio-button-response","251","433029","0.0-194.0-1.0","CKN_126","126","","","","","","null","stimuli/bleep.m4a","null","darkgreenblue","mustard","[""darkgreenblue"",""mustard"",""low nameability""]","left-right","[""darkgreenblue"",""mustard"",""low nameability""]","6","low nameability","53","left","audio_feedback","1"
"html-button-response","252","433541","0.0-195.0","CKN_126","126","","","","","","null","<button class=""jspsych-btn""><img src=""stimuli/white_square.png"" style=""width: 200px;height: 200px;""></button>","null","darkgreenblue","mustard","[""darkgreenblue"",""mustard"",""low nameability""]","left-right","[""darkgreenblue"",""mustard"",""low nameability""]","6","low nameability","53","left","iti",""
"html-button-response","253","435725","0.0-196.0","CKN_126","126","","","","","","2171","","0","pink","darkgreenblue","[""pink"",""darkgreenblue"",""low nameability""]","right-left","[""darkgreenblue"",""pink""]","6","low nameability","54","right","trigger",""
"html-button-response","254","437021","0.0-197.0-0.0","CKN_126","126","","","","","","1288","<button class=""jspsych-btn""><img src=""stimuli/pink.png"" style=""width: 200px;height: 200px;""></button>","1","pink","darkgreenblue","[""pink"",""darkgreenblue"",""low nameability""]","right-left","[""darkgreenblue"",""pink""]","6","low nameability","54","right","response","1"
"html-audio-button-response","255","437237","0.0-197.0-1.0","CKN_126","126","","","","","","null","stimuli/bleep.m4a","null","pink","darkgreenblue","[""pink"",""darkgreenblue"",""low nameability""]","right-left","[""darkgreenblue"",""pink""]","6","low nameability","54","right","audio_feedback","1"
"html-button-response","256","437757","0.0-198.0","CKN_126","126","","","","","","null","<button class=""jspsych-btn""><img src=""stimuli/white_square.png"" style=""width: 200px;height: 200px;""></button>","null","pink","darkgreenblue","[""pink"",""darkgreenblue"",""low nameability""]","right-left","[""darkgreenblue"",""pink""]","6","low nameability","54","right","iti",""
"html-button-response","257","438928","0.0-199.0","CKN_126","126","","","","","","1157","","0","red","brown","[""red"",""brown"",""high nameability""]","right-left","[""brown"",""red""]","6","high nameability","55","right","trigger",""
"html-button-response","258","440872","0.0-200.0-0.0","CKN_126","126","","","","","","1938","<button class=""jspsych-btn""><img src=""stimuli/red.png"" style=""width: 200px;height: 200px;""></button>","1","red","brown","[""red"",""brown"",""high nameability""]","right-left","[""brown"",""red""]","6","high nameability","55","right","response","1"
"html-audio-button-response","259","441078","0.0-200.0-1.0","CKN_126","126","","","","","","null","stimuli/bleep.m4a","null","red","brown","[""red"",""brown"",""high nameability""]","right-left","[""brown"",""red""]","6","high nameability","55","right","audio_feedback","1"
"html-button-response","260","441607","0.0-201.0","CKN_126","126","","","","","","null","<button class=""jspsych-btn""><img src=""stimuli/white_square.png"" style=""width: 200px;height: 200px;""></button>","null","red","brown","[""red"",""brown"",""high nameability""]","right-left","[""brown"",""red""]","6","high nameability","55","right","iti",""
"html-button-response","261","443996","0.0-202.0","CKN_126","126","","","","","","2376","","0","neonyellow","turquoise","[""neonyellow"",""turquoise"",""low nameability""]","left-right","[""neonyellow"",""turquoise"",""low nameability""]","6","low nameability","56","left","trigger",""
"html-button-response","262","447543","0.0-203.0-0.0","CKN_126","126","","","","","","3537","<button class=""jspsych-btn""><img src=""stimuli/neonyellow.png"" style=""width: 200px;height: 200px;""></button>","0","neonyellow","turquoise","[""neonyellow"",""turquoise"",""low nameability""]","left-right","[""neonyellow"",""turquoise"",""low nameability""]","6","low nameability","56","left","response","1"
"html-audio-button-response","263","447755","0.0-203.0-1.0","CKN_126","126","","","","","","null","stimuli/bleep.m4a","null","neonyellow","turquoise","[""neonyellow"",""turquoise"",""low nameability""]","left-right","[""neonyellow"",""turquoise"",""low nameability""]","6","low nameability","56","left","audio_feedback","1"
"html-button-response","264","448278","0.0-204.0","CKN_126","126","","","","","","null","<button class=""jspsych-btn""><img src=""stimuli/white_square.png"" style=""width: 200px;height: 200px;""></button>","null","neonyellow","turquoise","[""neonyellow"",""turquoise"",""low nameability""]","left-right","[""neonyellow"",""turquoise"",""low nameability""]","6","low nameability","56","left","iti",""
"html-button-response","265","451051","0.0-205.0","CKN_126","126","","","","","","2765","","0","blue","purple","[""blue"",""purple"",""high nameability""]","right-left","[""purple"",""blue""]","6","high nameability","57","right","trigger",""
"html-button-response","266","452283","0.0-206.0-0.0","CKN_126","126","","","","","","1226","<button class=""jspsych-btn""><img src=""stimuli/blue.png"" style=""width: 200px;height: 200px;""></button>","1","blue","purple","[""blue"",""purple"",""high nameability""]","right-left","[""purple"",""blue""]","6","high nameability","57","right","response","1"
"html-audio-button-response","267","452491","0.0-206.0-1.0","CKN_126","126","","","","","","null","stimuli/bleep.m4a","null","blue","purple","[""blue"",""purple"",""high nameability""]","right-left","[""purple"",""blue""]","6","high nameability","57","right","audio_feedback","1"
"html-button-response","268","453014","0.0-207.0","CKN_126","126","","","","","","null","<button class=""jspsych-btn""><img src=""stimuli/white_square.png"" style=""width: 200px;height: 200px;""></button>","null","blue","purple","[""blue"",""purple"",""high nameability""]","right-left","[""purple"",""blue""]","6","high nameability","57","right","iti",""
"html-button-response","269","455936","0.0-208.0","CKN_126","126","","","","","","2903","","0","blue","orange","[""blue"",""orange"",""high nameability""]","left-right","[""blue"",""orange"",""high nameability""]","6","high nameability","58","left","trigger",""
"html-button-response","270","457761","0.0-209.0-0.0","CKN_126","126","","","","","","1816","<button class=""jspsych-btn""><img src=""stimuli/blue.png"" style=""width: 200px;height: 200px;""></button>","0","blue","orange","[""blue"",""orange"",""high nameability""]","left-right","[""blue"",""orange"",""high nameability""]","6","high nameability","58","left","response","1"
"html-audio-button-response","271","457966","0.0-209.0-1.0","CKN_126","126","","","","","","null","stimuli/bleep.m4a","null","blue","orange","[""blue"",""orange"",""high nameability""]","left-right","[""blue"",""orange"",""high nameability""]","6","high nameability","58","left","audio_feedback","1"
"html-button-response","272","458479","0.0-210.0","CKN_126","126","","","","","","null","<button class=""jspsych-btn""><img src=""stimuli/white_square.png"" style=""width: 200px;height: 200px;""></button>","null","blue","orange","[""blue"",""orange"",""high nameability""]","left-right","[""blue"",""orange"",""high nameability""]","6","high nameability","58","left","iti",""
"html-button-response","273","459494","0.0-211.0","CKN_126","126","","","","","","999","","0","orange","brown","[""orange"",""brown"",""high nameability""]","left-right","[""orange"",""brown"",""high nameability""]","6","high nameability","59","left","trigger",""
"html-button-response","274","460597","0.0-212.0-0.0","CKN_126","126","","","","","","1097","<button class=""jspsych-btn""><img src=""stimuli/orange.png"" style=""width: 200px;height: 200px;""></button>","0","orange","brown","[""orange"",""brown"",""high nameability""]","left-right","[""orange"",""brown"",""high nameability""]","6","high nameability","59","left","response","1"
"html-audio-button-response","275","460806","0.0-212.0-1.0","CKN_126","126","","","","","","null","stimuli/bleep.m4a","null","orange","brown","[""orange"",""brown"",""high nameability""]","left-right","[""orange"",""brown"",""high nameability""]","6","high nameability","59","left","audio_feedback","1"
"html-button-response","276","461327","0.0-213.0","CKN_126","126","","","","","","null","<button class=""jspsych-btn""><img src=""stimuli/white_square.png"" style=""width: 200px;height: 200px;""></button>","null","orange","brown","[""orange"",""brown"",""high nameability""]","left-right","[""orange"",""brown"",""high nameability""]","6","high nameability","59","left","iti",""
"html-button-response","277","463177","0.0-214.0","CKN_126","126","","","","","","1836","","0","yellow","orange","[""yellow"",""orange"",""high nameability""]","left-right","[""yellow"",""orange"",""high nameability""]","6","high nameability","60","left","trigger",""
"html-button-response","278","465171","0.0-215.0-0.0","CKN_126","126","","","","","","1986","<button class=""jspsych-btn""><img src=""stimuli/yellow.png"" style=""width: 200px;height: 200px;""></button>","0","yellow","orange","[""yellow"",""orange"",""high nameability""]","left-right","[""yellow"",""orange"",""high nameability""]","6","high nameability","60","left","response","1"
"html-audio-button-response","279","465375","0.0-215.0-1.0","CKN_126","126","","","","","","null","stimuli/bleep.m4a","null","yellow","orange","[""yellow"",""orange"",""high nameability""]","left-right","[""yellow"",""orange"",""high nameability""]","6","high nameability","60","left","audio_feedback","1"
"html-button-response","280","465889","0.0-216.0","CKN_126","126","","","","","","null","<button class=""jspsych-btn""><img src=""stimuli/white_square.png"" style=""width: 200px;height: 200px;""></button>","null","yellow","orange","[""yellow"",""orange"",""high nameability""]","left-right","[""yellow"",""orange"",""high nameability""]","6","high nameability","60","left","iti",""
