"trial_type","trial_index","time_elapsed","internal_node_id","subject_id","seed","success","timeout","failed_images","failed_audio","failed_video","rt","stimulus","response","target","foil","choices","combination_order","choices_in_order","round","condition","trial_counter","target_location","trial_kind","correct"
"pavlovia","0","17","0.0-0.0","CKN_105","105","","","","","","","","","","","","","","","","","","",""
"preload","1","1162","0.0-1.0","CKN_105","105","true","false","[]","[]","[]","","","","","","","","","","","","","",""
"fullscreen","2","4300","0.0-2.0","CKN_105","105","true","","","","","","","","","","","","","","","","","",""
"html-button-response","3","22937","0.0-3.0","CKN_105","105","","","","","","18616","","0","","","","","","","","","","",""
"html-button-response","4","28402","0.0-4.0","CKN_105","105","","","","","","5454","","0","star","square","[""square"",""star""]","left-right","[""square"",""star""]","1","practice","1","right","trigger",""
"html-button-response","5","31651","0.0-5.0-0.0","CKN_105","105","","","","","","3239","<button class=""jspsych-btn""><img src=""stimuli/star.png"" style=""width: 200px;height: 200px;""></button>","1","star","square","[""square"",""star""]","left-right","[""square"",""star""]","1","practice","1","right","response","1"
"html-audio-button-response","6","31871","0.0-5.0-1.0","CKN_105","105","","","","","","null","stimuli/bleep.m4a","null","star","square","[""square"",""star""]","left-right","[""square"",""star""]","1","practice","1","right","audio_feedback","1"
"html-button-response","7","32389","0.0-6.0","CKN_105","105","","","","","","null","<button class=""jspsych-btn""><img src=""stimuli/white_square.png"" style=""width: 200px;height: 200px;""></button>","null","star","square","[""square"",""star""]","left-right","[""square"",""star""]","1","practice","1","right","iti",""
"html-button-response","8","35845","0.0-7.0","CKN_105","105","","","","","","3436","","0","triangle","pentagram","[""triangle"",""pentagram""]","left-right","[""triangle"",""pentagram""]","1","practice","1","left","trigger",""
"html-button-response","9","40161","0.0-8.0-0.0","CKN_105","105","","","","","","4307","<button class=""jspsych-btn""><img src=""stimuli/triangle.png"" style=""width: 200px;height: 200px;""></button>","0","triangle","pentagram","[""triangle"",""pentagram""]","left-right","[""triangle"",""pentagram""]","1","practice","1","left","response","1"
"html-audio-button-response","10","40367","0.0-8.0-1.0","CKN_105","105","","","","","","null","stimuli/bleep.m4a","null","triangle","pentagram","[""triangle"",""pentagram""]","left-right","[""triangle"",""pentagram""]","1","practice","1","left","audio_feedback","1"
"html-button-response","11","40883","0.0-9.0","CKN_105","105","","","","","","null","<button class=""jspsych-btn""><img src=""stimuli/white_square.png"" style=""width: 200px;height: 200px;""></button>","null","triangle","pentagram","[""triangle"",""pentagram""]","left-right","[""triangle"",""pentagram""]","1","practice","1","left","iti",""
"html-button-response","12","42420","0.0-10.0","CKN_105","105","","","","","","1522","","0","diamond","rectangle","[""rectangle"",""diamond""]","left-right","[""rectangle"",""diamond""]","1","practice","1","right","trigger",""
"html-button-response","13","44066","0.0-11.0-0.0","CKN_105","105","","","","","","1637","<button class=""jspsych-btn""><img src=""stimuli/diamond.png"" style=""width: 200px;height: 200px;""></button>","1","diamond","rectangle","[""rectangle"",""diamond""]","left-right","[""rectangle"",""diamond""]","1","practice","1","right","response","1"
"html-audio-button-response","14","44276","0.0-11.0-1.0","CKN_105","105","","","","","","null","stimuli/bleep.m4a","null","diamond","rectangle","[""rectangle"",""diamond""]","left-right","[""rectangle"",""diamond""]","1","practice","1","right","audio_feedback","1"
"html-button-response","15","44798","0.0-12.0","CKN_105","105","","","","","","null","<button class=""jspsych-btn""><img src=""stimuli/white_square.png"" style=""width: 200px;height: 200px;""></button>","null","diamond","rectangle","[""rectangle"",""diamond""]","left-right","[""rectangle"",""diamond""]","1","practice","1","right","iti",""
"html-button-response","16","46512","0.0-13.0","CKN_105","105","","","","","","1697","","0","pentagram","star","[""pentagram"",""star""]","left-right","[""pentagram"",""star""]","1","practice","1","left","trigger",""
"html-button-response","17","47977","0.0-14.0-0.0","CKN_105","105","","","","","","1457","<button class=""jspsych-btn""><img src=""stimuli/pentagram.png"" style=""width: 200px;height: 200px;""></button>","0","pentagram","star","[""pentagram"",""star""]","left-right","[""pentagram"",""star""]","1","practice","1","left","response","1"
"html-audio-button-response","18","48189","0.0-14.0-1.0","CKN_105","105","","","","","","null","stimuli/bleep.m4a","null","pentagram","star","[""pentagram"",""star""]","left-right","[""pentagram"",""star""]","1","practice","1","left","audio_feedback","1"
"html-button-response","19","48704","0.0-15.0","CKN_105","105","","","","","","null","<button class=""jspsych-btn""><img src=""stimuli/white_square.png"" style=""width: 200px;height: 200px;""></button>","null","pentagram","star","[""pentagram"",""star""]","left-right","[""pentagram"",""star""]","1","practice","1","left","iti",""
"html-button-response","20","55866","0.0-16.0","CKN_105","105","","","","","","7155","","0","","","","","","","","","","",""
"html-button-response","21","57934","0.0-17.0","CKN_105","105","","","","","","2062","","0","turquoise","lightred","[""turquoise"",""lightred"",""low nameability""]","left-right","[""turquoise"",""lightred"",""low nameability""]","1","low nameability","1","left","trigger",""
"html-button-response","22","60028","0.0-18.0-0.0","CKN_105","105","","","","","","2085","<button class=""jspsych-btn""><img src=""stimuli/turquoise.png"" style=""width: 200px;height: 200px;""></button>","0","turquoise","lightred","[""turquoise"",""lightred"",""low nameability""]","left-right","[""turquoise"",""lightred"",""low nameability""]","1","low nameability","1","left","response","1"
"html-audio-button-response","23","60231","0.0-18.0-1.0","CKN_105","105","","","","","","null","stimuli/bleep.m4a","null","turquoise","lightred","[""turquoise"",""lightred"",""low nameability""]","left-right","[""turquoise"",""lightred"",""low nameability""]","1","low nameability","1","left","audio_feedback","1"
"html-button-response","24","60753","0.0-19.0","CKN_105","105","","","","","","null","<button class=""jspsych-btn""><img src=""stimuli/white_square.png"" style=""width: 200px;height: 200px;""></button>","null","turquoise","lightred","[""turquoise"",""lightred"",""low nameability""]","left-right","[""turquoise"",""lightred"",""low nameability""]","1","low nameability","1","left","iti",""
"html-button-response","25","62033","0.0-20.0","CKN_105","105","","","","","","1263","","0","turquoise","neonyellow","[""turquoise"",""neonyellow"",""low nameability""]","right-left","[""neonyellow"",""turquoise""]","1","low nameability","2","right","trigger",""
"html-button-response","26","64065","0.0-21.0-0.0","CKN_105","105","","","","","","2022","<button class=""jspsych-btn""><img src=""stimuli/turquoise.png"" style=""width: 200px;height: 200px;""></button>","1","turquoise","neonyellow","[""turquoise"",""neonyellow"",""low nameability""]","right-left","[""neonyellow"",""turquoise""]","1","low nameability","2","right","response","1"
"html-audio-button-response","27","64268","0.0-21.0-1.0","CKN_105","105","","","","","","null","stimuli/bleep.m4a","null","turquoise","neonyellow","[""turquoise"",""neonyellow"",""low nameability""]","right-left","[""neonyellow"",""turquoise""]","1","low nameability","2","right","audio_feedback","1"
"html-button-response","28","64784","0.0-22.0","CKN_105","105","","","","","","null","<button class=""jspsych-btn""><img src=""stimuli/white_square.png"" style=""width: 200px;height: 200px;""></button>","null","turquoise","neonyellow","[""turquoise"",""neonyellow"",""low nameability""]","right-left","[""neonyellow"",""turquoise""]","1","low nameability","2","right","iti",""
"html-button-response","29","65900","0.0-23.0","CKN_105","105","","","","","","1100","","0","brown","red","[""brown"",""red"",""high nameability""]","left-right","[""brown"",""red"",""high nameability""]","1","high nameability","3","left","trigger",""
"html-button-response","30","67324","0.0-24.0-0.0","CKN_105","105","","","","","","1414","<button class=""jspsych-btn""><img src=""stimuli/brown.png"" style=""width: 200px;height: 200px;""></button>","0","brown","red","[""brown"",""red"",""high nameability""]","left-right","[""brown"",""red"",""high nameability""]","1","high nameability","3","left","response","1"
"html-audio-button-response","31","67528","0.0-24.0-1.0","CKN_105","105","","","","","","null","stimuli/bleep.m4a","null","brown","red","[""brown"",""red"",""high nameability""]","left-right","[""brown"",""red"",""high nameability""]","1","high nameability","3","left","audio_feedback","1"
"html-button-response","32","68045","0.0-25.0","CKN_105","105","","","","","","null","<button class=""jspsych-btn""><img src=""stimuli/white_square.png"" style=""width: 200px;height: 200px;""></button>","null","brown","red","[""brown"",""red"",""high nameability""]","left-right","[""brown"",""red"",""high nameability""]","1","high nameability","3","left","iti",""
"html-button-response","33","69463","0.0-26.0","CKN_105","105","","","","","","1405","","0","lightred","darkgreenblue","[""lightred"",""darkgreenblue"",""low nameability""]","right-left","[""darkgreenblue"",""lightred""]","1","low nameability","4","right","trigger",""
"html-button-response","34","71128","0.0-27.0-0.0","CKN_105","105","","","","","","1656","<button class=""jspsych-btn""><img src=""stimuli/lightred.png"" style=""width: 200px;height: 200px;""></button>","1","lightred","darkgreenblue","[""lightred"",""darkgreenblue"",""low nameability""]","right-left","[""darkgreenblue"",""lightred""]","1","low nameability","4","right","response","1"
"html-audio-button-response","35","71334","0.0-27.0-1.0","CKN_105","105","","","","","","null","stimuli/bleep.m4a","null","lightred","darkgreenblue","[""lightred"",""darkgreenblue"",""low nameability""]","right-left","[""darkgreenblue"",""lightred""]","1","low nameability","4","right","audio_feedback","1"
"html-button-response","36","71854","0.0-28.0","CKN_105","105","","","","","","null","<button class=""jspsych-btn""><img src=""stimuli/white_square.png"" style=""width: 200px;height: 200px;""></button>","null","lightred","darkgreenblue","[""lightred"",""darkgreenblue"",""low nameability""]","right-left","[""darkgreenblue"",""lightred""]","1","low nameability","4","right","iti",""
"html-button-response","37","73071","0.0-29.0","CKN_105","105","","","","","","1200","","0","orange","blue","[""orange"",""blue"",""high nameability""]","left-right","[""orange"",""blue"",""high nameability""]","1","high nameability","5","left","trigger",""
"html-button-response","38","74162","0.0-30.0-0.0","CKN_105","105","","","","","","1079","<button class=""jspsych-btn""><img src=""stimuli/orange.png"" style=""width: 200px;height: 200px;""></button>","0","orange","blue","[""orange"",""blue"",""high nameability""]","left-right","[""orange"",""blue"",""high nameability""]","1","high nameability","5","left","response","1"
"html-audio-button-response","39","74362","0.0-30.0-1.0","CKN_105","105","","","","","","null","stimuli/bleep.m4a","null","orange","blue","[""orange"",""blue"",""high nameability""]","left-right","[""orange"",""blue"",""high nameability""]","1","high nameability","5","left","audio_feedback","1"
"html-button-response","40","74874","0.0-31.0","CKN_105","105","","","","","","null","<button class=""jspsych-btn""><img src=""stimuli/white_square.png"" style=""width: 200px;height: 200px;""></button>","null","orange","blue","[""orange"",""blue"",""high nameability""]","left-right","[""orange"",""blue"",""high nameability""]","1","high nameability","5","left","iti",""
"html-button-response","41","75980","0.0-32.0","CKN_105","105","","","","","","1095","","0","orange","red","[""orange"",""red"",""high nameability""]","right-left","[""red"",""orange""]","1","high nameability","6","right","trigger",""
"html-button-response","42","77166","0.0-33.0-0.0","CKN_105","105","","","","","","1181","<button class=""jspsych-btn""><img src=""stimuli/orange.png"" style=""width: 200px;height: 200px;""></button>","1","orange","red","[""orange"",""red"",""high nameability""]","right-left","[""red"",""orange""]","1","high nameability","6","right","response","1"
"html-audio-button-response","43","77375","0.0-33.0-1.0","CKN_105","105","","","","","","null","stimuli/bleep.m4a","null","orange","red","[""orange"",""red"",""high nameability""]","right-left","[""red"",""orange""]","1","high nameability","6","right","audio_feedback","1"
"html-button-response","44","77894","0.0-34.0","CKN_105","105","","","","","","null","<button class=""jspsych-btn""><img src=""stimuli/white_square.png"" style=""width: 200px;height: 200px;""></button>","null","orange","red","[""orange"",""red"",""high nameability""]","right-left","[""red"",""orange""]","1","high nameability","6","right","iti",""
"html-button-response","45","79066","0.0-35.0","CKN_105","105","","","","","","1158","","0","blue","brown","[""blue"",""brown"",""high nameability""]","left-right","[""blue"",""brown"",""high nameability""]","1","high nameability","7","left","trigger",""
"html-button-response","46","80157","0.0-36.0-0.0","CKN_105","105","","","","","","1085","<button class=""jspsych-btn""><img src=""stimuli/blue.png"" style=""width: 200px;height: 200px;""></button>","0","blue","brown","[""blue"",""brown"",""high nameability""]","left-right","[""blue"",""brown"",""high nameability""]","1","high nameability","7","left","response","1"
"html-audio-button-response","47","80363","0.0-36.0-1.0","CKN_105","105","","","","","","null","stimuli/bleep.m4a","null","blue","brown","[""blue"",""brown"",""high nameability""]","left-right","[""blue"",""brown"",""high nameability""]","1","high nameability","7","left","audio_feedback","1"
"html-button-response","48","80882","0.0-37.0","CKN_105","105","","","","","","null","<button class=""jspsych-btn""><img src=""stimuli/white_square.png"" style=""width: 200px;height: 200px;""></button>","null","blue","brown","[""blue"",""brown"",""high nameability""]","left-right","[""blue"",""brown"",""high nameability""]","1","high nameability","7","left","iti",""
"html-button-response","49","82335","0.0-38.0","CKN_105","105","","","","","","1443","","0","lightred","turquoise","[""lightred"",""turquoise"",""low nameability""]","right-left","[""turquoise"",""lightred""]","1","low nameability","8","right","trigger",""
"html-button-response","50","83557","0.0-39.0-0.0","CKN_105","105","","","","","","1214","<button class=""jspsych-btn""><img src=""stimuli/lightred.png"" style=""width: 200px;height: 200px;""></button>","1","lightred","turquoise","[""lightred"",""turquoise"",""low nameability""]","right-left","[""turquoise"",""lightred""]","1","low nameability","8","right","response","1"
"html-audio-button-response","51","83759","0.0-39.0-1.0","CKN_105","105","","","","","","null","stimuli/bleep.m4a","null","lightred","turquoise","[""lightred"",""turquoise"",""low nameability""]","right-left","[""turquoise"",""lightred""]","1","low nameability","8","right","audio_feedback","1"
"html-button-response","52","84280","0.0-40.0","CKN_105","105","","","","","","null","<button class=""jspsych-btn""><img src=""stimuli/white_square.png"" style=""width: 200px;height: 200px;""></button>","null","lightred","turquoise","[""lightred"",""turquoise"",""low nameability""]","right-left","[""turquoise"",""lightred""]","1","low nameability","8","right","iti",""
"html-button-response","53","86103","0.0-41.0","CKN_105","105","","","","","","1813","","0","neonyellow","darkgreenblue","[""neonyellow"",""darkgreenblue"",""low nameability""]","left-right","[""neonyellow"",""darkgreenblue"",""low nameability""]","1","low nameability","9","left","trigger",""
"html-button-response","54","87269","0.0-42.0-0.0","CKN_105","105","","","","","","1157","<button class=""jspsych-btn""><img src=""stimuli/neonyellow.png"" style=""width: 200px;height: 200px;""></button>","0","neonyellow","darkgreenblue","[""neonyellow"",""darkgreenblue"",""low nameability""]","left-right","[""neonyellow"",""darkgreenblue"",""low nameability""]","1","low nameability","9","left","response","1"
"html-audio-button-response","55","87475","0.0-42.0-1.0","CKN_105","105","","","","","","null","stimuli/bleep.m4a","null","neonyellow","darkgreenblue","[""neonyellow"",""darkgreenblue"",""low nameability""]","left-right","[""neonyellow"",""darkgreenblue"",""low nameability""]","1","low nameability","9","left","audio_feedback","1"
"html-button-response","56","87993","0.0-43.0","CKN_105","105","","","","","","null","<button class=""jspsych-btn""><img src=""stimuli/white_square.png"" style=""width: 200px;height: 200px;""></button>","null","neonyellow","darkgreenblue","[""neonyellow"",""darkgreenblue"",""low nameability""]","left-right","[""neonyellow"",""darkgreenblue"",""low nameability""]","1","low nameability","9","left","iti",""
"html-button-response","57","89236","0.0-44.0","CKN_105","105","","","","","","1227","","0","neonyellow","mustard","[""neonyellow"",""mustard"",""low nameability""]","left-right","[""neonyellow"",""mustard"",""low nameability""]","1","low nameability","10","left","trigger",""
"html-button-response","58","90710","0.0-45.0-0.0","CKN_105","105","","","","","","1466","<button class=""jspsych-btn""><img src=""stimuli/neonyellow.png"" style=""width: 200px;height: 200px;""></button>","0","neonyellow","mustard","[""neonyellow"",""mustard"",""low nameability""]","left-right","[""neonyellow"",""mustard"",""low nameability""]","1","low nameability","10","left","response","1"
"html-audio-button-response","59","90917","0.0-45.0-1.0","CKN_105","105","","","","","","null","stimuli/bleep.m4a","null","neonyellow","mustard","[""neonyellow"",""mustard"",""low nameability""]","left-right","[""neonyellow"",""mustard"",""low nameability""]","1","low nameability","10","left","audio_feedback","1"
"html-button-response","60","91433","0.0-46.0","CKN_105","105","","","","","","null","<button class=""jspsych-btn""><img src=""stimuli/white_square.png"" style=""width: 200px;height: 200px;""></button>","null","neonyellow","mustard","[""neonyellow"",""mustard"",""low nameability""]","left-right","[""neonyellow"",""mustard"",""low nameability""]","1","low nameability","10","left","iti",""
"pavlovia","61","91527","0.0-47.0","CKN_105","105","","","","","","","","","","","","","","","","","","",""
"pavlovia","62","91536","0.0-48.0","CKN_105","105","","","","","","","","","","","","","","","","","","",""
"html-audio-button-response","63","97343","0.0-49.0","CKN_105","105","","","","","","5893","stimuli/tada.m4a","0","","","","","","","","","","",""
"html-button-response","64","98003","0.0-50.0","CKN_105","105","","","","","","652","","0","","","","","","","","","","",""
"html-button-response","65","99340","0.0-51.0","CKN_105","105","","","","","","1327","","0","turquoise","pink","[""turquoise"",""pink"",""low nameability""]","right-left","[""pink"",""turquoise""]","2","low nameability","11","right","trigger",""
"html-button-response","66","100612","0.0-52.0-0.0","CKN_105","105","","","","","","1265","<button class=""jspsych-btn""><img src=""stimuli/turquoise.png"" style=""width: 200px;height: 200px;""></button>","1","turquoise","pink","[""turquoise"",""pink"",""low nameability""]","right-left","[""pink"",""turquoise""]","2","low nameability","11","right","response","1"
"html-audio-button-response","67","100818","0.0-52.0-1.0","CKN_105","105","","","","","","null","stimuli/bleep.m4a","null","turquoise","pink","[""turquoise"",""pink"",""low nameability""]","right-left","[""pink"",""turquoise""]","2","low nameability","11","right","audio_feedback","1"
"html-button-response","68","101334","0.0-53.0","CKN_105","105","","","","","","null","<button class=""jspsych-btn""><img src=""stimuli/white_square.png"" style=""width: 200px;height: 200px;""></button>","null","turquoise","pink","[""turquoise"",""pink"",""low nameability""]","right-left","[""pink"",""turquoise""]","2","low nameability","11","right","iti",""
"html-button-response","69","103117","0.0-54.0","CKN_105","105","","","","","","1773","","0","pink","lightred","[""pink"",""lightred"",""low nameability""]","right-left","[""lightred"",""pink""]","2","low nameability","12","right","trigger",""
"html-button-response","70","104436","0.0-55.0-0.0","CKN_105","105","","","","","","1310","<button class=""jspsych-btn""><img src=""stimuli/pink.png"" style=""width: 200px;height: 200px;""></button>","1","pink","lightred","[""pink"",""lightred"",""low nameability""]","right-left","[""lightred"",""pink""]","2","low nameability","12","right","response","1"
"html-audio-button-response","71","104643","0.0-55.0-1.0","CKN_105","105","","","","","","null","stimuli/bleep.m4a","null","pink","lightred","[""pink"",""lightred"",""low nameability""]","right-left","[""lightred"",""pink""]","2","low nameability","12","right","audio_feedback","1"
"html-button-response","72","105156","0.0-56.0","CKN_105","105","","","","","","null","<button class=""jspsych-btn""><img src=""stimuli/white_square.png"" style=""width: 200px;height: 200px;""></button>","null","pink","lightred","[""pink"",""lightred"",""low nameability""]","right-left","[""lightred"",""pink""]","2","low nameability","12","right","iti",""
"html-button-response","73","106690","0.0-57.0","CKN_105","105","","","","","","1521","","0","darkgreenblue","lightred","[""darkgreenblue"",""lightred"",""low nameability""]","right-left","[""lightred"",""darkgreenblue""]","2","low nameability","13","right","trigger",""
"html-button-response","74","108005","0.0-58.0-0.0","CKN_105","105","","","","","","1307","<button class=""jspsych-btn""><img src=""stimuli/darkgreenblue.png"" style=""width: 200px;height: 200px;""></button>","1","darkgreenblue","lightred","[""darkgreenblue"",""lightred"",""low nameability""]","right-left","[""lightred"",""darkgreenblue""]","2","low nameability","13","right","response","1"
"html-audio-button-response","75","108208","0.0-58.0-1.0","CKN_105","105","","","","","","null","stimuli/bleep.m4a","null","darkgreenblue","lightred","[""darkgreenblue"",""lightred"",""low nameability""]","right-left","[""lightred"",""darkgreenblue""]","2","low nameability","13","right","audio_feedback","1"
"html-button-response","76","108722","0.0-59.0","CKN_105","105","","","","","","null","<button class=""jspsych-btn""><img src=""stimuli/white_square.png"" style=""width: 200px;height: 200px;""></button>","null","darkgreenblue","lightred","[""darkgreenblue"",""lightred"",""low nameability""]","right-left","[""lightred"",""darkgreenblue""]","2","low nameability","13","right","iti",""
"html-button-response","77","110025","0.0-60.0","CKN_105","105","","","","","","1292","","0","darkgreenblue","neonyellow","[""darkgreenblue"",""neonyellow"",""low nameability""]","left-right","[""darkgreenblue"",""neonyellow"",""low nameability""]","2","low nameability","14","left","trigger",""
"html-button-response","78","111311","0.0-61.0-0.0","CKN_105","105","","","","","","1277","<button class=""jspsych-btn""><img src=""stimuli/darkgreenblue.png"" style=""width: 200px;height: 200px;""></button>","0","darkgreenblue","neonyellow","[""darkgreenblue"",""neonyellow"",""low nameability""]","left-right","[""darkgreenblue"",""neonyellow"",""low nameability""]","2","low nameability","14","left","response","1"
"html-audio-button-response","79","111515","0.0-61.0-1.0","CKN_105","105","","","","","","null","stimuli/bleep.m4a","null","darkgreenblue","neonyellow","[""darkgreenblue"",""neonyellow"",""low nameability""]","left-right","[""darkgreenblue"",""neonyellow"",""low nameability""]","2","low nameability","14","left","audio_feedback","1"
"html-button-response","80","112027","0.0-62.0","CKN_105","105","","","","","","null","<button class=""jspsych-btn""><img src=""stimuli/white_square.png"" style=""width: 200px;height: 200px;""></button>","null","darkgreenblue","neonyellow","[""darkgreenblue"",""neonyellow"",""low nameability""]","left-right","[""darkgreenblue"",""neonyellow"",""low nameability""]","2","low nameability","14","left","iti",""
"html-button-response","81","113093","0.0-63.0","CKN_105","105","","","","","","1051","","0","red","yellow","[""red"",""yellow"",""high nameability""]","left-right","[""red"",""yellow"",""high nameability""]","2","high nameability","15","left","trigger",""
"html-button-response","82","114094","0.0-64.0-0.0","CKN_105","105","","","","","","995","<button class=""jspsych-btn""><img src=""stimuli/red.png"" style=""width: 200px;height: 200px;""></button>","0","red","yellow","[""red"",""yellow"",""high nameability""]","left-right","[""red"",""yellow"",""high nameability""]","2","high nameability","15","left","response","1"
"html-audio-button-response","83","114299","0.0-64.0-1.0","CKN_105","105","","","","","","null","stimuli/bleep.m4a","null","red","yellow","[""red"",""yellow"",""high nameability""]","left-right","[""red"",""yellow"",""high nameability""]","2","high nameability","15","left","audio_feedback","1"
"html-button-response","84","114819","0.0-65.0","CKN_105","105","","","","","","null","<button class=""jspsych-btn""><img src=""stimuli/white_square.png"" style=""width: 200px;height: 200px;""></button>","null","red","yellow","[""red"",""yellow"",""high nameability""]","left-right","[""red"",""yellow"",""high nameability""]","2","high nameability","15","left","iti",""
"html-button-response","85","115996","0.0-66.0","CKN_105","105","","","","","","1161","","0","red","purple","[""red"",""purple"",""high nameability""]","right-left","[""purple"",""red""]","2","high nameability","16","right","trigger",""
"html-button-response","86","117015","0.0-67.0-0.0","CKN_105","105","","","","","","1011","<button class=""jspsych-btn""><img src=""stimuli/red.png"" style=""width: 200px;height: 200px;""></button>","1","red","purple","[""red"",""purple"",""high nameability""]","right-left","[""purple"",""red""]","2","high nameability","16","right","response","1"
"html-audio-button-response","87","117217","0.0-67.0-1.0","CKN_105","105","","","","","","null","stimuli/bleep.m4a","null","red","purple","[""red"",""purple"",""high nameability""]","right-left","[""purple"",""red""]","2","high nameability","16","right","audio_feedback","1"
"html-button-response","88","117734","0.0-68.0","CKN_105","105","","","","","","null","<button class=""jspsych-btn""><img src=""stimuli/white_square.png"" style=""width: 200px;height: 200px;""></button>","null","red","purple","[""red"",""purple"",""high nameability""]","right-left","[""purple"",""red""]","2","high nameability","16","right","iti",""
"html-button-response","89","119222","0.0-69.0","CKN_105","105","","","","","","1469","","0","blue","yellow","[""blue"",""yellow"",""high nameability""]","right-left","[""yellow"",""blue""]","2","high nameability","17","right","trigger",""
"html-button-response","90","120268","0.0-70.0-0.0","CKN_105","105","","","","","","1036","<button class=""jspsych-btn""><img src=""stimuli/blue.png"" style=""width: 200px;height: 200px;""></button>","1","blue","yellow","[""blue"",""yellow"",""high nameability""]","right-left","[""yellow"",""blue""]","2","high nameability","17","right","response","1"
"html-audio-button-response","91","120470","0.0-70.0-1.0","CKN_105","105","","","","","","null","stimuli/bleep.m4a","null","blue","yellow","[""blue"",""yellow"",""high nameability""]","right-left","[""yellow"",""blue""]","2","high nameability","17","right","audio_feedback","1"
"html-button-response","92","120983","0.0-71.0","CKN_105","105","","","","","","null","<button class=""jspsych-btn""><img src=""stimuli/white_square.png"" style=""width: 200px;height: 200px;""></button>","null","blue","yellow","[""blue"",""yellow"",""high nameability""]","right-left","[""yellow"",""blue""]","2","high nameability","17","right","iti",""
"html-button-response","93","122178","0.0-72.0","CKN_105","105","","","","","","1180","","0","turquoise","darkgreenblue","[""turquoise"",""darkgreenblue"",""low nameability""]","right-left","[""darkgreenblue"",""turquoise""]","2","low nameability","18","right","trigger",""
"html-button-response","94","123146","0.0-73.0-0.0","CKN_105","105","","","","","","958","<button class=""jspsych-btn""><img src=""stimuli/turquoise.png"" style=""width: 200px;height: 200px;""></button>","1","turquoise","darkgreenblue","[""turquoise"",""darkgreenblue"",""low nameability""]","right-left","[""darkgreenblue"",""turquoise""]","2","low nameability","18","right","response","1"
"html-audio-button-response","95","123348","0.0-73.0-1.0","CKN_105","105","","","","","","null","stimuli/bleep.m4a","null","turquoise","darkgreenblue","[""turquoise"",""darkgreenblue"",""low nameability""]","right-left","[""darkgreenblue"",""turquoise""]","2","low nameability","18","right","audio_feedback","1"
"html-button-response","96","123867","0.0-74.0","CKN_105","105","","","","","","null","<button class=""jspsych-btn""><img src=""stimuli/white_square.png"" style=""width: 200px;height: 200px;""></button>","null","turquoise","darkgreenblue","[""turquoise"",""darkgreenblue"",""low nameability""]","right-left","[""darkgreenblue"",""turquoise""]","2","low nameability","18","right","iti",""
"html-button-response","97","124953","0.0-75.0","CKN_105","105","","","","","","1070","","0","yellow","orange","[""yellow"",""orange"",""high nameability""]","left-right","[""yellow"",""orange"",""high nameability""]","2","high nameability","19","left","trigger",""
"html-button-response","98","126355","0.0-76.0-0.0","CKN_105","105","","","","","","1395","<button class=""jspsych-btn""><img src=""stimuli/yellow.png"" style=""width: 200px;height: 200px;""></button>","0","yellow","orange","[""yellow"",""orange"",""high nameability""]","left-right","[""yellow"",""orange"",""high nameability""]","2","high nameability","19","left","response","1"
"html-audio-button-response","99","126559","0.0-76.0-1.0","CKN_105","105","","","","","","null","stimuli/bleep.m4a","null","yellow","orange","[""yellow"",""orange"",""high nameability""]","left-right","[""yellow"",""orange"",""high nameability""]","2","high nameability","19","left","audio_feedback","1"
"html-button-response","100","127070","0.0-77.0","CKN_105","105","","","","","","null","<button class=""jspsych-btn""><img src=""stimuli/white_square.png"" style=""width: 200px;height: 200px;""></button>","null","yellow","orange","[""yellow"",""orange"",""high nameability""]","left-right","[""yellow"",""orange"",""high nameability""]","2","high nameability","19","left","iti",""
"html-button-response","101","128997","0.0-78.0","CKN_105","105","","","","","","1917","","0","brown","purple","[""brown"",""purple"",""high nameability""]","left-right","[""brown"",""purple"",""high nameability""]","2","high nameability","20","left","trigger",""
"html-button-response","102","130026","0.0-79.0-0.0","CKN_105","105","","","","","","1020","<button class=""jspsych-btn""><img src=""stimuli/brown.png"" style=""width: 200px;height: 200px;""></button>","0","brown","purple","[""brown"",""purple"",""high nameability""]","left-right","[""brown"",""purple"",""high nameability""]","2","high nameability","20","left","response","1"
"html-audio-button-response","103","130228","0.0-79.0-1.0","CKN_105","105","","","","","","null","stimuli/bleep.m4a","null","brown","purple","[""brown"",""purple"",""high nameability""]","left-right","[""brown"",""purple"",""high nameability""]","2","high nameability","20","left","audio_feedback","1"
"html-button-response","104","130743","0.0-80.0","CKN_105","105","","","","","","null","<button class=""jspsych-btn""><img src=""stimuli/white_square.png"" style=""width: 200px;height: 200px;""></button>","null","brown","purple","[""brown"",""purple"",""high nameability""]","left-right","[""brown"",""purple"",""high nameability""]","2","high nameability","20","left","iti",""
"pavlovia","105","130798","0.0-81.0","CKN_105","105","","","","","","","","","","","","","","","","","","",""
"pavlovia","106","130806","0.0-82.0","CKN_105","105","","","","","","","","","","","","","","","","","","",""
"html-audio-button-response","107","135652","0.0-83.0","CKN_105","105","","","","","","4907","stimuli/tada.m4a","0","","","","","","","","","","",""
"html-button-response","108","139442","0.0-84.0","CKN_105","105","","","","","","3783","","0","","","","","","","","","","",""
"html-button-response","109","140803","0.0-85.0","CKN_105","105","","","","","","1352","","0","mustard","lightred","[""mustard"",""lightred"",""low nameability""]","right-left","[""lightred"",""mustard""]","3","low nameability","21","right","trigger",""
"html-button-response","110","142776","0.0-86.0-0.0","CKN_105","105","","","","","","1964","<button class=""jspsych-btn""><img src=""stimuli/mustard.png"" style=""width: 200px;height: 200px;""></button>","1","mustard","lightred","[""mustard"",""lightred"",""low nameability""]","right-left","[""lightred"",""mustard""]","3","low nameability","21","right","response","1"
"html-audio-button-response","111","142977","0.0-86.0-1.0","CKN_105","105","","","","","","null","stimuli/bleep.m4a","null","mustard","lightred","[""mustard"",""lightred"",""low nameability""]","right-left","[""lightred"",""mustard""]","3","low nameability","21","right","audio_feedback","1"
"html-button-response","112","143501","0.0-87.0","CKN_105","105","","","","","","null","<button class=""jspsych-btn""><img src=""stimuli/white_square.png"" style=""width: 200px;height: 200px;""></button>","null","mustard","lightred","[""mustard"",""lightred"",""low nameability""]","right-left","[""lightred"",""mustard""]","3","low nameability","21","right","iti",""
"html-button-response","113","144453","0.0-88.0","CKN_105","105","","","","","","936","","0","blue","red","[""blue"",""red"",""high nameability""]","right-left","[""red"",""blue""]","3","high nameability","22","right","trigger",""
"html-button-response","114","145871","0.0-89.0-0.0","CKN_105","105","","","","","","1411","<button class=""jspsych-btn""><img src=""stimuli/blue.png"" style=""width: 200px;height: 200px;""></button>","1","blue","red","[""blue"",""red"",""high nameability""]","right-left","[""red"",""blue""]","3","high nameability","22","right","response","1"
"html-audio-button-response","115","146076","0.0-89.0-1.0","CKN_105","105","","","","","","null","stimuli/bleep.m4a","null","blue","red","[""blue"",""red"",""high nameability""]","right-left","[""red"",""blue""]","3","high nameability","22","right","audio_feedback","1"
"html-button-response","116","146591","0.0-90.0","CKN_105","105","","","","","","null","<button class=""jspsych-btn""><img src=""stimuli/white_square.png"" style=""width: 200px;height: 200px;""></button>","null","blue","red","[""blue"",""red"",""high nameability""]","right-left","[""red"",""blue""]","3","high nameability","22","right","iti",""
"html-button-response","117","147791","0.0-91.0","CKN_105","105","","","","","","1185","","0","red","orange","[""red"",""orange"",""high nameability""]","left-right","[""red"",""orange"",""high nameability""]","3","high nameability","23","left","trigger",""
"html-button-response","118","150974","0.0-92.0-0.0","CKN_105","105","","","","","","3176","<button class=""jspsych-btn""><img src=""stimuli/red.png"" style=""width: 200px;height: 200px;""></button>","0","red","orange","[""red"",""orange"",""high nameability""]","left-right","[""red"",""orange"",""high nameability""]","3","high nameability","23","left","response","1"
"html-audio-button-response","119","151176","0.0-92.0-1.0","CKN_105","105","","","","","","null","stimuli/bleep.m4a","null","red","orange","[""red"",""orange"",""high nameability""]","left-right","[""red"",""orange"",""high nameability""]","3","high nameability","23","left","audio_feedback","1"
"html-button-response","120","151694","0.0-93.0","CKN_105","105","","","","","","null","<button class=""jspsych-btn""><img src=""stimuli/white_square.png"" style=""width: 200px;height: 200px;""></button>","null","red","orange","[""red"",""orange"",""high nameability""]","left-right","[""red"",""orange"",""high nameability""]","3","high nameability","23","left","iti",""
"html-button-response","121","154294","0.0-94.0","CKN_105","105","","","","","","2587","","0","pink","mustard","[""pink"",""mustard"",""low nameability""]","right-left","[""mustard"",""pink""]","3","low nameability","24","right","trigger",""
"html-button-response","122","155526","0.0-95.0-0.0","CKN_105","105","","","","","","1223","<button class=""jspsych-btn""><img src=""stimuli/pink.png"" style=""width: 200px;height: 200px;""></button>","1","pink","mustard","[""pink"",""mustard"",""low nameability""]","right-left","[""mustard"",""pink""]","3","low nameability","24","right","response","1"
"html-audio-button-response","123","155730","0.0-95.0-1.0","CKN_105","105","","","","","","null","stimuli/bleep.m4a","null","pink","mustard","[""pink"",""mustard"",""low nameability""]","right-left","[""mustard"",""pink""]","3","low nameability","24","right","audio_feedback","1"
"html-button-response","124","156244","0.0-96.0","CKN_105","105","","","","","","null","<button class=""jspsych-btn""><img src=""stimuli/white_square.png"" style=""width: 200px;height: 200px;""></button>","null","pink","mustard","[""pink"",""mustard"",""low nameability""]","right-left","[""mustard"",""pink""]","3","low nameability","24","right","iti",""
"html-button-response","125","157394","0.0-97.0","CKN_105","105","","","","","","1141","","0","darkgreenblue","mustard","[""darkgreenblue"",""mustard"",""low nameability""]","left-right","[""darkgreenblue"",""mustard"",""low nameability""]","3","low nameability","25","left","trigger",""
"html-button-response","126","158415","0.0-98.0-0.0","CKN_105","105","","","","","","1014","<button class=""jspsych-btn""><img src=""stimuli/darkgreenblue.png"" style=""width: 200px;height: 200px;""></button>","0","darkgreenblue","mustard","[""darkgreenblue"",""mustard"",""low nameability""]","left-right","[""darkgreenblue"",""mustard"",""low nameability""]","3","low nameability","25","left","response","1"
"html-audio-button-response","127","158620","0.0-98.0-1.0","CKN_105","105","","","","","","null","stimuli/bleep.m4a","null","darkgreenblue","mustard","[""darkgreenblue"",""mustard"",""low nameability""]","left-right","[""darkgreenblue"",""mustard"",""low nameability""]","3","low nameability","25","left","audio_feedback","1"
"html-button-response","128","159133","0.0-99.0","CKN_105","105","","","","","","null","<button class=""jspsych-btn""><img src=""stimuli/white_square.png"" style=""width: 200px;height: 200px;""></button>","null","darkgreenblue","mustard","[""darkgreenblue"",""mustard"",""low nameability""]","left-right","[""darkgreenblue"",""mustard"",""low nameability""]","3","low nameability","25","left","iti",""
"html-button-response","129","160286","0.0-100.0","CKN_105","105","","","","","","1141","","0","lightred","neonyellow","[""lightred"",""neonyellow"",""low nameability""]","right-left","[""neonyellow"",""lightred""]","3","low nameability","26","right","trigger",""
"html-button-response","130","161306","0.0-101.0-0.0","CKN_105","105","","","","","","1011","<button class=""jspsych-btn""><img src=""stimuli/lightred.png"" style=""width: 200px;height: 200px;""></button>","1","lightred","neonyellow","[""lightred"",""neonyellow"",""low nameability""]","right-left","[""neonyellow"",""lightred""]","3","low nameability","26","right","response","1"
"html-audio-button-response","131","161508","0.0-101.0-1.0","CKN_105","105","","","","","","null","stimuli/bleep.m4a","null","lightred","neonyellow","[""lightred"",""neonyellow"",""low nameability""]","right-left","[""neonyellow"",""lightred""]","3","low nameability","26","right","audio_feedback","1"
"html-button-response","132","162021","0.0-102.0","CKN_105","105","","","","","","null","<button class=""jspsych-btn""><img src=""stimuli/white_square.png"" style=""width: 200px;height: 200px;""></button>","null","lightred","neonyellow","[""lightred"",""neonyellow"",""low nameability""]","right-left","[""neonyellow"",""lightred""]","3","low nameability","26","right","iti",""
"html-button-response","133","163086","0.0-103.0","CKN_105","105","","","","","","1051","","0","brown","blue","[""brown"",""blue"",""high nameability""]","left-right","[""brown"",""blue"",""high nameability""]","3","high nameability","27","left","trigger",""
"html-button-response","134","164059","0.0-104.0-0.0","CKN_105","105","","","","","","964","<button class=""jspsych-btn""><img src=""stimuli/brown.png"" style=""width: 200px;height: 200px;""></button>","0","brown","blue","[""brown"",""blue"",""high nameability""]","left-right","[""brown"",""blue"",""high nameability""]","3","high nameability","27","left","response","1"
"html-audio-button-response","135","164264","0.0-104.0-1.0","CKN_105","105","","","","","","null","stimuli/bleep.m4a","null","brown","blue","[""brown"",""blue"",""high nameability""]","left-right","[""brown"",""blue"",""high nameability""]","3","high nameability","27","left","audio_feedback","1"
"html-button-response","136","164782","0.0-105.0","CKN_105","105","","","","","","null","<button class=""jspsych-btn""><img src=""stimuli/white_square.png"" style=""width: 200px;height: 200px;""></button>","null","brown","blue","[""brown"",""blue"",""high nameability""]","left-right","[""brown"",""blue"",""high nameability""]","3","high nameability","27","left","iti",""
"html-button-response","137","165871","0.0-106.0","CKN_105","105","","","","","","1070","","0","neonyellow","turquoise","[""neonyellow"",""turquoise"",""low nameability""]","left-right","[""neonyellow"",""turquoise"",""low nameability""]","3","low nameability","28","left","trigger",""
"html-button-response","138","166924","0.0-107.0-0.0","CKN_105","105","","","","","","1041","<button class=""jspsych-btn""><img src=""stimuli/neonyellow.png"" style=""width: 200px;height: 200px;""></button>","0","neonyellow","turquoise","[""neonyellow"",""turquoise"",""low nameability""]","left-right","[""neonyellow"",""turquoise"",""low nameability""]","3","low nameability","28","left","response","1"
"html-audio-button-response","139","167135","0.0-107.0-1.0","CKN_105","105","","","","","","null","stimuli/bleep.m4a","null","neonyellow","turquoise","[""neonyellow"",""turquoise"",""low nameability""]","left-right","[""neonyellow"",""turquoise"",""low nameability""]","3","low nameability","28","left","audio_feedback","1"
"html-button-response","140","167654","0.0-108.0","CKN_105","105","","","","","","null","<button class=""jspsych-btn""><img src=""stimuli/white_square.png"" style=""width: 200px;height: 200px;""></button>","null","neonyellow","turquoise","[""neonyellow"",""turquoise"",""low nameability""]","left-right","[""neonyellow"",""turquoise"",""low nameability""]","3","low nameability","28","left","iti",""
"html-button-response","141","168684","0.0-109.0","CKN_105","105","","","","","","1007","","0","purple","orange","[""purple"",""orange"",""high nameability""]","left-right","[""purple"",""orange"",""high nameability""]","3","high nameability","29","left","trigger",""
"html-button-response","142","169630","0.0-110.0-0.0","CKN_105","105","","","","","","935","<button class=""jspsych-btn""><img src=""stimuli/purple.png"" style=""width: 200px;height: 200px;""></button>","0","purple","orange","[""purple"",""orange"",""high nameability""]","left-right","[""purple"",""orange"",""high nameability""]","3","high nameability","29","left","response","1"
"html-audio-button-response","143","169837","0.0-110.0-1.0","CKN_105","105","","","","","","null","stimuli/bleep.m4a","null","purple","orange","[""purple"",""orange"",""high nameability""]","left-right","[""purple"",""orange"",""high nameability""]","3","high nameability","29","left","audio_feedback","1"
"html-button-response","144","170367","0.0-111.0","CKN_105","105","","","","","","null","<button class=""jspsych-btn""><img src=""stimuli/white_square.png"" style=""width: 200px;height: 200px;""></button>","null","purple","orange","[""purple"",""orange"",""high nameability""]","left-right","[""purple"",""orange"",""high nameability""]","3","high nameability","29","left","iti",""
"html-button-response","145","172051","0.0-112.0","CKN_105","105","","","","","","1664","","0","yellow","blue","[""yellow"",""blue"",""high nameability""]","left-right","[""yellow"",""blue"",""high nameability""]","3","high nameability","30","left","trigger",""
"html-button-response","146","175445","0.0-113.0-0.0","CKN_105","105","","","","","","3382","<button class=""jspsych-btn""><img src=""stimuli/yellow.png"" style=""width: 200px;height: 200px;""></button>","0","yellow","blue","[""yellow"",""blue"",""high nameability""]","left-right","[""yellow"",""blue"",""high nameability""]","3","high nameability","30","left","response","1"
"html-audio-button-response","147","175660","0.0-113.0-1.0","CKN_105","105","","","","","","null","stimuli/bleep.m4a","null","yellow","blue","[""yellow"",""blue"",""high nameability""]","left-right","[""yellow"",""blue"",""high nameability""]","3","high nameability","30","left","audio_feedback","1"
"html-button-response","148","176176","0.0-114.0","CKN_105","105","","","","","","null","<button class=""jspsych-btn""><img src=""stimuli/white_square.png"" style=""width: 200px;height: 200px;""></button>","null","yellow","blue","[""yellow"",""blue"",""high nameability""]","left-right","[""yellow"",""blue"",""high nameability""]","3","high nameability","30","left","iti",""
"pavlovia","149","176262","0.0-115.0","CKN_105","105","","","","","","","","","","","","","","","","","","",""
"pavlovia","150","176270","0.0-116.0","CKN_105","105","","","","","","","","","","","","","","","","","","",""
"html-audio-button-response","151","179405","0.0-117.0","CKN_105","105","","","","","","3216","stimuli/tada.m4a","0","","","","","","","","","","",""
"html-button-response","152","182106","0.0-118.0","CKN_105","105","","","","","","2691","","0","","","","","","","","","","",""
"html-button-response","153","184944","0.0-119.0","CKN_105","105","","","","","","2830","","0","pink","darkgreenblue","[""pink"",""darkgreenblue"",""low nameability""]","right-left","[""darkgreenblue"",""pink""]","4","low nameability","31","right","trigger",""
"html-button-response","154","186166","0.0-120.0-0.0","CKN_105","105","","","","","","1216","<button class=""jspsych-btn""><img src=""stimuli/pink.png"" style=""width: 200px;height: 200px;""></button>","1","pink","darkgreenblue","[""pink"",""darkgreenblue"",""low nameability""]","right-left","[""darkgreenblue"",""pink""]","4","low nameability","31","right","response","1"
"html-audio-button-response","155","186368","0.0-120.0-1.0","CKN_105","105","","","","","","null","stimuli/bleep.m4a","null","pink","darkgreenblue","[""pink"",""darkgreenblue"",""low nameability""]","right-left","[""darkgreenblue"",""pink""]","4","low nameability","31","right","audio_feedback","1"
"html-button-response","156","186881","0.0-121.0","CKN_105","105","","","","","","null","<button class=""jspsych-btn""><img src=""stimuli/white_square.png"" style=""width: 200px;height: 200px;""></button>","null","pink","darkgreenblue","[""pink"",""darkgreenblue"",""low nameability""]","right-left","[""darkgreenblue"",""pink""]","4","low nameability","31","right","iti",""
"html-button-response","157","187810","0.0-122.0","CKN_105","105","","","","","","919","","0","blue","orange","[""blue"",""orange"",""high nameability""]","left-right","[""blue"",""orange"",""high nameability""]","4","high nameability","32","left","trigger",""
"html-button-response","158","188800","0.0-123.0-0.0","CKN_105","105","","","","","","981","<button class=""jspsych-btn""><img src=""stimuli/blue.png"" style=""width: 200px;height: 200px;""></button>","0","blue","orange","[""blue"",""orange"",""high nameability""]","left-right","[""blue"",""orange"",""high nameability""]","4","high nameability","32","left","response","1"
"html-audio-button-response","159","189000","0.0-123.0-1.0","CKN_105","105","","","","","","null","stimuli/bleep.m4a","null","blue","orange","[""blue"",""orange"",""high nameability""]","left-right","[""blue"",""orange"",""high nameability""]","4","high nameability","32","left","audio_feedback","1"
"html-button-response","160","189520","0.0-124.0","CKN_105","105","","","","","","null","<button class=""jspsych-btn""><img src=""stimuli/white_square.png"" style=""width: 200px;height: 200px;""></button>","null","blue","orange","[""blue"",""orange"",""high nameability""]","left-right","[""blue"",""orange"",""high nameability""]","4","high nameability","32","left","iti",""
"html-button-response","161","190924","0.0-125.0","CKN_105","105","","","","","","1388","","0","red","blue","[""red"",""blue"",""high nameability""]","right-left","[""blue"",""red""]","4","high nameability","33","right","trigger",""
"html-button-response","162","192020","0.0-126.0-0.0","CKN_105","105","","","","","","1087","<button class=""jspsych-btn""><img src=""stimuli/red.png"" style=""width: 200px;height: 200px;""></button>","1","red","blue","[""red"",""blue"",""high nameability""]","right-left","[""blue"",""red""]","4","high nameability","33","right","response","1"
"html-audio-button-response","163","192224","0.0-126.0-1.0","CKN_105","105","","","","","","null","stimuli/bleep.m4a","null","red","blue","[""red"",""blue"",""high nameability""]","right-left","[""blue"",""red""]","4","high nameability","33","right","audio_feedback","1"
"html-button-response","164","192741","0.0-127.0","CKN_105","105","","","","","","null","<button class=""jspsych-btn""><img src=""stimuli/white_square.png"" style=""width: 200px;height: 200px;""></button>","null","red","blue","[""red"",""blue"",""high nameability""]","right-left","[""blue"",""red""]","4","high nameability","33","right","iti",""
"html-button-response","165","193625","0.0-128.0","CKN_105","105","","","","","","873","","0","orange","yellow","[""orange"",""yellow"",""high nameability""]","right-left","[""yellow"",""orange""]","4","high nameability","34","right","trigger",""
"html-button-response","166","194629","0.0-129.0-0.0","CKN_105","105","","","","","","996","<button class=""jspsych-btn""><img src=""stimuli/orange.png"" style=""width: 200px;height: 200px;""></button>","1","orange","yellow","[""orange"",""yellow"",""high nameability""]","right-left","[""yellow"",""orange""]","4","high nameability","34","right","response","1"
"html-audio-button-response","167","194831","0.0-129.0-1.0","CKN_105","105","","","","","","null","stimuli/bleep.m4a","null","orange","yellow","[""orange"",""yellow"",""high nameability""]","right-left","[""yellow"",""orange""]","4","high nameability","34","right","audio_feedback","1"
"html-button-response","168","195345","0.0-130.0","CKN_105","105","","","","","","null","<button class=""jspsych-btn""><img src=""stimuli/white_square.png"" style=""width: 200px;height: 200px;""></button>","null","orange","yellow","[""orange"",""yellow"",""high nameability""]","right-left","[""yellow"",""orange""]","4","high nameability","34","right","iti",""
"html-button-response","169","196630","0.0-131.0","CKN_105","105","","","","","","1270","","0","yellow","brown","[""yellow"",""brown"",""high nameability""]","left-right","[""yellow"",""brown"",""high nameability""]","4","high nameability","35","left","trigger",""
"html-button-response","170","197871","0.0-132.0-0.0","CKN_105","105","","","","","","1231","<button class=""jspsych-btn""><img src=""stimuli/yellow.png"" style=""width: 200px;height: 200px;""></button>","0","yellow","brown","[""yellow"",""brown"",""high nameability""]","left-right","[""yellow"",""brown"",""high nameability""]","4","high nameability","35","left","response","1"
"html-audio-button-response","171","198076","0.0-132.0-1.0","CKN_105","105","","","","","","null","stimuli/bleep.m4a","null","yellow","brown","[""yellow"",""brown"",""high nameability""]","left-right","[""yellow"",""brown"",""high nameability""]","4","high nameability","35","left","audio_feedback","1"
"html-button-response","172","198593","0.0-133.0","CKN_105","105","","","","","","null","<button class=""jspsych-btn""><img src=""stimuli/white_square.png"" style=""width: 200px;height: 200px;""></button>","null","yellow","brown","[""yellow"",""brown"",""high nameability""]","left-right","[""yellow"",""brown"",""high nameability""]","4","high nameability","35","left","iti",""
"html-button-response","173","200262","0.0-134.0","CKN_105","105","","","","","","1656","","0","orange","brown","[""orange"",""brown"",""high nameability""]","left-right","[""orange"",""brown"",""high nameability""]","4","high nameability","36","left","trigger",""
"html-button-response","174","201157","0.0-135.0-0.0","CKN_105","105","","","","","","886","<button class=""jspsych-btn""><img src=""stimuli/orange.png"" style=""width: 200px;height: 200px;""></button>","0","orange","brown","[""orange"",""brown"",""high nameability""]","left-right","[""orange"",""brown"",""high nameability""]","4","high nameability","36","left","response","1"
"html-audio-button-response","175","201364","0.0-135.0-1.0","CKN_105","105","","","","","","null","stimuli/bleep.m4a","null","orange","brown","[""orange"",""brown"",""high nameability""]","left-right","[""orange"",""brown"",""high nameability""]","4","high nameability","36","left","audio_feedback","1"
"html-button-response","176","201881","0.0-136.0","CKN_105","105","","","","","","null","<button class=""jspsych-btn""><img src=""stimuli/white_square.png"" style=""width: 200px;height: 200px;""></button>","null","orange","brown","[""orange"",""brown"",""high nameability""]","left-right","[""orange"",""brown"",""high nameability""]","4","high nameability","36","left","iti",""
"html-button-response","177","203051","0.0-137.0","CKN_105","105","","","","","","1156","","0","purple","red","[""purple"",""red"",""high nameability""]","left-right","[""purple"",""red"",""high nameability""]","4","high nameability","37","left","trigger",""
"html-button-response","178","203815","0.0-138.0-0.0","CKN_105","105","","","","","","756","<button class=""jspsych-btn""><img src=""stimuli/purple.png"" style=""width: 200px;height: 200px;""></button>","0","purple","red","[""purple"",""red"",""high nameability""]","left-right","[""purple"",""red"",""high nameability""]","4","high nameability","37","left","response","1"
"html-audio-button-response","179","204021","0.0-138.0-1.0","CKN_105","105","","","","","","null","stimuli/bleep.m4a","null","purple","red","[""purple"",""red"",""high nameability""]","left-right","[""purple"",""red"",""high nameability""]","4","high nameability","37","left","audio_feedback","1"
"html-button-response","180","204535","0.0-139.0","CKN_105","105","","","","","","null","<button class=""jspsych-btn""><img src=""stimuli/white_square.png"" style=""width: 200px;height: 200px;""></button>","null","purple","red","[""purple"",""red"",""high nameability""]","left-right","[""purple"",""red"",""high nameability""]","4","high nameability","37","left","iti",""
"html-button-response","181","205547","0.0-140.0","CKN_105","105","","","","","","1001","","0","purple","blue","[""purple"",""blue"",""high nameability""]","right-left","[""blue"",""purple""]","4","high nameability","38","right","trigger",""
"html-button-response","182","206473","0.0-141.0-0.0","CKN_105","105","","","","","","918","<button class=""jspsych-btn""><img src=""stimuli/purple.png"" style=""width: 200px;height: 200px;""></button>","0","purple","blue","[""purple"",""blue"",""high nameability""]","right-left","[""blue"",""purple""]","4","high nameability","38","right","response","0"
"html-audio-button-response","183","207104","0.0-141.0-1.0","CKN_105","105","","","","","","null","stimuli/boing.m4a","null","purple","blue","[""purple"",""blue"",""high nameability""]","right-left","[""blue"",""purple""]","4","high nameability","38","right","audio_feedback","0"
"html-button-response","184","208881","0.0-141.1-0.1","CKN_105","105","","","","","","1745","<button class=""jspsych-btn""><img src=""stimuli/purple.png"" style=""width: 200px;height: 200px;""></button>","1","purple","blue","[""purple"",""blue"",""high nameability""]","right-left","[""blue"",""purple""]","4","high nameability","38","right","response","1"
"html-audio-button-response","185","209088","0.0-141.1-1.1","CKN_105","105","","","","","","null","stimuli/bleep.m4a","null","purple","blue","[""purple"",""blue"",""high nameability""]","right-left","[""blue"",""purple""]","4","high nameability","38","right","audio_feedback","1"
"html-button-response","186","209603","0.0-142.0","CKN_105","105","","","","","","null","<button class=""jspsych-btn""><img src=""stimuli/white_square.png"" style=""width: 200px;height: 200px;""></button>","null","purple","blue","[""purple"",""blue"",""high nameability""]","right-left","[""blue"",""purple""]","4","high nameability","38","right","iti",""
"html-button-response","187","214502","0.0-143.0","CKN_105","105","","","","","","4891","","0","pink","turquoise","[""pink"",""turquoise"",""low nameability""]","right-left","[""turquoise"",""pink""]","4","low nameability","39","right","trigger",""
"html-button-response","188","215525","0.0-144.0-0.0","CKN_105","105","","","","","","1010","<button class=""jspsych-btn""><img src=""stimuli/pink.png"" style=""width: 200px;height: 200px;""></button>","1","pink","turquoise","[""pink"",""turquoise"",""low nameability""]","right-left","[""turquoise"",""pink""]","4","low nameability","39","right","response","1"
"html-audio-button-response","189","215729","0.0-144.0-1.0","CKN_105","105","","","","","","null","stimuli/bleep.m4a","null","pink","turquoise","[""pink"",""turquoise"",""low nameability""]","right-left","[""turquoise"",""pink""]","4","low nameability","39","right","audio_feedback","1"
"html-button-response","190","216239","0.0-145.0","CKN_105","105","","","","","","null","<button class=""jspsych-btn""><img src=""stimuli/white_square.png"" style=""width: 200px;height: 200px;""></button>","null","pink","turquoise","[""pink"",""turquoise"",""low nameability""]","right-left","[""turquoise"",""pink""]","4","low nameability","39","right","iti",""
"html-button-response","191","217363","0.0-146.0","CKN_105","105","","","","","","1110","","0","yellow","red","[""yellow"",""red"",""high nameability""]","left-right","[""yellow"",""red"",""high nameability""]","4","high nameability","40","left","trigger",""
"html-button-response","192","218418","0.0-147.0-0.0","CKN_105","105","","","","","","1045","<button class=""jspsych-btn""><img src=""stimuli/yellow.png"" style=""width: 200px;height: 200px;""></button>","0","yellow","red","[""yellow"",""red"",""high nameability""]","left-right","[""yellow"",""red"",""high nameability""]","4","high nameability","40","left","response","1"
"html-audio-button-response","193","218621","0.0-147.0-1.0","CKN_105","105","","","","","","null","stimuli/bleep.m4a","null","yellow","red","[""yellow"",""red"",""high nameability""]","left-right","[""yellow"",""red"",""high nameability""]","4","high nameability","40","left","audio_feedback","1"
"html-button-response","194","219135","0.0-148.0","CKN_105","105","","","","","","null","<button class=""jspsych-btn""><img src=""stimuli/white_square.png"" style=""width: 200px;height: 200px;""></button>","null","yellow","red","[""yellow"",""red"",""high nameability""]","left-right","[""yellow"",""red"",""high nameability""]","4","high nameability","40","left","iti",""
"pavlovia","195","219188","0.0-149.0","CKN_105","105","","","","","","","","","","","","","","","","","","",""
"pavlovia","196","219195","0.0-150.0","CKN_105","105","","","","","","","","","","","","","","","","","","",""
"html-audio-button-response","197","222292","0.0-151.0","CKN_105","105","","","","","","3147","stimuli/tada.m4a","0","","","","","","","","","","",""
"html-button-response","198","224390","0.0-152.0","CKN_105","105","","","","","","2087","","0","","","","","","","","","","",""
"html-button-response","199","225861","0.0-153.0","CKN_105","105","","","","","","1459","","0","purple","yellow","[""purple"",""yellow"",""high nameability""]","right-left","[""yellow"",""purple""]","5","high nameability","41","right","trigger",""
"html-button-response","200","226993","0.0-154.0-0.0","CKN_105","105","","","","","","1122","<button class=""jspsych-btn""><img src=""stimuli/purple.png"" style=""width: 200px;height: 200px;""></button>","1","purple","yellow","[""purple"",""yellow"",""high nameability""]","right-left","[""yellow"",""purple""]","5","high nameability","41","right","response","1"
"html-audio-button-response","201","227205","0.0-154.0-1.0","CKN_105","105","","","","","","null","stimuli/bleep.m4a","null","purple","yellow","[""purple"",""yellow"",""high nameability""]","right-left","[""yellow"",""purple""]","5","high nameability","41","right","audio_feedback","1"
"html-button-response","202","227731","0.0-155.0","CKN_105","105","","","","","","null","<button class=""jspsych-btn""><img src=""stimuli/white_square.png"" style=""width: 200px;height: 200px;""></button>","null","purple","yellow","[""purple"",""yellow"",""high nameability""]","right-left","[""yellow"",""purple""]","5","high nameability","41","right","iti",""
"html-button-response","203","228633","0.0-156.0","CKN_105","105","","","","","","890","","0","neonyellow","pink","[""neonyellow"",""pink"",""low nameability""]","left-right","[""neonyellow"",""pink"",""low nameability""]","5","low nameability","42","left","trigger",""
"html-button-response","204","229700","0.0-157.0-0.0","CKN_105","105","","","","","","1056","<button class=""jspsych-btn""><img src=""stimuli/neonyellow.png"" style=""width: 200px;height: 200px;""></button>","0","neonyellow","pink","[""neonyellow"",""pink"",""low nameability""]","left-right","[""neonyellow"",""pink"",""low nameability""]","5","low nameability","42","left","response","1"
"html-audio-button-response","205","229911","0.0-157.0-1.0","CKN_105","105","","","","","","null","stimuli/bleep.m4a","null","neonyellow","pink","[""neonyellow"",""pink"",""low nameability""]","left-right","[""neonyellow"",""pink"",""low nameability""]","5","low nameability","42","left","audio_feedback","1"
"html-button-response","206","230450","0.0-158.0","CKN_105","105","","","","","","null","<button class=""jspsych-btn""><img src=""stimuli/white_square.png"" style=""width: 200px;height: 200px;""></button>","null","neonyellow","pink","[""neonyellow"",""pink"",""low nameability""]","left-right","[""neonyellow"",""pink"",""low nameability""]","5","low nameability","42","left","iti",""
"html-button-response","207","231625","0.0-159.0","CKN_105","105","","","","","","1154","","0","lightred","pink","[""lightred"",""pink"",""low nameability""]","right-left","[""pink"",""lightred""]","5","low nameability","43","right","trigger",""
"html-button-response","208","232792","0.0-160.0-0.0","CKN_105","105","","","","","","1154","<button class=""jspsych-btn""><img src=""stimuli/lightred.png"" style=""width: 200px;height: 200px;""></button>","1","lightred","pink","[""lightred"",""pink"",""low nameability""]","right-left","[""pink"",""lightred""]","5","low nameability","43","right","response","1"
"html-audio-button-response","209","233009","0.0-160.0-1.0","CKN_105","105","","","","","","null","stimuli/bleep.m4a","null","lightred","pink","[""lightred"",""pink"",""low nameability""]","right-left","[""pink"",""lightred""]","5","low nameability","43","right","audio_feedback","1"
"html-button-response","210","233529","0.0-161.0","CKN_105","105","","","","","","null","<button class=""jspsych-btn""><img src=""stimuli/white_square.png"" style=""width: 200px;height: 200px;""></button>","null","lightred","pink","[""lightred"",""pink"",""low nameability""]","right-left","[""pink"",""lightred""]","5","low nameability","43","right","iti",""
"html-button-response","211","234861","0.0-162.0","CKN_105","105","","","","","","1317","","0","turquoise","mustard","[""turquoise"",""mustard"",""low nameability""]","left-right","[""turquoise"",""mustard"",""low nameability""]","5","low nameability","44","left","trigger",""
"html-button-response","212","235810","0.0-163.0-0.0","CKN_105","105","","","","","","940","<button class=""jspsych-btn""><img src=""stimuli/turquoise.png"" style=""width: 200px;height: 200px;""></button>","0","turquoise","mustard","[""turquoise"",""mustard"",""low nameability""]","left-right","[""turquoise"",""mustard"",""low nameability""]","5","low nameability","44","left","response","1"
"html-audio-button-response","213","236013","0.0-163.0-1.0","CKN_105","105","","","","","","null","stimuli/bleep.m4a","null","turquoise","mustard","[""turquoise"",""mustard"",""low nameability""]","left-right","[""turquoise"",""mustard"",""low nameability""]","5","low nameability","44","left","audio_feedback","1"
"html-button-response","214","236528","0.0-164.0","CKN_105","105","","","","","","null","<button class=""jspsych-btn""><img src=""stimuli/white_square.png"" style=""width: 200px;height: 200px;""></button>","null","turquoise","mustard","[""turquoise"",""mustard"",""low nameability""]","left-right","[""turquoise"",""mustard"",""low nameability""]","5","low nameability","44","left","iti",""
"html-button-response","215","237889","0.0-165.0","CKN_105","105","","","","","","1346","","0","brown","orange","[""brown"",""orange"",""high nameability""]","right-left","[""orange"",""brown""]","5","high nameability","45","right","trigger",""
"html-button-response","216","238921","0.0-166.0-0.0","CKN_105","105","","","","","","1025","<button class=""jspsych-btn""><img src=""stimuli/brown.png"" style=""width: 200px;height: 200px;""></button>","1","brown","orange","[""brown"",""orange"",""high nameability""]","right-left","[""orange"",""brown""]","5","high nameability","45","right","response","1"
"html-audio-button-response","217","239129","0.0-166.0-1.0","CKN_105","105","","","","","","null","stimuli/bleep.m4a","null","brown","orange","[""brown"",""orange"",""high nameability""]","right-left","[""orange"",""brown""]","5","high nameability","45","right","audio_feedback","1"
"html-button-response","218","239643","0.0-167.0","CKN_105","105","","","","","","null","<button class=""jspsych-btn""><img src=""stimuli/white_square.png"" style=""width: 200px;height: 200px;""></button>","null","brown","orange","[""brown"",""orange"",""high nameability""]","right-left","[""orange"",""brown""]","5","high nameability","45","right","iti",""
"html-button-response","219","240789","0.0-168.0","CKN_105","105","","","","","","1128","","0","mustard","darkgreenblue","[""mustard"",""darkgreenblue"",""low nameability""]","left-right","[""mustard"",""darkgreenblue"",""low nameability""]","5","low nameability","46","left","trigger",""
"html-button-response","220","242067","0.0-169.0-0.0","CKN_105","105","","","","","","1269","<button class=""jspsych-btn""><img src=""stimuli/mustard.png"" style=""width: 200px;height: 200px;""></button>","0","mustard","darkgreenblue","[""mustard"",""darkgreenblue"",""low nameability""]","left-right","[""mustard"",""darkgreenblue"",""low nameability""]","5","low nameability","46","left","response","1"
"html-audio-button-response","221","242268","0.0-169.0-1.0","CKN_105","105","","","","","","null","stimuli/bleep.m4a","null","mustard","darkgreenblue","[""mustard"",""darkgreenblue"",""low nameability""]","left-right","[""mustard"",""darkgreenblue"",""low nameability""]","5","low nameability","46","left","audio_feedback","1"
"html-button-response","222","242779","0.0-170.0","CKN_105","105","","","","","","null","<button class=""jspsych-btn""><img src=""stimuli/white_square.png"" style=""width: 200px;height: 200px;""></button>","null","mustard","darkgreenblue","[""mustard"",""darkgreenblue"",""low nameability""]","left-right","[""mustard"",""darkgreenblue"",""low nameability""]","5","low nameability","46","left","iti",""
"html-button-response","223","244524","0.0-171.0","CKN_105","105","","","","","","1733","","0","brown","yellow","[""brown"",""yellow"",""high nameability""]","right-left","[""yellow"",""brown""]","5","high nameability","47","right","trigger",""
"html-button-response","224","245552","0.0-172.0-0.0","CKN_105","105","","","","","","1019","<button class=""jspsych-btn""><img src=""stimuli/brown.png"" style=""width: 200px;height: 200px;""></button>","1","brown","yellow","[""brown"",""yellow"",""high nameability""]","right-left","[""yellow"",""brown""]","5","high nameability","47","right","response","1"
"html-audio-button-response","225","245756","0.0-172.0-1.0","CKN_105","105","","","","","","null","stimuli/bleep.m4a","null","brown","yellow","[""brown"",""yellow"",""high nameability""]","right-left","[""yellow"",""brown""]","5","high nameability","47","right","audio_feedback","1"
"html-button-response","226","246273","0.0-173.0","CKN_105","105","","","","","","null","<button class=""jspsych-btn""><img src=""stimuli/white_square.png"" style=""width: 200px;height: 200px;""></button>","null","brown","yellow","[""brown"",""yellow"",""high nameability""]","right-left","[""yellow"",""brown""]","5","high nameability","47","right","iti",""
"html-button-response","227","247702","0.0-174.0","CKN_105","105","","","","","","1418","","0","yellow","purple","[""yellow"",""purple"",""high nameability""]","right-left","[""purple"",""yellow""]","5","high nameability","48","right","trigger",""
"html-button-response","228","248965","0.0-175.0-0.0","CKN_105","105","","","","","","1256","<button class=""jspsych-btn""><img src=""stimuli/yellow.png"" style=""width: 200px;height: 200px;""></button>","1","yellow","purple","[""yellow"",""purple"",""high nameability""]","right-left","[""purple"",""yellow""]","5","high nameability","48","right","response","1"
"html-audio-button-response","229","249168","0.0-175.0-1.0","CKN_105","105","","","","","","null","stimuli/bleep.m4a","null","yellow","purple","[""yellow"",""purple"",""high nameability""]","right-left","[""purple"",""yellow""]","5","high nameability","48","right","audio_feedback","1"
"html-button-response","230","249689","0.0-176.0","CKN_105","105","","","","","","null","<button class=""jspsych-btn""><img src=""stimuli/white_square.png"" style=""width: 200px;height: 200px;""></button>","null","yellow","purple","[""yellow"",""purple"",""high nameability""]","right-left","[""purple"",""yellow""]","5","high nameability","48","right","iti",""
"html-button-response","231","251969","0.0-177.0","CKN_105","105","","","","","","2267","","0","darkgreenblue","pink","[""darkgreenblue"",""pink"",""low nameability""]","right-left","[""pink"",""darkgreenblue""]","5","low nameability","49","right","trigger",""
"html-button-response","232","252887","0.0-178.0-0.0","CKN_105","105","","","","","","911","<button class=""jspsych-btn""><img src=""stimuli/darkgreenblue.png"" style=""width: 200px;height: 200px;""></button>","1","darkgreenblue","pink","[""darkgreenblue"",""pink"",""low nameability""]","right-left","[""pink"",""darkgreenblue""]","5","low nameability","49","right","response","1"
"html-audio-button-response","233","253092","0.0-178.0-1.0","CKN_105","105","","","","","","null","stimuli/bleep.m4a","null","darkgreenblue","pink","[""darkgreenblue"",""pink"",""low nameability""]","right-left","[""pink"",""darkgreenblue""]","5","low nameability","49","right","audio_feedback","1"
"html-button-response","234","253615","0.0-179.0","CKN_105","105","","","","","","null","<button class=""jspsych-btn""><img src=""stimuli/white_square.png"" style=""width: 200px;height: 200px;""></button>","null","darkgreenblue","pink","[""darkgreenblue"",""pink"",""low nameability""]","right-left","[""pink"",""darkgreenblue""]","5","low nameability","49","right","iti",""
"html-button-response","235","254624","0.0-180.0","CKN_105","105","","","","","","995","","0","mustard","neonyellow","[""mustard"",""neonyellow"",""low nameability""]","right-left","[""neonyellow"",""mustard""]","5","low nameability","50","right","trigger",""
"html-button-response","236","256125","0.0-181.0-0.0","CKN_105","105","","","","","","1493","<button class=""jspsych-btn""><img src=""stimuli/mustard.png"" style=""width: 200px;height: 200px;""></button>","1","mustard","neonyellow","[""mustard"",""neonyellow"",""low nameability""]","right-left","[""neonyellow"",""mustard""]","5","low nameability","50","right","response","1"
"html-audio-button-response","237","256330","0.0-181.0-1.0","CKN_105","105","","","","","","null","stimuli/bleep.m4a","null","mustard","neonyellow","[""mustard"",""neonyellow"",""low nameability""]","right-left","[""neonyellow"",""mustard""]","5","low nameability","50","right","audio_feedback","1"
"html-button-response","238","256844","0.0-182.0","CKN_105","105","","","","","","null","<button class=""jspsych-btn""><img src=""stimuli/white_square.png"" style=""width: 200px;height: 200px;""></button>","null","mustard","neonyellow","[""mustard"",""neonyellow"",""low nameability""]","right-left","[""neonyellow"",""mustard""]","5","low nameability","50","right","iti",""
"pavlovia","239","256931","0.0-183.0","CKN_105","105","","","","","","","","","","","","","","","","","","",""
"pavlovia","240","256940","0.0-184.0","CKN_105","105","","","","","","","","","","","","","","","","","","",""
"html-audio-button-response","241","259419","0.0-185.0","CKN_105","105","","","","","","2557","stimuli/tada.m4a","0","","","","","","","","","","",""
"html-button-response","242","261404","0.0-186.0","CKN_105","105","","","","","","1978","","0","","","","","","","","","","",""
"html-button-response","243","262449","0.0-187.0","CKN_105","105","","","","","","1036","","0","purple","brown","[""purple"",""brown"",""high nameability""]","right-left","[""brown"",""purple""]","6","high nameability","51","right","trigger",""
"html-button-response","244","263455","0.0-188.0-0.0","CKN_105","105","","","","","","999","<button class=""jspsych-btn""><img src=""stimuli/purple.png"" style=""width: 200px;height: 200px;""></button>","1","purple","brown","[""purple"",""brown"",""high nameability""]","right-left","[""brown"",""purple""]","6","high nameability","51","right","response","1"
"html-audio-button-response","245","263658","0.0-188.0-1.0","CKN_105","105","","","","","","null","stimuli/bleep.m4a","null","purple","brown","[""purple"",""brown"",""high nameability""]","right-left","[""brown"",""purple""]","6","high nameability","51","right","audio_feedback","1"
"html-button-response","246","264175","0.0-189.0","CKN_105","105","","","","","","null","<button class=""jspsych-btn""><img src=""stimuli/white_square.png"" style=""width: 200px;height: 200px;""></button>","null","purple","brown","[""purple"",""brown"",""high nameability""]","right-left","[""brown"",""purple""]","6","high nameability","51","right","iti",""
"html-button-response","247","265130","0.0-190.0","CKN_105","105","","","","","","943","","0","pink","neonyellow","[""pink"",""neonyellow"",""low nameability""]","right-left","[""neonyellow"",""pink""]","6","low nameability","52","right","trigger",""
"html-button-response","248","266126","0.0-191.0-0.0","CKN_105","105","","","","","","987","<button class=""jspsych-btn""><img src=""stimuli/pink.png"" style=""width: 200px;height: 200px;""></button>","1","pink","neonyellow","[""pink"",""neonyellow"",""low nameability""]","right-left","[""neonyellow"",""pink""]","6","low nameability","52","right","response","1"
"html-audio-button-response","249","266328","0.0-191.0-1.0","CKN_105","105","","","","","","null","stimuli/bleep.m4a","null","pink","neonyellow","[""pink"",""neonyellow"",""low nameability""]","right-left","[""neonyellow"",""pink""]","6","low nameability","52","right","audio_feedback","1"
"html-button-response","250","266845","0.0-192.0","CKN_105","105","","","","","","null","<button class=""jspsych-btn""><img src=""stimuli/white_square.png"" style=""width: 200px;height: 200px;""></button>","null","pink","neonyellow","[""pink"",""neonyellow"",""low nameability""]","right-left","[""neonyellow"",""pink""]","6","low nameability","52","right","iti",""
"html-button-response","251","267777","0.0-193.0","CKN_105","105","","","","","","918","","0","orange","purple","[""orange"",""purple"",""high nameability""]","right-left","[""purple"",""orange""]","6","high nameability","53","right","trigger",""
"html-button-response","252","268774","0.0-194.0-0.0","CKN_105","105","","","","","","987","<button class=""jspsych-btn""><img src=""stimuli/orange.png"" style=""width: 200px;height: 200px;""></button>","1","orange","purple","[""orange"",""purple"",""high nameability""]","right-left","[""purple"",""orange""]","6","high nameability","53","right","response","1"
"html-audio-button-response","253","268975","0.0-194.0-1.0","CKN_105","105","","","","","","null","stimuli/bleep.m4a","null","orange","purple","[""orange"",""purple"",""high nameability""]","right-left","[""purple"",""orange""]","6","high nameability","53","right","audio_feedback","1"
"html-button-response","254","269491","0.0-195.0","CKN_105","105","","","","","","null","<button class=""jspsych-btn""><img src=""stimuli/white_square.png"" style=""width: 200px;height: 200px;""></button>","null","orange","purple","[""orange"",""purple"",""high nameability""]","right-left","[""purple"",""orange""]","6","high nameability","53","right","iti",""
"html-button-response","255","270415","0.0-196.0","CKN_105","105","","","","","","913","","0","neonyellow","lightred","[""neonyellow"",""lightred"",""low nameability""]","left-right","[""neonyellow"",""lightred"",""low nameability""]","6","low nameability","54","left","trigger",""
"html-button-response","256","271823","0.0-197.0-0.0","CKN_105","105","","","","","","1401","<button class=""jspsych-btn""><img src=""stimuli/neonyellow.png"" style=""width: 200px;height: 200px;""></button>","0","neonyellow","lightred","[""neonyellow"",""lightred"",""low nameability""]","left-right","[""neonyellow"",""lightred"",""low nameability""]","6","low nameability","54","left","response","1"
"html-audio-button-response","257","272026","0.0-197.0-1.0","CKN_105","105","","","","","","null","stimuli/bleep.m4a","null","neonyellow","lightred","[""neonyellow"",""lightred"",""low nameability""]","left-right","[""neonyellow"",""lightred"",""low nameability""]","6","low nameability","54","left","audio_feedback","1"
"html-button-response","258","272542","0.0-198.0","CKN_105","105","","","","","","null","<button class=""jspsych-btn""><img src=""stimuli/white_square.png"" style=""width: 200px;height: 200px;""></button>","null","neonyellow","lightred","[""neonyellow"",""lightred"",""low nameability""]","left-right","[""neonyellow"",""lightred"",""low nameability""]","6","low nameability","54","left","iti",""
"html-button-response","259","273788","0.0-199.0","CKN_105","105","","","","","","1235","","0","red","brown","[""red"",""brown"",""high nameability""]","left-right","[""red"",""brown"",""high nameability""]","6","high nameability","55","left","trigger",""
"html-button-response","260","274899","0.0-200.0-0.0","CKN_105","105","","","","","","1104","<button class=""jspsych-btn""><img src=""stimuli/red.png"" style=""width: 200px;height: 200px;""></button>","0","red","brown","[""red"",""brown"",""high nameability""]","left-right","[""red"",""brown"",""high nameability""]","6","high nameability","55","left","response","1"
"html-audio-button-response","261","275105","0.0-200.0-1.0","CKN_105","105","","","","","","null","stimuli/bleep.m4a","null","red","brown","[""red"",""brown"",""high nameability""]","left-right","[""red"",""brown"",""high nameability""]","6","high nameability","55","left","audio_feedback","1"
"html-button-response","262","275621","0.0-201.0","CKN_105","105","","","","","","null","<button class=""jspsych-btn""><img src=""stimuli/white_square.png"" style=""width: 200px;height: 200px;""></button>","null","red","brown","[""red"",""brown"",""high nameability""]","left-right","[""red"",""brown"",""high nameability""]","6","high nameability","55","left","iti",""
"html-button-response","263","276724","0.0-202.0","CKN_105","105","","","","","","1092","","0","darkgreenblue","turquoise","[""darkgreenblue"",""turquoise"",""low nameability""]","left-right","[""darkgreenblue"",""turquoise"",""low nameability""]","6","low nameability","56","left","trigger",""
"html-button-response","264","278366","0.0-203.0-0.0","CKN_105","105","","","","","","1634","<button class=""jspsych-btn""><img src=""stimuli/darkgreenblue.png"" style=""width: 200px;height: 200px;""></button>","0","darkgreenblue","turquoise","[""darkgreenblue"",""turquoise"",""low nameability""]","left-right","[""darkgreenblue"",""turquoise"",""low nameability""]","6","low nameability","56","left","response","1"
"html-audio-button-response","265","278568","0.0-203.0-1.0","CKN_105","105","","","","","","null","stimuli/bleep.m4a","null","darkgreenblue","turquoise","[""darkgreenblue"",""turquoise"",""low nameability""]","left-right","[""darkgreenblue"",""turquoise"",""low nameability""]","6","low nameability","56","left","audio_feedback","1"
"html-button-response","266","279085","0.0-204.0","CKN_105","105","","","","","","null","<button class=""jspsych-btn""><img src=""stimuli/white_square.png"" style=""width: 200px;height: 200px;""></button>","null","darkgreenblue","turquoise","[""darkgreenblue"",""turquoise"",""low nameability""]","left-right","[""darkgreenblue"",""turquoise"",""low nameability""]","6","low nameability","56","left","iti",""
"html-button-response","267","280411","0.0-205.0","CKN_105","105","","","","","","1316","","0","mustard","pink","[""mustard"",""pink"",""low nameability""]","right-left","[""pink"",""mustard""]","6","low nameability","57","right","trigger",""
"html-button-response","268","281688","0.0-206.0-0.0","CKN_105","105","","","","","","1266","<button class=""jspsych-btn""><img src=""stimuli/mustard.png"" style=""width: 200px;height: 200px;""></button>","1","mustard","pink","[""mustard"",""pink"",""low nameability""]","right-left","[""pink"",""mustard""]","6","low nameability","57","right","response","1"
"html-audio-button-response","269","281892","0.0-206.0-1.0","CKN_105","105","","","","","","null","stimuli/bleep.m4a","null","mustard","pink","[""mustard"",""pink"",""low nameability""]","right-left","[""pink"",""mustard""]","6","low nameability","57","right","audio_feedback","1"
"html-button-response","270","282407","0.0-207.0","CKN_105","105","","","","","","null","<button class=""jspsych-btn""><img src=""stimuli/white_square.png"" style=""width: 200px;height: 200px;""></button>","null","mustard","pink","[""mustard"",""pink"",""low nameability""]","right-left","[""pink"",""mustard""]","6","low nameability","57","right","iti",""
"html-button-response","271","283547","0.0-208.0","CKN_105","105","","","","","","1128","","0","lightred","mustard","[""lightred"",""mustard"",""low nameability""]","left-right","[""lightred"",""mustard"",""low nameability""]","6","low nameability","58","left","trigger",""
"html-button-response","272","284975","0.0-209.0-0.0","CKN_105","105","","","","","","1421","<button class=""jspsych-btn""><img src=""stimuli/lightred.png"" style=""width: 200px;height: 200px;""></button>","0","lightred","mustard","[""lightred"",""mustard"",""low nameability""]","left-right","[""lightred"",""mustard"",""low nameability""]","6","low nameability","58","left","response","1"
"html-audio-button-response","273","285179","0.0-209.0-1.0","CKN_105","105","","","","","","null","stimuli/bleep.m4a","null","lightred","mustard","[""lightred"",""mustard"",""low nameability""]","left-right","[""lightred"",""mustard"",""low nameability""]","6","low nameability","58","left","audio_feedback","1"
"html-button-response","274","285693","0.0-210.0","CKN_105","105","","","","","","null","<button class=""jspsych-btn""><img src=""stimuli/white_square.png"" style=""width: 200px;height: 200px;""></button>","null","lightred","mustard","[""lightred"",""mustard"",""low nameability""]","left-right","[""lightred"",""mustard"",""low nameability""]","6","low nameability","58","left","iti",""
"html-button-response","275","287051","0.0-211.0","CKN_105","105","","","","","","1343","","0","blue","purple","[""blue"",""purple"",""high nameability""]","left-right","[""blue"",""purple"",""high nameability""]","6","high nameability","59","left","trigger",""
"html-button-response","276","288302","0.0-212.0-0.0","CKN_105","105","","","","","","1243","<button class=""jspsych-btn""><img src=""stimuli/blue.png"" style=""width: 200px;height: 200px;""></button>","0","blue","purple","[""blue"",""purple"",""high nameability""]","left-right","[""blue"",""purple"",""high nameability""]","6","high nameability","59","left","response","1"
"html-audio-button-response","277","288506","0.0-212.0-1.0","CKN_105","105","","","","","","null","stimuli/bleep.m4a","null","blue","purple","[""blue"",""purple"",""high nameability""]","left-right","[""blue"",""purple"",""high nameability""]","6","high nameability","59","left","audio_feedback","1"
"html-button-response","278","289024","0.0-213.0","CKN_105","105","","","","","","null","<button class=""jspsych-btn""><img src=""stimuli/white_square.png"" style=""width: 200px;height: 200px;""></button>","null","blue","purple","[""blue"",""purple"",""high nameability""]","left-right","[""blue"",""purple"",""high nameability""]","6","high nameability","59","left","iti",""
"html-button-response","279","290286","0.0-214.0","CKN_105","105","","","","","","1246","","0","mustard","turquoise","[""mustard"",""turquoise"",""low nameability""]","left-right","[""mustard"",""turquoise"",""low nameability""]","6","low nameability","60","left","trigger",""
"html-button-response","280","291301","0.0-215.0-0.0","CKN_105","105","","","","","","1001","<button class=""jspsych-btn""><img src=""stimuli/mustard.png"" style=""width: 200px;height: 200px;""></button>","0","mustard","turquoise","[""mustard"",""turquoise"",""low nameability""]","left-right","[""mustard"",""turquoise"",""low nameability""]","6","low nameability","60","left","response","1"
"html-audio-button-response","281","291509","0.0-215.0-1.0","CKN_105","105","","","","","","null","stimuli/bleep.m4a","null","mustard","turquoise","[""mustard"",""turquoise"",""low nameability""]","left-right","[""mustard"",""turquoise"",""low nameability""]","6","low nameability","60","left","audio_feedback","1"
"html-button-response","282","292035","0.0-216.0","CKN_105","105","","","","","","null","<button class=""jspsych-btn""><img src=""stimuli/white_square.png"" style=""width: 200px;height: 200px;""></button>","null","mustard","turquoise","[""mustard"",""turquoise"",""low nameability""]","left-right","[""mustard"",""turquoise"",""low nameability""]","6","low nameability","60","left","iti",""
