"trial_type","trial_index","time_elapsed","internal_node_id","subject_id","seed","success","timeout","failed_images","failed_audio","failed_video","rt","stimulus","response","target","foil","choices","combination_order","choices_in_order","round","condition","trial_counter","target_location","trial_kind","correct"
"pavlovia","0","19","0.0-0.0","CKN_121","121","","","","","","","","","","","","","","","","","","",""
"preload","1","1058","0.0-1.0","CKN_121","121","true","false","[]","[]","[]","","","","","","","","","","","","","",""
"fullscreen","2","3470","0.0-2.0","CKN_121","121","true","","","","","","","","","","","","","","","","","",""
"html-button-response","3","10283","0.0-3.0","CKN_121","121","","","","","","6796","","0","","","","","","","","","","",""
"html-button-response","4","13665","0.0-4.0","CKN_121","121","","","","","","3364","","0","star","square","[""square"",""star""]","left-right","[""square"",""star""]","1","practice","1","right","trigger",""
"html-button-response","5","16797","0.0-5.0-0.0","CKN_121","121","","","","","","3119","<button class=""jspsych-btn""><img src=""stimuli/star.png"" style=""width: 200px;height: 200px;""></button>","1","star","square","[""square"",""star""]","left-right","[""square"",""star""]","1","practice","1","right","response","1"
"html-audio-button-response","6","17037","0.0-5.0-1.0","CKN_121","121","","","","","","null","stimuli/bleep.m4a","null","star","square","[""square"",""star""]","left-right","[""square"",""star""]","1","practice","1","right","audio_feedback","1"
"html-button-response","7","17574","0.0-6.0","CKN_121","121","","","","","","null","<button class=""jspsych-btn""><img src=""stimuli/white_square.png"" style=""width: 200px;height: 200px;""></button>","null","star","square","[""square"",""star""]","left-right","[""square"",""star""]","1","practice","1","right","iti",""
"html-button-response","8","20460","0.0-7.0","CKN_121","121","","","","","","2871","","0","triangle","pentagram","[""triangle"",""pentagram""]","left-right","[""triangle"",""pentagram""]","1","practice","1","left","trigger",""
"html-button-response","9","24035","0.0-8.0-0.0","CKN_121","121","","","","","","3565","<button class=""jspsych-btn""><img src=""stimuli/triangle.png"" style=""width: 200px;height: 200px;""></button>","0","triangle","pentagram","[""triangle"",""pentagram""]","left-right","[""triangle"",""pentagram""]","1","practice","1","left","response","1"
"html-audio-button-response","10","24245","0.0-8.0-1.0","CKN_121","121","","","","","","null","stimuli/bleep.m4a","null","triangle","pentagram","[""triangle"",""pentagram""]","left-right","[""triangle"",""pentagram""]","1","practice","1","left","audio_feedback","1"
"html-button-response","11","24761","0.0-9.0","CKN_121","121","","","","","","null","<button class=""jspsych-btn""><img src=""stimuli/white_square.png"" style=""width: 200px;height: 200px;""></button>","null","triangle","pentagram","[""triangle"",""pentagram""]","left-right","[""triangle"",""pentagram""]","1","practice","1","left","iti",""
"html-button-response","12","27183","0.0-10.0","CKN_121","121","","","","","","2412","","0","diamond","rectangle","[""rectangle"",""diamond""]","left-right","[""rectangle"",""diamond""]","1","practice","1","right","trigger",""
"html-button-response","13","32584","0.0-11.0-0.0","CKN_121","121","","","","","","5391","<button class=""jspsych-btn""><img src=""stimuli/diamond.png"" style=""width: 200px;height: 200px;""></button>","1","diamond","rectangle","[""rectangle"",""diamond""]","left-right","[""rectangle"",""diamond""]","1","practice","1","right","response","1"
"html-audio-button-response","14","32797","0.0-11.0-1.0","CKN_121","121","","","","","","null","stimuli/bleep.m4a","null","diamond","rectangle","[""rectangle"",""diamond""]","left-right","[""rectangle"",""diamond""]","1","practice","1","right","audio_feedback","1"
"html-button-response","15","33317","0.0-12.0","CKN_121","121","","","","","","null","<button class=""jspsych-btn""><img src=""stimuli/white_square.png"" style=""width: 200px;height: 200px;""></button>","null","diamond","rectangle","[""rectangle"",""diamond""]","left-right","[""rectangle"",""diamond""]","1","practice","1","right","iti",""
"html-button-response","16","36981","0.0-13.0","CKN_121","121","","","","","","3640","","0","pentagram","star","[""pentagram"",""star""]","left-right","[""pentagram"",""star""]","1","practice","1","left","trigger",""
"html-button-response","17","39647","0.0-14.0-0.0","CKN_121","121","","","","","","2656","<button class=""jspsych-btn""><img src=""stimuli/pentagram.png"" style=""width: 200px;height: 200px;""></button>","0","pentagram","star","[""pentagram"",""star""]","left-right","[""pentagram"",""star""]","1","practice","1","left","response","1"
"html-audio-button-response","18","39879","0.0-14.0-1.0","CKN_121","121","","","","","","null","stimuli/bleep.m4a","null","pentagram","star","[""pentagram"",""star""]","left-right","[""pentagram"",""star""]","1","practice","1","left","audio_feedback","1"
"html-button-response","19","40394","0.0-15.0","CKN_121","121","","","","","","null","<button class=""jspsych-btn""><img src=""stimuli/white_square.png"" style=""width: 200px;height: 200px;""></button>","null","pentagram","star","[""pentagram"",""star""]","left-right","[""pentagram"",""star""]","1","practice","1","left","iti",""
"html-button-response","20","44428","0.0-16.0","CKN_121","121","","","","","","4026","","0","","","","","","","","","","",""
"html-button-response","21","47111","0.0-17.0","CKN_121","121","","","","","","2675","","0","darkgreenblue","neonyellow","[""darkgreenblue"",""neonyellow"",""low nameability""]","right-left","[""neonyellow"",""darkgreenblue""]","1","low nameability","1","right","trigger",""
"html-button-response","22","48567","0.0-18.0-0.0","CKN_121","121","","","","","","1445","<button class=""jspsych-btn""><img src=""stimuli/darkgreenblue.png"" style=""width: 200px;height: 200px;""></button>","1","darkgreenblue","neonyellow","[""darkgreenblue"",""neonyellow"",""low nameability""]","right-left","[""neonyellow"",""darkgreenblue""]","1","low nameability","1","right","response","1"
"html-audio-button-response","23","48772","0.0-18.0-1.0","CKN_121","121","","","","","","null","stimuli/bleep.m4a","null","darkgreenblue","neonyellow","[""darkgreenblue"",""neonyellow"",""low nameability""]","right-left","[""neonyellow"",""darkgreenblue""]","1","low nameability","1","right","audio_feedback","1"
"html-button-response","24","49281","0.0-19.0","CKN_121","121","","","","","","null","<button class=""jspsych-btn""><img src=""stimuli/white_square.png"" style=""width: 200px;height: 200px;""></button>","null","darkgreenblue","neonyellow","[""darkgreenblue"",""neonyellow"",""low nameability""]","right-left","[""neonyellow"",""darkgreenblue""]","1","low nameability","1","right","iti",""
"html-button-response","25","52383","0.0-20.0","CKN_121","121","","","","","","3090","","0","neonyellow","mustard","[""neonyellow"",""mustard"",""low nameability""]","left-right","[""neonyellow"",""mustard"",""low nameability""]","1","low nameability","2","left","trigger",""
"html-button-response","26","59800","0.0-21.0-0.0","CKN_121","121","","","","","","7403","<button class=""jspsych-btn""><img src=""stimuli/neonyellow.png"" style=""width: 200px;height: 200px;""></button>","0","neonyellow","mustard","[""neonyellow"",""mustard"",""low nameability""]","left-right","[""neonyellow"",""mustard"",""low nameability""]","1","low nameability","2","left","response","1"
"html-audio-button-response","27","60014","0.0-21.0-1.0","CKN_121","121","","","","","","null","stimuli/bleep.m4a","null","neonyellow","mustard","[""neonyellow"",""mustard"",""low nameability""]","left-right","[""neonyellow"",""mustard"",""low nameability""]","1","low nameability","2","left","audio_feedback","1"
"html-button-response","28","60539","0.0-22.0","CKN_121","121","","","","","","null","<button class=""jspsych-btn""><img src=""stimuli/white_square.png"" style=""width: 200px;height: 200px;""></button>","null","neonyellow","mustard","[""neonyellow"",""mustard"",""low nameability""]","left-right","[""neonyellow"",""mustard"",""low nameability""]","1","low nameability","2","left","iti",""
"html-button-response","29","61029","0.0-23.0","CKN_121","121","","","","","","471","","0","blue","red","[""blue"",""red"",""high nameability""]","left-right","[""blue"",""red"",""high nameability""]","1","high nameability","3","left","trigger",""
"html-button-response","30","71394","0.0-24.0-0.0","CKN_121","121","","","","","","10351","<button class=""jspsych-btn""><img src=""stimuli/blue.png"" style=""width: 200px;height: 200px;""></button>","0","blue","red","[""blue"",""red"",""high nameability""]","left-right","[""blue"",""red"",""high nameability""]","1","high nameability","3","left","response","1"
"html-audio-button-response","31","71606","0.0-24.0-1.0","CKN_121","121","","","","","","null","stimuli/bleep.m4a","null","blue","red","[""blue"",""red"",""high nameability""]","left-right","[""blue"",""red"",""high nameability""]","1","high nameability","3","left","audio_feedback","1"
"html-button-response","32","72127","0.0-25.0","CKN_121","121","","","","","","null","<button class=""jspsych-btn""><img src=""stimuli/white_square.png"" style=""width: 200px;height: 200px;""></button>","null","blue","red","[""blue"",""red"",""high nameability""]","left-right","[""blue"",""red"",""high nameability""]","1","high nameability","3","left","iti",""
"html-button-response","33","73753","0.0-26.0","CKN_121","121","","","","","","1612","","0","orange","red","[""orange"",""red"",""high nameability""]","right-left","[""red"",""orange""]","1","high nameability","4","right","trigger",""
"html-button-response","34","76876","0.0-27.0-0.0","CKN_121","121","","","","","","3107","<button class=""jspsych-btn""><img src=""stimuli/orange.png"" style=""width: 200px;height: 200px;""></button>","0","orange","red","[""orange"",""red"",""high nameability""]","right-left","[""red"",""orange""]","1","high nameability","4","right","response","0"
"html-audio-button-response","35","77538","0.0-27.0-1.0","CKN_121","121","","","","","","null","stimuli/boing.m4a","null","orange","red","[""orange"",""red"",""high nameability""]","right-left","[""red"",""orange""]","1","high nameability","4","right","audio_feedback","0"
"html-button-response","36","80435","0.0-27.1-0.1","CKN_121","121","","","","","","2867","<button class=""jspsych-btn""><img src=""stimuli/orange.png"" style=""width: 200px;height: 200px;""></button>","1","orange","red","[""orange"",""red"",""high nameability""]","right-left","[""red"",""orange""]","1","high nameability","4","right","response","1"
"html-audio-button-response","37","80673","0.0-27.1-1.1","CKN_121","121","","","","","","null","stimuli/bleep.m4a","null","orange","red","[""orange"",""red"",""high nameability""]","right-left","[""red"",""orange""]","1","high nameability","4","right","audio_feedback","1"
"html-button-response","38","81195","0.0-28.0","CKN_121","121","","","","","","null","<button class=""jspsych-btn""><img src=""stimuli/white_square.png"" style=""width: 200px;height: 200px;""></button>","null","orange","red","[""orange"",""red"",""high nameability""]","right-left","[""red"",""orange""]","1","high nameability","4","right","iti",""
"html-button-response","39","82573","0.0-29.0","CKN_121","121","","","","","","1360","","0","turquoise","darkgreenblue","[""turquoise"",""darkgreenblue"",""low nameability""]","left-right","[""turquoise"",""darkgreenblue"",""low nameability""]","1","low nameability","5","left","trigger",""
"html-button-response","40","84333","0.0-30.0-0.0","CKN_121","121","","","","","","1749","<button class=""jspsych-btn""><img src=""stimuli/turquoise.png"" style=""width: 200px;height: 200px;""></button>","0","turquoise","darkgreenblue","[""turquoise"",""darkgreenblue"",""low nameability""]","left-right","[""turquoise"",""darkgreenblue"",""low nameability""]","1","low nameability","5","left","response","1"
"html-audio-button-response","41","84540","0.0-30.0-1.0","CKN_121","121","","","","","","null","stimuli/bleep.m4a","null","turquoise","darkgreenblue","[""turquoise"",""darkgreenblue"",""low nameability""]","left-right","[""turquoise"",""darkgreenblue"",""low nameability""]","1","low nameability","5","left","audio_feedback","1"
"html-button-response","42","85053","0.0-31.0","CKN_121","121","","","","","","null","<button class=""jspsych-btn""><img src=""stimuli/white_square.png"" style=""width: 200px;height: 200px;""></button>","null","turquoise","darkgreenblue","[""turquoise"",""darkgreenblue"",""low nameability""]","left-right","[""turquoise"",""darkgreenblue"",""low nameability""]","1","low nameability","5","left","iti",""
"html-button-response","43","87448","0.0-32.0","CKN_121","121","","","","","","2380","","0","blue","orange","[""blue"",""orange"",""high nameability""]","right-left","[""orange"",""blue""]","1","high nameability","6","right","trigger",""
"html-button-response","44","92473","0.0-33.0-0.0","CKN_121","121","","","","","","5018","<button class=""jspsych-btn""><img src=""stimuli/blue.png"" style=""width: 200px;height: 200px;""></button>","0","blue","orange","[""blue"",""orange"",""high nameability""]","right-left","[""orange"",""blue""]","1","high nameability","6","right","response","0"
"html-audio-button-response","45","93095","0.0-33.0-1.0","CKN_121","121","","","","","","null","stimuli/boing.m4a","null","blue","orange","[""blue"",""orange"",""high nameability""]","right-left","[""orange"",""blue""]","1","high nameability","6","right","audio_feedback","0"
"html-button-response","46","98606","0.0-33.1-0.1","CKN_121","121","","","","","","5488","<button class=""jspsych-btn""><img src=""stimuli/blue.png"" style=""width: 200px;height: 200px;""></button>","1","blue","orange","[""blue"",""orange"",""high nameability""]","right-left","[""orange"",""blue""]","1","high nameability","6","right","response","1"
"html-audio-button-response","47","98817","0.0-33.1-1.1","CKN_121","121","","","","","","null","stimuli/bleep.m4a","null","blue","orange","[""blue"",""orange"",""high nameability""]","right-left","[""orange"",""blue""]","1","high nameability","6","right","audio_feedback","1"
"html-button-response","48","99345","0.0-34.0","CKN_121","121","","","","","","null","<button class=""jspsych-btn""><img src=""stimuli/white_square.png"" style=""width: 200px;height: 200px;""></button>","null","blue","orange","[""blue"",""orange"",""high nameability""]","right-left","[""orange"",""blue""]","1","high nameability","6","right","iti",""
"html-button-response","49","100657","0.0-35.0","CKN_121","121","","","","","","1284","","0","purple","yellow","[""purple"",""yellow"",""high nameability""]","right-left","[""yellow"",""purple""]","1","high nameability","7","right","trigger",""
"html-button-response","50","102986","0.0-36.0-0.0","CKN_121","121","","","","","","2320","<button class=""jspsych-btn""><img src=""stimuli/purple.png"" style=""width: 200px;height: 200px;""></button>","0","purple","yellow","[""purple"",""yellow"",""high nameability""]","right-left","[""yellow"",""purple""]","1","high nameability","7","right","response","0"
"html-audio-button-response","51","103606","0.0-36.0-1.0","CKN_121","121","","","","","","null","stimuli/boing.m4a","null","purple","yellow","[""purple"",""yellow"",""high nameability""]","right-left","[""yellow"",""purple""]","1","high nameability","7","right","audio_feedback","0"
"html-button-response","52","116801","0.0-36.1-0.1","CKN_121","121","","","","","","13175","<button class=""jspsych-btn""><img src=""stimuli/purple.png"" style=""width: 200px;height: 200px;""></button>","1","purple","yellow","[""purple"",""yellow"",""high nameability""]","right-left","[""yellow"",""purple""]","1","high nameability","7","right","response","1"
"html-audio-button-response","53","117005","0.0-36.1-1.1","CKN_121","121","","","","","","null","stimuli/bleep.m4a","null","purple","yellow","[""purple"",""yellow"",""high nameability""]","right-left","[""yellow"",""purple""]","1","high nameability","7","right","audio_feedback","1"
"html-button-response","54","117531","0.0-37.0","CKN_121","121","","","","","","295","<button class=""jspsych-btn""><img src=""stimuli/white_square.png"" style=""width: 200px;height: 200px;""></button>","0","purple","yellow","[""purple"",""yellow"",""high nameability""]","right-left","[""yellow"",""purple""]","1","high nameability","7","right","iti",""
"html-button-response","55","120300","0.0-38.0","CKN_121","121","","","","","","2761","","0","pink","turquoise","[""pink"",""turquoise"",""low nameability""]","left-right","[""pink"",""turquoise"",""low nameability""]","1","low nameability","8","left","trigger",""
"html-button-response","56","123051","0.0-39.0-0.0","CKN_121","121","","","","","","2739","<button class=""jspsych-btn""><img src=""stimuli/pink.png"" style=""width: 200px;height: 200px;""></button>","0","pink","turquoise","[""pink"",""turquoise"",""low nameability""]","left-right","[""pink"",""turquoise"",""low nameability""]","1","low nameability","8","left","response","1"
"html-audio-button-response","57","123278","0.0-39.0-1.0","CKN_121","121","","","","","","null","stimuli/bleep.m4a","null","pink","turquoise","[""pink"",""turquoise"",""low nameability""]","left-right","[""pink"",""turquoise"",""low nameability""]","1","low nameability","8","left","audio_feedback","1"
"html-button-response","58","123806","0.0-40.0","CKN_121","121","","","","","","null","<button class=""jspsych-btn""><img src=""stimuli/white_square.png"" style=""width: 200px;height: 200px;""></button>","null","pink","turquoise","[""pink"",""turquoise"",""low nameability""]","left-right","[""pink"",""turquoise"",""low nameability""]","1","low nameability","8","left","iti",""
"html-button-response","59","127007","0.0-41.0","CKN_121","121","","","","","","3181","","0","lightred","darkgreenblue","[""lightred"",""darkgreenblue"",""low nameability""]","left-right","[""lightred"",""darkgreenblue"",""low nameability""]","1","low nameability","9","left","trigger",""
"html-button-response","60","128352","0.0-42.0-0.0","CKN_121","121","","","","","","1326","<button class=""jspsych-btn""><img src=""stimuli/lightred.png"" style=""width: 200px;height: 200px;""></button>","0","lightred","darkgreenblue","[""lightred"",""darkgreenblue"",""low nameability""]","left-right","[""lightred"",""darkgreenblue"",""low nameability""]","1","low nameability","9","left","response","1"
"html-audio-button-response","61","128582","0.0-42.0-1.0","CKN_121","121","","","","","","null","stimuli/bleep.m4a","null","lightred","darkgreenblue","[""lightred"",""darkgreenblue"",""low nameability""]","left-right","[""lightred"",""darkgreenblue"",""low nameability""]","1","low nameability","9","left","audio_feedback","1"
"html-button-response","62","129097","0.0-43.0","CKN_121","121","","","","","","null","<button class=""jspsych-btn""><img src=""stimuli/white_square.png"" style=""width: 200px;height: 200px;""></button>","null","lightred","darkgreenblue","[""lightred"",""darkgreenblue"",""low nameability""]","left-right","[""lightred"",""darkgreenblue"",""low nameability""]","1","low nameability","9","left","iti",""
"html-button-response","63","130063","0.0-44.0","CKN_121","121","","","","","","954","","0","neonyellow","lightred","[""neonyellow"",""lightred"",""low nameability""]","right-left","[""lightred"",""neonyellow""]","1","low nameability","10","right","trigger",""
"html-button-response","64","132526","0.0-45.0-0.0","CKN_121","121","","","","","","2452","<button class=""jspsych-btn""><img src=""stimuli/neonyellow.png"" style=""width: 200px;height: 200px;""></button>","1","neonyellow","lightred","[""neonyellow"",""lightred"",""low nameability""]","right-left","[""lightred"",""neonyellow""]","1","low nameability","10","right","response","1"
"html-audio-button-response","65","132734","0.0-45.0-1.0","CKN_121","121","","","","","","null","stimuli/bleep.m4a","null","neonyellow","lightred","[""neonyellow"",""lightred"",""low nameability""]","right-left","[""lightred"",""neonyellow""]","1","low nameability","10","right","audio_feedback","1"
"html-button-response","66","133260","0.0-46.0","CKN_121","121","","","","","","null","<button class=""jspsych-btn""><img src=""stimuli/white_square.png"" style=""width: 200px;height: 200px;""></button>","null","neonyellow","lightred","[""neonyellow"",""lightred"",""low nameability""]","right-left","[""lightred"",""neonyellow""]","1","low nameability","10","right","iti",""
"pavlovia","67","133344","0.0-47.0","CKN_121","121","","","","","","","","","","","","","","","","","","",""
"pavlovia","68","133357","0.0-48.0","CKN_121","121","","","","","","","","","","","","","","","","","","",""
"html-audio-button-response","69","136744","0.0-49.0","CKN_121","121","","","","","","3491","stimuli/tada.m4a","0","","","","","","","","","","",""
"html-button-response","70","137253","0.0-50.0","CKN_121","121","","","","","","504","","0","","","","","","","","","","",""
"html-button-response","71","139520","0.0-51.0","CKN_121","121","","","","","","2260","","0","mustard","turquoise","[""mustard"",""turquoise"",""low nameability""]","left-right","[""mustard"",""turquoise"",""low nameability""]","2","low nameability","11","left","trigger",""
"html-button-response","72","145013","0.0-52.0-0.0","CKN_121","121","","","","","","5485","<button class=""jspsych-btn""><img src=""stimuli/mustard.png"" style=""width: 200px;height: 200px;""></button>","1","mustard","turquoise","[""mustard"",""turquoise"",""low nameability""]","left-right","[""mustard"",""turquoise"",""low nameability""]","2","low nameability","11","left","response","0"
"html-audio-button-response","73","145652","0.0-52.0-1.0","CKN_121","121","","","","","","null","stimuli/boing.m4a","null","mustard","turquoise","[""mustard"",""turquoise"",""low nameability""]","left-right","[""mustard"",""turquoise"",""low nameability""]","2","low nameability","11","left","audio_feedback","0"
"html-button-response","74","152477","0.0-52.1-0.1","CKN_121","121","","","","","","6787","<button class=""jspsych-btn""><img src=""stimuli/mustard.png"" style=""width: 200px;height: 200px;""></button>","1","mustard","turquoise","[""mustard"",""turquoise"",""low nameability""]","left-right","[""mustard"",""turquoise"",""low nameability""]","2","low nameability","11","left","response","0"
"html-audio-button-response","75","153105","0.0-52.1-1.1","CKN_121","121","","","","","","null","stimuli/boing.m4a","null","mustard","turquoise","[""mustard"",""turquoise"",""low nameability""]","left-right","[""mustard"",""turquoise"",""low nameability""]","2","low nameability","11","left","audio_feedback","0"
"html-button-response","76","160401","0.0-52.2-0.2","CKN_121","121","","","","","","7271","<button class=""jspsych-btn""><img src=""stimuli/mustard.png"" style=""width: 200px;height: 200px;""></button>","1","mustard","turquoise","[""mustard"",""turquoise"",""low nameability""]","left-right","[""mustard"",""turquoise"",""low nameability""]","2","low nameability","11","left","response","0"
"html-audio-button-response","77","161044","0.0-52.2-1.2","CKN_121","121","","","","","","null","stimuli/boing.m4a","null","mustard","turquoise","[""mustard"",""turquoise"",""low nameability""]","left-right","[""mustard"",""turquoise"",""low nameability""]","2","low nameability","11","left","audio_feedback","0"
"html-button-response","78","165488","0.0-52.3-0.3","CKN_121","121","","","","","","4399","<button class=""jspsych-btn""><img src=""stimuli/mustard.png"" style=""width: 200px;height: 200px;""></button>","1","mustard","turquoise","[""mustard"",""turquoise"",""low nameability""]","left-right","[""mustard"",""turquoise"",""low nameability""]","2","low nameability","11","left","response","0"
"html-audio-button-response","79","166113","0.0-52.3-1.3","CKN_121","121","","","","","","null","stimuli/boing.m4a","null","mustard","turquoise","[""mustard"",""turquoise"",""low nameability""]","left-right","[""mustard"",""turquoise"",""low nameability""]","2","low nameability","11","left","audio_feedback","0"
"html-button-response","80","167288","0.0-52.4-0.4","CKN_121","121","","","","","","1152","<button class=""jspsych-btn""><img src=""stimuli/mustard.png"" style=""width: 200px;height: 200px;""></button>","0","mustard","turquoise","[""mustard"",""turquoise"",""low nameability""]","left-right","[""mustard"",""turquoise"",""low nameability""]","2","low nameability","11","left","response","1"
"html-audio-button-response","81","167503","0.0-52.4-1.4","CKN_121","121","","","","","","null","stimuli/bleep.m4a","null","mustard","turquoise","[""mustard"",""turquoise"",""low nameability""]","left-right","[""mustard"",""turquoise"",""low nameability""]","2","low nameability","11","left","audio_feedback","1"
"html-button-response","82","168037","0.0-53.0","CKN_121","121","","","","","","null","<button class=""jspsych-btn""><img src=""stimuli/white_square.png"" style=""width: 200px;height: 200px;""></button>","null","mustard","turquoise","[""mustard"",""turquoise"",""low nameability""]","left-right","[""mustard"",""turquoise"",""low nameability""]","2","low nameability","11","left","iti",""
"html-button-response","83","170047","0.0-54.0","CKN_121","121","","","","","","1992","","0","darkgreenblue","mustard","[""darkgreenblue"",""mustard"",""low nameability""]","right-left","[""mustard"",""darkgreenblue""]","2","low nameability","12","right","trigger",""
"html-button-response","84","174646","0.0-55.0-0.0","CKN_121","121","","","","","","4589","<button class=""jspsych-btn""><img src=""stimuli/darkgreenblue.png"" style=""width: 200px;height: 200px;""></button>","0","darkgreenblue","mustard","[""darkgreenblue"",""mustard"",""low nameability""]","right-left","[""mustard"",""darkgreenblue""]","2","low nameability","12","right","response","0"
"html-audio-button-response","85","175306","0.0-55.0-1.0","CKN_121","121","","","","","","null","stimuli/boing.m4a","null","darkgreenblue","mustard","[""darkgreenblue"",""mustard"",""low nameability""]","right-left","[""mustard"",""darkgreenblue""]","2","low nameability","12","right","audio_feedback","0"
"html-button-response","86","178089","0.0-55.1-0.1","CKN_121","121","","","","","","2763","<button class=""jspsych-btn""><img src=""stimuli/darkgreenblue.png"" style=""width: 200px;height: 200px;""></button>","1","darkgreenblue","mustard","[""darkgreenblue"",""mustard"",""low nameability""]","right-left","[""mustard"",""darkgreenblue""]","2","low nameability","12","right","response","1"
"html-audio-button-response","87","178303","0.0-55.1-1.1","CKN_121","121","","","","","","null","stimuli/bleep.m4a","null","darkgreenblue","mustard","[""darkgreenblue"",""mustard"",""low nameability""]","right-left","[""mustard"",""darkgreenblue""]","2","low nameability","12","right","audio_feedback","1"
"html-button-response","88","178833","0.0-56.0","CKN_121","121","","","","","","null","<button class=""jspsych-btn""><img src=""stimuli/white_square.png"" style=""width: 200px;height: 200px;""></button>","null","darkgreenblue","mustard","[""darkgreenblue"",""mustard"",""low nameability""]","right-left","[""mustard"",""darkgreenblue""]","2","low nameability","12","right","iti",""
"html-button-response","89","180336","0.0-57.0","CKN_121","121","","","","","","1483","","0","mustard","neonyellow","[""mustard"",""neonyellow"",""low nameability""]","left-right","[""mustard"",""neonyellow"",""low nameability""]","2","low nameability","13","left","trigger",""
"html-button-response","90","183046","0.0-58.0-0.0","CKN_121","121","","","","","","2700","<button class=""jspsych-btn""><img src=""stimuli/mustard.png"" style=""width: 200px;height: 200px;""></button>","1","mustard","neonyellow","[""mustard"",""neonyellow"",""low nameability""]","left-right","[""mustard"",""neonyellow"",""low nameability""]","2","low nameability","13","left","response","0"
"html-audio-button-response","91","183671","0.0-58.0-1.0","CKN_121","121","","","","","","null","stimuli/boing.m4a","null","mustard","neonyellow","[""mustard"",""neonyellow"",""low nameability""]","left-right","[""mustard"",""neonyellow"",""low nameability""]","2","low nameability","13","left","audio_feedback","0"
"html-button-response","92","197630","0.0-58.1-0.1","CKN_121","121","","","","","","13927","<button class=""jspsych-btn""><img src=""stimuli/mustard.png"" style=""width: 200px;height: 200px;""></button>","1","mustard","neonyellow","[""mustard"",""neonyellow"",""low nameability""]","left-right","[""mustard"",""neonyellow"",""low nameability""]","2","low nameability","13","left","response","0"
"html-audio-button-response","93","198276","0.0-58.1-1.1","CKN_121","121","","","","","","null","stimuli/boing.m4a","null","mustard","neonyellow","[""mustard"",""neonyellow"",""low nameability""]","left-right","[""mustard"",""neonyellow"",""low nameability""]","2","low nameability","13","left","audio_feedback","0"
"html-button-response","94","200725","0.0-58.2-0.2","CKN_121","121","","","","","","2410","<button class=""jspsych-btn""><img src=""stimuli/mustard.png"" style=""width: 200px;height: 200px;""></button>","0","mustard","neonyellow","[""mustard"",""neonyellow"",""low nameability""]","left-right","[""mustard"",""neonyellow"",""low nameability""]","2","low nameability","13","left","response","1"
"html-audio-button-response","95","200932","0.0-58.2-1.2","CKN_121","121","","","","","","null","stimuli/bleep.m4a","null","mustard","neonyellow","[""mustard"",""neonyellow"",""low nameability""]","left-right","[""mustard"",""neonyellow"",""low nameability""]","2","low nameability","13","left","audio_feedback","1"
"html-button-response","96","201460","0.0-59.0","CKN_121","121","","","","","","null","<button class=""jspsych-btn""><img src=""stimuli/white_square.png"" style=""width: 200px;height: 200px;""></button>","null","mustard","neonyellow","[""mustard"",""neonyellow"",""low nameability""]","left-right","[""mustard"",""neonyellow"",""low nameability""]","2","low nameability","13","left","iti",""
"html-button-response","97","202251","0.0-60.0","CKN_121","121","","","","","","777","","0","lightred","neonyellow","[""lightred"",""neonyellow"",""low nameability""]","right-left","[""neonyellow"",""lightred""]","2","low nameability","14","right","trigger",""
"html-button-response","98","205622","0.0-61.0-0.0","CKN_121","121","","","","","","3364","<button class=""jspsych-btn""><img src=""stimuli/lightred.png"" style=""width: 200px;height: 200px;""></button>","1","lightred","neonyellow","[""lightred"",""neonyellow"",""low nameability""]","right-left","[""neonyellow"",""lightred""]","2","low nameability","14","right","response","1"
"html-audio-button-response","99","205836","0.0-61.0-1.0","CKN_121","121","","","","","","null","stimuli/bleep.m4a","null","lightred","neonyellow","[""lightred"",""neonyellow"",""low nameability""]","right-left","[""neonyellow"",""lightred""]","2","low nameability","14","right","audio_feedback","1"
"html-button-response","100","206359","0.0-62.0","CKN_121","121","","","","","","null","<button class=""jspsych-btn""><img src=""stimuli/white_square.png"" style=""width: 200px;height: 200px;""></button>","null","lightred","neonyellow","[""lightred"",""neonyellow"",""low nameability""]","right-left","[""neonyellow"",""lightred""]","2","low nameability","14","right","iti",""
"html-button-response","101","207008","0.0-63.0","CKN_121","121","","","","","","635","","0","purple","orange","[""purple"",""orange"",""high nameability""]","right-left","[""orange"",""purple""]","2","high nameability","15","right","trigger",""
"html-button-response","102","209263","0.0-64.0-0.0","CKN_121","121","","","","","","2248","<button class=""jspsych-btn""><img src=""stimuli/purple.png"" style=""width: 200px;height: 200px;""></button>","1","purple","orange","[""purple"",""orange"",""high nameability""]","right-left","[""orange"",""purple""]","2","high nameability","15","right","response","1"
"html-audio-button-response","103","209469","0.0-64.0-1.0","CKN_121","121","","","","","","null","stimuli/bleep.m4a","null","purple","orange","[""purple"",""orange"",""high nameability""]","right-left","[""orange"",""purple""]","2","high nameability","15","right","audio_feedback","1"
"html-button-response","104","209990","0.0-65.0","CKN_121","121","","","","","","null","<button class=""jspsych-btn""><img src=""stimuli/white_square.png"" style=""width: 200px;height: 200px;""></button>","null","purple","orange","[""purple"",""orange"",""high nameability""]","right-left","[""orange"",""purple""]","2","high nameability","15","right","iti",""
"html-button-response","105","210832","0.0-66.0","CKN_121","121","","","","","","825","","0","pink","neonyellow","[""pink"",""neonyellow"",""low nameability""]","left-right","[""pink"",""neonyellow"",""low nameability""]","2","low nameability","16","left","trigger",""
"html-button-response","106","212289","0.0-67.0-0.0","CKN_121","121","","","","","","1451","<button class=""jspsych-btn""><img src=""stimuli/pink.png"" style=""width: 200px;height: 200px;""></button>","0","pink","neonyellow","[""pink"",""neonyellow"",""low nameability""]","left-right","[""pink"",""neonyellow"",""low nameability""]","2","low nameability","16","left","response","1"
"html-audio-button-response","107","212494","0.0-67.0-1.0","CKN_121","121","","","","","","null","stimuli/bleep.m4a","null","pink","neonyellow","[""pink"",""neonyellow"",""low nameability""]","left-right","[""pink"",""neonyellow"",""low nameability""]","2","low nameability","16","left","audio_feedback","1"
"html-button-response","108","213012","0.0-68.0","CKN_121","121","","","","","","null","<button class=""jspsych-btn""><img src=""stimuli/white_square.png"" style=""width: 200px;height: 200px;""></button>","null","pink","neonyellow","[""pink"",""neonyellow"",""low nameability""]","left-right","[""pink"",""neonyellow"",""low nameability""]","2","low nameability","16","left","iti",""
"html-button-response","109","215102","0.0-69.0","CKN_121","121","","","","","","2080","","0","yellow","orange","[""yellow"",""orange"",""high nameability""]","left-right","[""yellow"",""orange"",""high nameability""]","2","high nameability","17","left","trigger",""
"html-button-response","110","216101","0.0-70.0-0.0","CKN_121","121","","","","","","992","<button class=""jspsych-btn""><img src=""stimuli/yellow.png"" style=""width: 200px;height: 200px;""></button>","0","yellow","orange","[""yellow"",""orange"",""high nameability""]","left-right","[""yellow"",""orange"",""high nameability""]","2","high nameability","17","left","response","1"
"html-audio-button-response","111","216309","0.0-70.0-1.0","CKN_121","121","","","","","","null","stimuli/bleep.m4a","null","yellow","orange","[""yellow"",""orange"",""high nameability""]","left-right","[""yellow"",""orange"",""high nameability""]","2","high nameability","17","left","audio_feedback","1"
"html-button-response","112","216826","0.0-71.0","CKN_121","121","","","","","","null","<button class=""jspsych-btn""><img src=""stimuli/white_square.png"" style=""width: 200px;height: 200px;""></button>","null","yellow","orange","[""yellow"",""orange"",""high nameability""]","left-right","[""yellow"",""orange"",""high nameability""]","2","high nameability","17","left","iti",""
"html-button-response","113","220841","0.0-72.0","CKN_121","121","","","","","","4003","","0","lightred","turquoise","[""lightred"",""turquoise"",""low nameability""]","right-left","[""turquoise"",""lightred""]","2","low nameability","18","right","trigger",""
"html-button-response","114","222297","0.0-73.0-0.0","CKN_121","121","","","","","","1445","<button class=""jspsych-btn""><img src=""stimuli/lightred.png"" style=""width: 200px;height: 200px;""></button>","1","lightred","turquoise","[""lightred"",""turquoise"",""low nameability""]","right-left","[""turquoise"",""lightred""]","2","low nameability","18","right","response","1"
"html-audio-button-response","115","222501","0.0-73.0-1.0","CKN_121","121","","","","","","null","stimuli/bleep.m4a","null","lightred","turquoise","[""lightred"",""turquoise"",""low nameability""]","right-left","[""turquoise"",""lightred""]","2","low nameability","18","right","audio_feedback","1"
"html-button-response","116","223010","0.0-74.0","CKN_121","121","","","","","","null","<button class=""jspsych-btn""><img src=""stimuli/white_square.png"" style=""width: 200px;height: 200px;""></button>","null","lightred","turquoise","[""lightred"",""turquoise"",""low nameability""]","right-left","[""turquoise"",""lightred""]","2","low nameability","18","right","iti",""
"html-button-response","117","224314","0.0-75.0","CKN_121","121","","","","","","1300","","0","yellow","brown","[""yellow"",""brown"",""high nameability""]","right-left","[""brown"",""yellow""]","2","high nameability","19","right","trigger",""
"html-button-response","118","225488","0.0-76.0-0.0","CKN_121","121","","","","","","1165","<button class=""jspsych-btn""><img src=""stimuli/yellow.png"" style=""width: 200px;height: 200px;""></button>","1","yellow","brown","[""yellow"",""brown"",""high nameability""]","right-left","[""brown"",""yellow""]","2","high nameability","19","right","response","1"
"html-audio-button-response","119","225692","0.0-76.0-1.0","CKN_121","121","","","","","","null","stimuli/bleep.m4a","null","yellow","brown","[""yellow"",""brown"",""high nameability""]","right-left","[""brown"",""yellow""]","2","high nameability","19","right","audio_feedback","1"
"html-button-response","120","226202","0.0-77.0","CKN_121","121","","","","","","null","<button class=""jspsych-btn""><img src=""stimuli/white_square.png"" style=""width: 200px;height: 200px;""></button>","null","yellow","brown","[""yellow"",""brown"",""high nameability""]","right-left","[""brown"",""yellow""]","2","high nameability","19","right","iti",""
"html-button-response","121","228171","0.0-78.0","CKN_121","121","","","","","","1963","","0","brown","blue","[""brown"",""blue"",""high nameability""]","right-left","[""blue"",""brown""]","2","high nameability","20","right","trigger",""
"html-button-response","122","229265","0.0-79.0-0.0","CKN_121","121","","","","","","1087","<button class=""jspsych-btn""><img src=""stimuli/brown.png"" style=""width: 200px;height: 200px;""></button>","1","brown","blue","[""brown"",""blue"",""high nameability""]","right-left","[""blue"",""brown""]","2","high nameability","20","right","response","1"
"html-audio-button-response","123","229469","0.0-79.0-1.0","CKN_121","121","","","","","","null","stimuli/bleep.m4a","null","brown","blue","[""brown"",""blue"",""high nameability""]","right-left","[""blue"",""brown""]","2","high nameability","20","right","audio_feedback","1"
"html-button-response","124","229983","0.0-80.0","CKN_121","121","","","","","","null","<button class=""jspsych-btn""><img src=""stimuli/white_square.png"" style=""width: 200px;height: 200px;""></button>","null","brown","blue","[""brown"",""blue"",""high nameability""]","right-left","[""blue"",""brown""]","2","high nameability","20","right","iti",""
"pavlovia","125","230082","0.0-81.0","CKN_121","121","","","","","","","","","","","","","","","","","","",""
"pavlovia","126","230092","0.0-82.0","CKN_121","121","","","","","","","","","","","","","","","","","","",""
"html-audio-button-response","127","282769","0.0-83.0","CKN_121","121","","","","","","52779","stimuli/tada.m4a","0","","","","","","","","","","",""
"html-button-response","128","283345","0.0-84.0","CKN_121","121","","","","","","569","","0","","","","","","","","","","",""
"html-button-response","129","284892","0.0-85.0","CKN_121","121","","","","","","1537","","0","blue","yellow","[""blue"",""yellow"",""high nameability""]","right-left","[""yellow"",""blue""]","3","high nameability","21","right","trigger",""
"html-button-response","130","285816","0.0-86.0-0.0","CKN_121","121","","","","","","916","<button class=""jspsych-btn""><img src=""stimuli/blue.png"" style=""width: 200px;height: 200px;""></button>","1","blue","yellow","[""blue"",""yellow"",""high nameability""]","right-left","[""yellow"",""blue""]","3","high nameability","21","right","response","1"
"html-audio-button-response","131","286021","0.0-86.0-1.0","CKN_121","121","","","","","","null","stimuli/bleep.m4a","null","blue","yellow","[""blue"",""yellow"",""high nameability""]","right-left","[""yellow"",""blue""]","3","high nameability","21","right","audio_feedback","1"
"html-button-response","132","286532","0.0-87.0","CKN_121","121","","","","","","null","<button class=""jspsych-btn""><img src=""stimuli/white_square.png"" style=""width: 200px;height: 200px;""></button>","null","blue","yellow","[""blue"",""yellow"",""high nameability""]","right-left","[""yellow"",""blue""]","3","high nameability","21","right","iti",""
"html-button-response","133","287781","0.0-88.0","CKN_121","121","","","","","","1238","","0","orange","blue","[""orange"",""blue"",""high nameability""]","left-right","[""orange"",""blue"",""high nameability""]","3","high nameability","22","left","trigger",""
"html-button-response","134","288652","0.0-89.0-0.0","CKN_121","121","","","","","","859","<button class=""jspsych-btn""><img src=""stimuli/orange.png"" style=""width: 200px;height: 200px;""></button>","1","orange","blue","[""orange"",""blue"",""high nameability""]","left-right","[""orange"",""blue"",""high nameability""]","3","high nameability","22","left","response","0"
"html-audio-button-response","135","289300","0.0-89.0-1.0","CKN_121","121","","","","","","null","stimuli/boing.m4a","null","orange","blue","[""orange"",""blue"",""high nameability""]","left-right","[""orange"",""blue"",""high nameability""]","3","high nameability","22","left","audio_feedback","0"
"html-button-response","136","289836","0.0-89.1-0.1","CKN_121","121","","","","","","517","<button class=""jspsych-btn""><img src=""stimuli/orange.png"" style=""width: 200px;height: 200px;""></button>","0","orange","blue","[""orange"",""blue"",""high nameability""]","left-right","[""orange"",""blue"",""high nameability""]","3","high nameability","22","left","response","1"
"html-audio-button-response","137","290044","0.0-89.1-1.1","CKN_121","121","","","","","","null","stimuli/bleep.m4a","null","orange","blue","[""orange"",""blue"",""high nameability""]","left-right","[""orange"",""blue"",""high nameability""]","3","high nameability","22","left","audio_feedback","1"
"html-button-response","138","290562","0.0-90.0","CKN_121","121","","","","","","null","<button class=""jspsych-btn""><img src=""stimuli/white_square.png"" style=""width: 200px;height: 200px;""></button>","null","orange","blue","[""orange"",""blue"",""high nameability""]","left-right","[""orange"",""blue"",""high nameability""]","3","high nameability","22","left","iti",""
"html-button-response","139","294229","0.0-91.0","CKN_121","121","","","","","","3650","","0","pink","lightred","[""pink"",""lightred"",""low nameability""]","left-right","[""pink"",""lightred"",""low nameability""]","3","low nameability","23","left","trigger",""
"html-button-response","140","295723","0.0-92.0-0.0","CKN_121","121","","","","","","1487","<button class=""jspsych-btn""><img src=""stimuli/pink.png"" style=""width: 200px;height: 200px;""></button>","0","pink","lightred","[""pink"",""lightred"",""low nameability""]","left-right","[""pink"",""lightred"",""low nameability""]","3","low nameability","23","left","response","1"
"html-audio-button-response","141","295933","0.0-92.0-1.0","CKN_121","121","","","","","","null","stimuli/bleep.m4a","null","pink","lightred","[""pink"",""lightred"",""low nameability""]","left-right","[""pink"",""lightred"",""low nameability""]","3","low nameability","23","left","audio_feedback","1"
"html-button-response","142","296446","0.0-93.0","CKN_121","121","","","","","","null","<button class=""jspsych-btn""><img src=""stimuli/white_square.png"" style=""width: 200px;height: 200px;""></button>","null","pink","lightred","[""pink"",""lightred"",""low nameability""]","left-right","[""pink"",""lightred"",""low nameability""]","3","low nameability","23","left","iti",""
"html-button-response","143","298694","0.0-94.0","CKN_121","121","","","","","","2233","","0","mustard","darkgreenblue","[""mustard"",""darkgreenblue"",""low nameability""]","right-left","[""darkgreenblue"",""mustard""]","3","low nameability","24","right","trigger",""
"html-button-response","144","300535","0.0-95.0-0.0","CKN_121","121","","","","","","1829","<button class=""jspsych-btn""><img src=""stimuli/mustard.png"" style=""width: 200px;height: 200px;""></button>","1","mustard","darkgreenblue","[""mustard"",""darkgreenblue"",""low nameability""]","right-left","[""darkgreenblue"",""mustard""]","3","low nameability","24","right","response","1"
"html-audio-button-response","145","300743","0.0-95.0-1.0","CKN_121","121","","","","","","null","stimuli/bleep.m4a","null","mustard","darkgreenblue","[""mustard"",""darkgreenblue"",""low nameability""]","right-left","[""darkgreenblue"",""mustard""]","3","low nameability","24","right","audio_feedback","1"
"html-button-response","146","301280","0.0-96.0","CKN_121","121","","","","","","null","<button class=""jspsych-btn""><img src=""stimuli/white_square.png"" style=""width: 200px;height: 200px;""></button>","null","mustard","darkgreenblue","[""mustard"",""darkgreenblue"",""low nameability""]","right-left","[""darkgreenblue"",""mustard""]","3","low nameability","24","right","iti",""
"html-button-response","147","302197","0.0-97.0","CKN_121","121","","","","","","897","","0","brown","red","[""brown"",""red"",""high nameability""]","right-left","[""red"",""brown""]","3","high nameability","25","right","trigger",""
"html-button-response","148","303203","0.0-98.0-0.0","CKN_121","121","","","","","","998","<button class=""jspsych-btn""><img src=""stimuli/brown.png"" style=""width: 200px;height: 200px;""></button>","1","brown","red","[""brown"",""red"",""high nameability""]","right-left","[""red"",""brown""]","3","high nameability","25","right","response","1"
"html-audio-button-response","149","303413","0.0-98.0-1.0","CKN_121","121","","","","","","null","stimuli/bleep.m4a","null","brown","red","[""brown"",""red"",""high nameability""]","right-left","[""red"",""brown""]","3","high nameability","25","right","audio_feedback","1"
"html-button-response","150","303929","0.0-99.0","CKN_121","121","","","","","","null","<button class=""jspsych-btn""><img src=""stimuli/white_square.png"" style=""width: 200px;height: 200px;""></button>","null","brown","red","[""brown"",""red"",""high nameability""]","right-left","[""red"",""brown""]","3","high nameability","25","right","iti",""
"html-button-response","151","304901","0.0-100.0","CKN_121","121","","","","","","960","","0","darkgreenblue","lightred","[""darkgreenblue"",""lightred"",""low nameability""]","left-right","[""darkgreenblue"",""lightred"",""low nameability""]","3","low nameability","26","left","trigger",""
"html-button-response","152","307976","0.0-101.0-0.0","CKN_121","121","","","","","","3066","<button class=""jspsych-btn""><img src=""stimuli/darkgreenblue.png"" style=""width: 200px;height: 200px;""></button>","0","darkgreenblue","lightred","[""darkgreenblue"",""lightred"",""low nameability""]","left-right","[""darkgreenblue"",""lightred"",""low nameability""]","3","low nameability","26","left","response","1"
"html-audio-button-response","153","308182","0.0-101.0-1.0","CKN_121","121","","","","","","null","stimuli/bleep.m4a","null","darkgreenblue","lightred","[""darkgreenblue"",""lightred"",""low nameability""]","left-right","[""darkgreenblue"",""lightred"",""low nameability""]","3","low nameability","26","left","audio_feedback","1"
"html-button-response","154","308711","0.0-102.0","CKN_121","121","","","","","","null","<button class=""jspsych-btn""><img src=""stimuli/white_square.png"" style=""width: 200px;height: 200px;""></button>","null","darkgreenblue","lightred","[""darkgreenblue"",""lightred"",""low nameability""]","left-right","[""darkgreenblue"",""lightred"",""low nameability""]","3","low nameability","26","left","iti",""
"html-button-response","155","312126","0.0-103.0","CKN_121","121","","","","","","3402","","0","purple","blue","[""purple"",""blue"",""high nameability""]","left-right","[""purple"",""blue"",""high nameability""]","3","high nameability","27","left","trigger",""
"html-button-response","156","313337","0.0-104.0-0.0","CKN_121","121","","","","","","1203","<button class=""jspsych-btn""><img src=""stimuli/purple.png"" style=""width: 200px;height: 200px;""></button>","0","purple","blue","[""purple"",""blue"",""high nameability""]","left-right","[""purple"",""blue"",""high nameability""]","3","high nameability","27","left","response","1"
"html-audio-button-response","157","313542","0.0-104.0-1.0","CKN_121","121","","","","","","null","stimuli/bleep.m4a","null","purple","blue","[""purple"",""blue"",""high nameability""]","left-right","[""purple"",""blue"",""high nameability""]","3","high nameability","27","left","audio_feedback","1"
"html-button-response","158","314056","0.0-105.0","CKN_121","121","","","","","","null","<button class=""jspsych-btn""><img src=""stimuli/white_square.png"" style=""width: 200px;height: 200px;""></button>","null","purple","blue","[""purple"",""blue"",""high nameability""]","left-right","[""purple"",""blue"",""high nameability""]","3","high nameability","27","left","iti",""
"html-button-response","159","315353","0.0-106.0","CKN_121","121","","","","","","1281","","0","orange","purple","[""orange"",""purple"",""high nameability""]","right-left","[""purple"",""orange""]","3","high nameability","28","right","trigger",""
"html-button-response","160","316473","0.0-107.0-0.0","CKN_121","121","","","","","","1112","<button class=""jspsych-btn""><img src=""stimuli/orange.png"" style=""width: 200px;height: 200px;""></button>","0","orange","purple","[""orange"",""purple"",""high nameability""]","right-left","[""purple"",""orange""]","3","high nameability","28","right","response","0"
"html-audio-button-response","161","317114","0.0-107.0-1.0","CKN_121","121","","","","","","null","stimuli/boing.m4a","null","orange","purple","[""orange"",""purple"",""high nameability""]","right-left","[""purple"",""orange""]","3","high nameability","28","right","audio_feedback","0"
"html-button-response","162","317665","0.0-107.1-0.1","CKN_121","121","","","","","","537","<button class=""jspsych-btn""><img src=""stimuli/orange.png"" style=""width: 200px;height: 200px;""></button>","1","orange","purple","[""orange"",""purple"",""high nameability""]","right-left","[""purple"",""orange""]","3","high nameability","28","right","response","1"
"html-audio-button-response","163","317869","0.0-107.1-1.1","CKN_121","121","","","","","","null","stimuli/bleep.m4a","null","orange","purple","[""orange"",""purple"",""high nameability""]","right-left","[""purple"",""orange""]","3","high nameability","28","right","audio_feedback","1"
"html-button-response","164","318383","0.0-108.0","CKN_121","121","","","","","","null","<button class=""jspsych-btn""><img src=""stimuli/white_square.png"" style=""width: 200px;height: 200px;""></button>","null","orange","purple","[""orange"",""purple"",""high nameability""]","right-left","[""purple"",""orange""]","3","high nameability","28","right","iti",""
"html-button-response","165","319518","0.0-109.0","CKN_121","121","","","","","","1120","","0","brown","yellow","[""brown"",""yellow"",""high nameability""]","left-right","[""brown"",""yellow"",""high nameability""]","3","high nameability","29","left","trigger",""
"html-button-response","166","322453","0.0-110.0-0.0","CKN_121","121","","","","","","2923","<button class=""jspsych-btn""><img src=""stimuli/brown.png"" style=""width: 200px;height: 200px;""></button>","0","brown","yellow","[""brown"",""yellow"",""high nameability""]","left-right","[""brown"",""yellow"",""high nameability""]","3","high nameability","29","left","response","1"
"html-audio-button-response","167","322663","0.0-110.0-1.0","CKN_121","121","","","","","","null","stimuli/bleep.m4a","null","brown","yellow","[""brown"",""yellow"",""high nameability""]","left-right","[""brown"",""yellow"",""high nameability""]","3","high nameability","29","left","audio_feedback","1"
"html-button-response","168","323183","0.0-111.0","CKN_121","121","","","","","","null","<button class=""jspsych-btn""><img src=""stimuli/white_square.png"" style=""width: 200px;height: 200px;""></button>","null","brown","yellow","[""brown"",""yellow"",""high nameability""]","left-right","[""brown"",""yellow"",""high nameability""]","3","high nameability","29","left","iti",""
"html-button-response","169","324326","0.0-112.0","CKN_121","121","","","","","","1127","","0","pink","darkgreenblue","[""pink"",""darkgreenblue"",""low nameability""]","left-right","[""pink"",""darkgreenblue"",""low nameability""]","3","low nameability","30","left","trigger",""
"html-button-response","170","326293","0.0-113.0-0.0","CKN_121","121","","","","","","1956","<button class=""jspsych-btn""><img src=""stimuli/pink.png"" style=""width: 200px;height: 200px;""></button>","0","pink","darkgreenblue","[""pink"",""darkgreenblue"",""low nameability""]","left-right","[""pink"",""darkgreenblue"",""low nameability""]","3","low nameability","30","left","response","1"
"html-audio-button-response","171","326512","0.0-113.0-1.0","CKN_121","121","","","","","","null","stimuli/bleep.m4a","null","pink","darkgreenblue","[""pink"",""darkgreenblue"",""low nameability""]","left-right","[""pink"",""darkgreenblue"",""low nameability""]","3","low nameability","30","left","audio_feedback","1"
"html-button-response","172","327026","0.0-114.0","CKN_121","121","","","","","","null","<button class=""jspsych-btn""><img src=""stimuli/white_square.png"" style=""width: 200px;height: 200px;""></button>","null","pink","darkgreenblue","[""pink"",""darkgreenblue"",""low nameability""]","left-right","[""pink"",""darkgreenblue"",""low nameability""]","3","low nameability","30","left","iti",""
"pavlovia","173","327091","0.0-115.0","CKN_121","121","","","","","","","","","","","","","","","","","","",""
"pavlovia","174","327104","0.0-116.0","CKN_121","121","","","","","","","","","","","","","","","","","","",""
"html-audio-button-response","175","330921","0.0-117.0","CKN_121","121","","","","","","3888","stimuli/tada.m4a","0","","","","","","","","","","",""
"html-button-response","176","331650","0.0-118.0","CKN_121","121","","","","","","724","","0","","","","","","","","","","",""
"html-button-response","177","334949","0.0-119.0","CKN_121","121","","","","","","3294","","0","red","yellow","[""red"",""yellow"",""high nameability""]","right-left","[""yellow"",""red""]","4","high nameability","31","right","trigger",""
"html-button-response","178","337207","0.0-120.0-0.0","CKN_121","121","","","","","","2250","<button class=""jspsych-btn""><img src=""stimuli/red.png"" style=""width: 200px;height: 200px;""></button>","1","red","yellow","[""red"",""yellow"",""high nameability""]","right-left","[""yellow"",""red""]","4","high nameability","31","right","response","1"
"html-audio-button-response","179","337429","0.0-120.0-1.0","CKN_121","121","","","","","","null","stimuli/bleep.m4a","null","red","yellow","[""red"",""yellow"",""high nameability""]","right-left","[""yellow"",""red""]","4","high nameability","31","right","audio_feedback","1"
"html-button-response","180","337951","0.0-121.0","CKN_121","121","","","","","","null","<button class=""jspsych-btn""><img src=""stimuli/white_square.png"" style=""width: 200px;height: 200px;""></button>","null","red","yellow","[""red"",""yellow"",""high nameability""]","right-left","[""yellow"",""red""]","4","high nameability","31","right","iti",""
"html-button-response","181","338920","0.0-122.0","CKN_121","121","","","","","","951","","0","red","purple","[""red"",""purple"",""high nameability""]","left-right","[""red"",""purple"",""high nameability""]","4","high nameability","32","left","trigger",""
"html-button-response","182","340076","0.0-123.0-0.0","CKN_121","121","","","","","","1150","<button class=""jspsych-btn""><img src=""stimuli/red.png"" style=""width: 200px;height: 200px;""></button>","0","red","purple","[""red"",""purple"",""high nameability""]","left-right","[""red"",""purple"",""high nameability""]","4","high nameability","32","left","response","1"
"html-audio-button-response","183","340288","0.0-123.0-1.0","CKN_121","121","","","","","","null","stimuli/bleep.m4a","null","red","purple","[""red"",""purple"",""high nameability""]","left-right","[""red"",""purple"",""high nameability""]","4","high nameability","32","left","audio_feedback","1"
"html-button-response","184","340819","0.0-124.0","CKN_121","121","","","","","","null","<button class=""jspsych-btn""><img src=""stimuli/white_square.png"" style=""width: 200px;height: 200px;""></button>","null","red","purple","[""red"",""purple"",""high nameability""]","left-right","[""red"",""purple"",""high nameability""]","4","high nameability","32","left","iti",""
"html-button-response","185","341952","0.0-125.0","CKN_121","121","","","","","","1116","","0","lightred","mustard","[""lightred"",""mustard"",""low nameability""]","right-left","[""mustard"",""lightred""]","4","low nameability","33","right","trigger",""
"html-button-response","186","342924","0.0-126.0-0.0","CKN_121","121","","","","","","966","<button class=""jspsych-btn""><img src=""stimuli/lightred.png"" style=""width: 200px;height: 200px;""></button>","1","lightred","mustard","[""lightred"",""mustard"",""low nameability""]","right-left","[""mustard"",""lightred""]","4","low nameability","33","right","response","1"
"html-audio-button-response","187","343158","0.0-126.0-1.0","CKN_121","121","","","","","","null","stimuli/bleep.m4a","null","lightred","mustard","[""lightred"",""mustard"",""low nameability""]","right-left","[""mustard"",""lightred""]","4","low nameability","33","right","audio_feedback","1"
"html-button-response","188","343669","0.0-127.0","CKN_121","121","","","","","","null","<button class=""jspsych-btn""><img src=""stimuli/white_square.png"" style=""width: 200px;height: 200px;""></button>","null","lightred","mustard","[""lightred"",""mustard"",""low nameability""]","right-left","[""mustard"",""lightred""]","4","low nameability","33","right","iti",""
"html-button-response","189","344726","0.0-128.0","CKN_121","121","","","","","","1042","","0","turquoise","pink","[""turquoise"",""pink"",""low nameability""]","left-right","[""turquoise"",""pink"",""low nameability""]","4","low nameability","34","left","trigger",""
"html-button-response","190","348175","0.0-129.0-0.0","CKN_121","121","","","","","","3438","<button class=""jspsych-btn""><img src=""stimuli/turquoise.png"" style=""width: 200px;height: 200px;""></button>","0","turquoise","pink","[""turquoise"",""pink"",""low nameability""]","left-right","[""turquoise"",""pink"",""low nameability""]","4","low nameability","34","left","response","1"
"html-audio-button-response","191","348374","0.0-129.0-1.0","CKN_121","121","","","","","","null","stimuli/bleep.m4a","null","turquoise","pink","[""turquoise"",""pink"",""low nameability""]","left-right","[""turquoise"",""pink"",""low nameability""]","4","low nameability","34","left","audio_feedback","1"
"html-button-response","192","348889","0.0-130.0","CKN_121","121","","","","","","162","<button class=""jspsych-btn""><img src=""stimuli/white_square.png"" style=""width: 200px;height: 200px;""></button>","0","turquoise","pink","[""turquoise"",""pink"",""low nameability""]","left-right","[""turquoise"",""pink"",""low nameability""]","4","low nameability","34","left","iti",""
"html-button-response","193","349985","0.0-131.0","CKN_121","121","","","","","","1089","","0","orange","brown","[""orange"",""brown"",""high nameability""]","left-right","[""orange"",""brown"",""high nameability""]","4","high nameability","35","left","trigger",""
"html-button-response","194","351965","0.0-132.0-0.0","CKN_121","121","","","","","","1974","<button class=""jspsych-btn""><img src=""stimuli/orange.png"" style=""width: 200px;height: 200px;""></button>","0","orange","brown","[""orange"",""brown"",""high nameability""]","left-right","[""orange"",""brown"",""high nameability""]","4","high nameability","35","left","response","1"
"html-audio-button-response","195","352173","0.0-132.0-1.0","CKN_121","121","","","","","","null","stimuli/bleep.m4a","null","orange","brown","[""orange"",""brown"",""high nameability""]","left-right","[""orange"",""brown"",""high nameability""]","4","high nameability","35","left","audio_feedback","1"
"html-button-response","196","352686","0.0-133.0","CKN_121","121","","","","","","null","<button class=""jspsych-btn""><img src=""stimuli/white_square.png"" style=""width: 200px;height: 200px;""></button>","null","orange","brown","[""orange"",""brown"",""high nameability""]","left-right","[""orange"",""brown"",""high nameability""]","4","high nameability","35","left","iti",""
"html-button-response","197","357915","0.0-134.0","CKN_121","121","","","","","","5222","","0","darkgreenblue","pink","[""darkgreenblue"",""pink"",""low nameability""]","left-right","[""darkgreenblue"",""pink"",""low nameability""]","4","low nameability","36","left","trigger",""
"html-button-response","198","366324","0.0-135.0-0.0","CKN_121","121","","","","","","8401","<button class=""jspsych-btn""><img src=""stimuli/darkgreenblue.png"" style=""width: 200px;height: 200px;""></button>","0","darkgreenblue","pink","[""darkgreenblue"",""pink"",""low nameability""]","left-right","[""darkgreenblue"",""pink"",""low nameability""]","4","low nameability","36","left","response","1"
"html-audio-button-response","199","366532","0.0-135.0-1.0","CKN_121","121","","","","","","null","stimuli/bleep.m4a","null","darkgreenblue","pink","[""darkgreenblue"",""pink"",""low nameability""]","left-right","[""darkgreenblue"",""pink"",""low nameability""]","4","low nameability","36","left","audio_feedback","1"
"html-button-response","200","367042","0.0-136.0","CKN_121","121","","","","","","null","<button class=""jspsych-btn""><img src=""stimuli/white_square.png"" style=""width: 200px;height: 200px;""></button>","null","darkgreenblue","pink","[""darkgreenblue"",""pink"",""low nameability""]","left-right","[""darkgreenblue"",""pink"",""low nameability""]","4","low nameability","36","left","iti",""
"html-button-response","201","368201","0.0-137.0","CKN_121","121","","","","","","1150","","0","yellow","red","[""yellow"",""red"",""high nameability""]","right-left","[""red"",""yellow""]","4","high nameability","37","right","trigger",""
"html-button-response","202","368988","0.0-138.0-0.0","CKN_121","121","","","","","","779","<button class=""jspsych-btn""><img src=""stimuli/yellow.png"" style=""width: 200px;height: 200px;""></button>","0","yellow","red","[""yellow"",""red"",""high nameability""]","right-left","[""red"",""yellow""]","4","high nameability","37","right","response","0"
"html-audio-button-response","203","369637","0.0-138.0-1.0","CKN_121","121","","","","","","null","stimuli/boing.m4a","null","yellow","red","[""yellow"",""red"",""high nameability""]","right-left","[""red"",""yellow""]","4","high nameability","37","right","audio_feedback","0"
"html-button-response","204","371231","0.0-138.1-0.1","CKN_121","121","","","","","","1563","<button class=""jspsych-btn""><img src=""stimuli/yellow.png"" style=""width: 200px;height: 200px;""></button>","1","yellow","red","[""yellow"",""red"",""high nameability""]","right-left","[""red"",""yellow""]","4","high nameability","37","right","response","1"
"html-audio-button-response","205","371445","0.0-138.1-1.1","CKN_121","121","","","","","","null","stimuli/bleep.m4a","null","yellow","red","[""yellow"",""red"",""high nameability""]","right-left","[""red"",""yellow""]","4","high nameability","37","right","audio_feedback","1"
"html-button-response","206","371956","0.0-139.0","CKN_121","121","","","","","","null","<button class=""jspsych-btn""><img src=""stimuli/white_square.png"" style=""width: 200px;height: 200px;""></button>","null","yellow","red","[""yellow"",""red"",""high nameability""]","right-left","[""red"",""yellow""]","4","high nameability","37","right","iti",""
"html-button-response","207","373053","0.0-140.0","CKN_121","121","","","","","","1091","","0","yellow","blue","[""yellow"",""blue"",""high nameability""]","right-left","[""blue"",""yellow""]","4","high nameability","38","right","trigger",""
"html-button-response","208","374879","0.0-141.0-0.0","CKN_121","121","","","","","","1818","<button class=""jspsych-btn""><img src=""stimuli/yellow.png"" style=""width: 200px;height: 200px;""></button>","1","yellow","blue","[""yellow"",""blue"",""high nameability""]","right-left","[""blue"",""yellow""]","4","high nameability","38","right","response","1"
"html-audio-button-response","209","375083","0.0-141.0-1.0","CKN_121","121","","","","","","null","stimuli/bleep.m4a","null","yellow","blue","[""yellow"",""blue"",""high nameability""]","right-left","[""blue"",""yellow""]","4","high nameability","38","right","audio_feedback","1"
"html-button-response","210","375594","0.0-142.0","CKN_121","121","","","","","","184","<button class=""jspsych-btn""><img src=""stimuli/white_square.png"" style=""width: 200px;height: 200px;""></button>","1","yellow","blue","[""yellow"",""blue"",""high nameability""]","right-left","[""blue"",""yellow""]","4","high nameability","38","right","iti",""
"html-button-response","211","376523","0.0-143.0","CKN_121","121","","","","","","920","","0","mustard","lightred","[""mustard"",""lightred"",""low nameability""]","left-right","[""mustard"",""lightred"",""low nameability""]","4","low nameability","39","left","trigger",""
"html-button-response","212","377746","0.0-144.0-0.0","CKN_121","121","","","","","","1217","<button class=""jspsych-btn""><img src=""stimuli/mustard.png"" style=""width: 200px;height: 200px;""></button>","0","mustard","lightred","[""mustard"",""lightred"",""low nameability""]","left-right","[""mustard"",""lightred"",""low nameability""]","4","low nameability","39","left","response","1"
"html-audio-button-response","213","377949","0.0-144.0-1.0","CKN_121","121","","","","","","null","stimuli/bleep.m4a","null","mustard","lightred","[""mustard"",""lightred"",""low nameability""]","left-right","[""mustard"",""lightred"",""low nameability""]","4","low nameability","39","left","audio_feedback","1"
"html-button-response","214","378460","0.0-145.0","CKN_121","121","","","","","","null","<button class=""jspsych-btn""><img src=""stimuli/white_square.png"" style=""width: 200px;height: 200px;""></button>","null","mustard","lightred","[""mustard"",""lightred"",""low nameability""]","left-right","[""mustard"",""lightred"",""low nameability""]","4","low nameability","39","left","iti",""
"html-button-response","215","379413","0.0-146.0","CKN_121","121","","","","","","942","","0","darkgreenblue","turquoise","[""darkgreenblue"",""turquoise"",""low nameability""]","right-left","[""turquoise"",""darkgreenblue""]","4","low nameability","40","right","trigger",""
"html-button-response","216","380681","0.0-147.0-0.0","CKN_121","121","","","","","","1259","<button class=""jspsych-btn""><img src=""stimuli/darkgreenblue.png"" style=""width: 200px;height: 200px;""></button>","1","darkgreenblue","turquoise","[""darkgreenblue"",""turquoise"",""low nameability""]","right-left","[""turquoise"",""darkgreenblue""]","4","low nameability","40","right","response","1"
"html-audio-button-response","217","380888","0.0-147.0-1.0","CKN_121","121","","","","","","null","stimuli/bleep.m4a","null","darkgreenblue","turquoise","[""darkgreenblue"",""turquoise"",""low nameability""]","right-left","[""turquoise"",""darkgreenblue""]","4","low nameability","40","right","audio_feedback","1"
"html-button-response","218","381414","0.0-148.0","CKN_121","121","","","","","","null","<button class=""jspsych-btn""><img src=""stimuli/white_square.png"" style=""width: 200px;height: 200px;""></button>","null","darkgreenblue","turquoise","[""darkgreenblue"",""turquoise"",""low nameability""]","right-left","[""turquoise"",""darkgreenblue""]","4","low nameability","40","right","iti",""
"pavlovia","219","381484","0.0-149.0","CKN_121","121","","","","","","","","","","","","","","","","","","",""
"pavlovia","220","381495","0.0-150.0","CKN_121","121","","","","","","","","","","","","","","","","","","",""
"html-audio-button-response","221","385541","0.0-151.0","CKN_121","121","","","","","","4128","stimuli/tada.m4a","0","","","","","","","","","","",""
"html-button-response","222","386746","0.0-152.0","CKN_121","121","","","","","","1200","","0","","","","","","","","","","",""
"html-button-response","223","389109","0.0-153.0","CKN_121","121","","","","","","2356","","0","turquoise","mustard","[""turquoise"",""mustard"",""low nameability""]","right-left","[""mustard"",""turquoise""]","5","low nameability","41","right","trigger",""
"html-button-response","224","390740","0.0-154.0-0.0","CKN_121","121","","","","","","1623","<button class=""jspsych-btn""><img src=""stimuli/turquoise.png"" style=""width: 200px;height: 200px;""></button>","1","turquoise","mustard","[""turquoise"",""mustard"",""low nameability""]","right-left","[""mustard"",""turquoise""]","5","low nameability","41","right","response","1"
"html-audio-button-response","225","390946","0.0-154.0-1.0","CKN_121","121","","","","","","null","stimuli/bleep.m4a","null","turquoise","mustard","[""turquoise"",""mustard"",""low nameability""]","right-left","[""mustard"",""turquoise""]","5","low nameability","41","right","audio_feedback","1"
"html-button-response","226","391461","0.0-155.0","CKN_121","121","","","","","","null","<button class=""jspsych-btn""><img src=""stimuli/white_square.png"" style=""width: 200px;height: 200px;""></button>","null","turquoise","mustard","[""turquoise"",""mustard"",""low nameability""]","right-left","[""mustard"",""turquoise""]","5","low nameability","41","right","iti",""
"html-button-response","227","392574","0.0-156.0","CKN_121","121","","","","","","1098","","0","orange","yellow","[""orange"",""yellow"",""high nameability""]","left-right","[""orange"",""yellow"",""high nameability""]","5","high nameability","42","left","trigger",""
"html-button-response","228","393607","0.0-157.0-0.0","CKN_121","121","","","","","","1026","<button class=""jspsych-btn""><img src=""stimuli/orange.png"" style=""width: 200px;height: 200px;""></button>","0","orange","yellow","[""orange"",""yellow"",""high nameability""]","left-right","[""orange"",""yellow"",""high nameability""]","5","high nameability","42","left","response","1"
"html-audio-button-response","229","393813","0.0-157.0-1.0","CKN_121","121","","","","","","null","stimuli/bleep.m4a","null","orange","yellow","[""orange"",""yellow"",""high nameability""]","left-right","[""orange"",""yellow"",""high nameability""]","5","high nameability","42","left","audio_feedback","1"
"html-button-response","230","394331","0.0-158.0","CKN_121","121","","","","","","null","<button class=""jspsych-btn""><img src=""stimuli/white_square.png"" style=""width: 200px;height: 200px;""></button>","null","orange","yellow","[""orange"",""yellow"",""high nameability""]","left-right","[""orange"",""yellow"",""high nameability""]","5","high nameability","42","left","iti",""
"html-button-response","231","396762","0.0-159.0","CKN_121","121","","","","","","2417","","0","brown","orange","[""brown"",""orange"",""high nameability""]","right-left","[""orange"",""brown""]","5","high nameability","43","right","trigger",""
"html-button-response","232","398329","0.0-160.0-0.0","CKN_121","121","","","","","","1556","<button class=""jspsych-btn""><img src=""stimuli/brown.png"" style=""width: 200px;height: 200px;""></button>","1","brown","orange","[""brown"",""orange"",""high nameability""]","right-left","[""orange"",""brown""]","5","high nameability","43","right","response","1"
"html-audio-button-response","233","398540","0.0-160.0-1.0","CKN_121","121","","","","","","null","stimuli/bleep.m4a","null","brown","orange","[""brown"",""orange"",""high nameability""]","right-left","[""orange"",""brown""]","5","high nameability","43","right","audio_feedback","1"
"html-button-response","234","399051","0.0-161.0","CKN_121","121","","","","","","null","<button class=""jspsych-btn""><img src=""stimuli/white_square.png"" style=""width: 200px;height: 200px;""></button>","null","brown","orange","[""brown"",""orange"",""high nameability""]","right-left","[""orange"",""brown""]","5","high nameability","43","right","iti",""
"html-button-response","235","400333","0.0-162.0","CKN_121","121","","","","","","1269","","0","red","brown","[""red"",""brown"",""high nameability""]","right-left","[""brown"",""red""]","5","high nameability","44","right","trigger",""
"html-button-response","236","401703","0.0-163.0-0.0","CKN_121","121","","","","","","1362","<button class=""jspsych-btn""><img src=""stimuli/red.png"" style=""width: 200px;height: 200px;""></button>","1","red","brown","[""red"",""brown"",""high nameability""]","right-left","[""brown"",""red""]","5","high nameability","44","right","response","1"
"html-audio-button-response","237","401918","0.0-163.0-1.0","CKN_121","121","","","","","","null","stimuli/bleep.m4a","null","red","brown","[""red"",""brown"",""high nameability""]","right-left","[""brown"",""red""]","5","high nameability","44","right","audio_feedback","1"
"html-button-response","238","402443","0.0-164.0","CKN_121","121","","","","","","null","<button class=""jspsych-btn""><img src=""stimuli/white_square.png"" style=""width: 200px;height: 200px;""></button>","null","red","brown","[""red"",""brown"",""high nameability""]","right-left","[""brown"",""red""]","5","high nameability","44","right","iti",""
"html-button-response","239","403476","0.0-165.0","CKN_121","121","","","","","","1017","","0","lightred","pink","[""lightred"",""pink"",""low nameability""]","left-right","[""lightred"",""pink"",""low nameability""]","5","low nameability","45","left","trigger",""
"html-button-response","240","404624","0.0-166.0-0.0","CKN_121","121","","","","","","1139","<button class=""jspsych-btn""><img src=""stimuli/lightred.png"" style=""width: 200px;height: 200px;""></button>","0","lightred","pink","[""lightred"",""pink"",""low nameability""]","left-right","[""lightred"",""pink"",""low nameability""]","5","low nameability","45","left","response","1"
"html-audio-button-response","241","404828","0.0-166.0-1.0","CKN_121","121","","","","","","null","stimuli/bleep.m4a","null","lightred","pink","[""lightred"",""pink"",""low nameability""]","left-right","[""lightred"",""pink"",""low nameability""]","5","low nameability","45","left","audio_feedback","1"
"html-button-response","242","405341","0.0-167.0","CKN_121","121","","","","","","null","<button class=""jspsych-btn""><img src=""stimuli/white_square.png"" style=""width: 200px;height: 200px;""></button>","null","lightred","pink","[""lightred"",""pink"",""low nameability""]","left-right","[""lightred"",""pink"",""low nameability""]","5","low nameability","45","left","iti",""
"html-button-response","243","406392","0.0-168.0","CKN_121","121","","","","","","1040","","0","neonyellow","darkgreenblue","[""neonyellow"",""darkgreenblue"",""low nameability""]","left-right","[""neonyellow"",""darkgreenblue"",""low nameability""]","5","low nameability","46","left","trigger",""
"html-button-response","244","407686","0.0-169.0-0.0","CKN_121","121","","","","","","1287","<button class=""jspsych-btn""><img src=""stimuli/neonyellow.png"" style=""width: 200px;height: 200px;""></button>","0","neonyellow","darkgreenblue","[""neonyellow"",""darkgreenblue"",""low nameability""]","left-right","[""neonyellow"",""darkgreenblue"",""low nameability""]","5","low nameability","46","left","response","1"
"html-audio-button-response","245","407898","0.0-169.0-1.0","CKN_121","121","","","","","","null","stimuli/bleep.m4a","null","neonyellow","darkgreenblue","[""neonyellow"",""darkgreenblue"",""low nameability""]","left-right","[""neonyellow"",""darkgreenblue"",""low nameability""]","5","low nameability","46","left","audio_feedback","1"
"html-button-response","246","408413","0.0-170.0","CKN_121","121","","","","","","null","<button class=""jspsych-btn""><img src=""stimuli/white_square.png"" style=""width: 200px;height: 200px;""></button>","null","neonyellow","darkgreenblue","[""neonyellow"",""darkgreenblue"",""low nameability""]","left-right","[""neonyellow"",""darkgreenblue"",""low nameability""]","5","low nameability","46","left","iti",""
"html-button-response","247","410350","0.0-171.0","CKN_121","121","","","","","","1924","","0","yellow","purple","[""yellow"",""purple"",""high nameability""]","left-right","[""yellow"",""purple"",""high nameability""]","5","high nameability","47","left","trigger",""
"html-button-response","248","413214","0.0-172.0-0.0","CKN_121","121","","","","","","2856","<button class=""jspsych-btn""><img src=""stimuli/yellow.png"" style=""width: 200px;height: 200px;""></button>","0","yellow","purple","[""yellow"",""purple"",""high nameability""]","left-right","[""yellow"",""purple"",""high nameability""]","5","high nameability","47","left","response","1"
"html-audio-button-response","249","413428","0.0-172.0-1.0","CKN_121","121","","","","","","null","stimuli/bleep.m4a","null","yellow","purple","[""yellow"",""purple"",""high nameability""]","left-right","[""yellow"",""purple"",""high nameability""]","5","high nameability","47","left","audio_feedback","1"
"html-button-response","250","413942","0.0-173.0","CKN_121","121","","","","","","null","<button class=""jspsych-btn""><img src=""stimuli/white_square.png"" style=""width: 200px;height: 200px;""></button>","null","yellow","purple","[""yellow"",""purple"",""high nameability""]","left-right","[""yellow"",""purple"",""high nameability""]","5","high nameability","47","left","iti",""
"html-button-response","251","414928","0.0-174.0","CKN_121","121","","","","","","974","","0","red","orange","[""red"",""orange"",""high nameability""]","right-left","[""orange"",""red""]","5","high nameability","48","right","trigger",""
"html-button-response","252","416436","0.0-175.0-0.0","CKN_121","121","","","","","","1501","<button class=""jspsych-btn""><img src=""stimuli/red.png"" style=""width: 200px;height: 200px;""></button>","1","red","orange","[""red"",""orange"",""high nameability""]","right-left","[""orange"",""red""]","5","high nameability","48","right","response","1"
"html-audio-button-response","253","416643","0.0-175.0-1.0","CKN_121","121","","","","","","null","stimuli/bleep.m4a","null","red","orange","[""red"",""orange"",""high nameability""]","right-left","[""orange"",""red""]","5","high nameability","48","right","audio_feedback","1"
"html-button-response","254","417159","0.0-176.0","CKN_121","121","","","","","","null","<button class=""jspsych-btn""><img src=""stimuli/white_square.png"" style=""width: 200px;height: 200px;""></button>","null","red","orange","[""red"",""orange"",""high nameability""]","right-left","[""orange"",""red""]","5","high nameability","48","right","iti",""
"html-button-response","255","417890","0.0-177.0","CKN_121","121","","","","","","726","","0","red","blue","[""red"",""blue"",""high nameability""]","left-right","[""red"",""blue"",""high nameability""]","5","high nameability","49","left","trigger",""
"html-button-response","256","419634","0.0-178.0-0.0","CKN_121","121","","","","","","1733","<button class=""jspsych-btn""><img src=""stimuli/red.png"" style=""width: 200px;height: 200px;""></button>","0","red","blue","[""red"",""blue"",""high nameability""]","left-right","[""red"",""blue"",""high nameability""]","5","high nameability","49","left","response","1"
"html-audio-button-response","257","419837","0.0-178.0-1.0","CKN_121","121","","","","","","null","stimuli/bleep.m4a","null","red","blue","[""red"",""blue"",""high nameability""]","left-right","[""red"",""blue"",""high nameability""]","5","high nameability","49","left","audio_feedback","1"
"html-button-response","258","420347","0.0-179.0","CKN_121","121","","","","","","null","<button class=""jspsych-btn""><img src=""stimuli/white_square.png"" style=""width: 200px;height: 200px;""></button>","null","red","blue","[""red"",""blue"",""high nameability""]","left-right","[""red"",""blue"",""high nameability""]","5","high nameability","49","left","iti",""
"html-button-response","259","421241","0.0-180.0","CKN_121","121","","","","","","882","","0","mustard","pink","[""mustard"",""pink"",""low nameability""]","right-left","[""pink"",""mustard""]","5","low nameability","50","right","trigger",""
"html-button-response","260","423499","0.0-181.0-0.0","CKN_121","121","","","","","","2250","<button class=""jspsych-btn""><img src=""stimuli/mustard.png"" style=""width: 200px;height: 200px;""></button>","1","mustard","pink","[""mustard"",""pink"",""low nameability""]","right-left","[""pink"",""mustard""]","5","low nameability","50","right","response","1"
"html-audio-button-response","261","423702","0.0-181.0-1.0","CKN_121","121","","","","","","null","stimuli/bleep.m4a","null","mustard","pink","[""mustard"",""pink"",""low nameability""]","right-left","[""pink"",""mustard""]","5","low nameability","50","right","audio_feedback","1"
"html-button-response","262","424217","0.0-182.0","CKN_121","121","","","","","","null","<button class=""jspsych-btn""><img src=""stimuli/white_square.png"" style=""width: 200px;height: 200px;""></button>","null","mustard","pink","[""mustard"",""pink"",""low nameability""]","right-left","[""pink"",""mustard""]","5","low nameability","50","right","iti",""
"pavlovia","263","424261","0.0-183.0","CKN_121","121","","","","","","","","","","","","","","","","","","",""
"pavlovia","264","424269","0.0-184.0","CKN_121","121","","","","","","","","","","","","","","","","","","",""
"html-audio-button-response","265","429173","0.0-185.0","CKN_121","121","","","","","","4952","stimuli/tada.m4a","0","","","","","","","","","","",""
"html-button-response","266","429929","0.0-186.0","CKN_121","121","","","","","","750","","0","","","","","","","","","","",""
"html-button-response","267","431355","0.0-187.0","CKN_121","121","","","","","","1422","","0","blue","brown","[""blue"",""brown"",""high nameability""]","left-right","[""blue"",""brown"",""high nameability""]","6","high nameability","51","left","trigger",""
"html-button-response","268","432401","0.0-188.0-0.0","CKN_121","121","","","","","","1037","<button class=""jspsych-btn""><img src=""stimuli/blue.png"" style=""width: 200px;height: 200px;""></button>","0","blue","brown","[""blue"",""brown"",""high nameability""]","left-right","[""blue"",""brown"",""high nameability""]","6","high nameability","51","left","response","1"
"html-audio-button-response","269","432605","0.0-188.0-1.0","CKN_121","121","","","","","","null","stimuli/bleep.m4a","null","blue","brown","[""blue"",""brown"",""high nameability""]","left-right","[""blue"",""brown"",""high nameability""]","6","high nameability","51","left","audio_feedback","1"
"html-button-response","270","433119","0.0-189.0","CKN_121","121","","","","","","null","<button class=""jspsych-btn""><img src=""stimuli/white_square.png"" style=""width: 200px;height: 200px;""></button>","null","blue","brown","[""blue"",""brown"",""high nameability""]","left-right","[""blue"",""brown"",""high nameability""]","6","high nameability","51","left","iti",""
"html-button-response","271","433906","0.0-190.0","CKN_121","121","","","","","","774","","0","turquoise","lightred","[""turquoise"",""lightred"",""low nameability""]","right-left","[""lightred"",""turquoise""]","6","low nameability","52","right","trigger",""
"html-button-response","272","434814","0.0-191.0-0.0","CKN_121","121","","","","","","901","<button class=""jspsych-btn""><img src=""stimuli/turquoise.png"" style=""width: 200px;height: 200px;""></button>","0","turquoise","lightred","[""turquoise"",""lightred"",""low nameability""]","right-left","[""lightred"",""turquoise""]","6","low nameability","52","right","response","0"
"html-audio-button-response","273","435447","0.0-191.0-1.0","CKN_121","121","","","","","","null","stimuli/boing.m4a","null","turquoise","lightred","[""turquoise"",""lightred"",""low nameability""]","right-left","[""lightred"",""turquoise""]","6","low nameability","52","right","audio_feedback","0"
"html-button-response","274","435724","0.0-191.1-0.1","CKN_121","121","","","","","","256","<button class=""jspsych-btn""><img src=""stimuli/turquoise.png"" style=""width: 200px;height: 200px;""></button>","1","turquoise","lightred","[""turquoise"",""lightred"",""low nameability""]","right-left","[""lightred"",""turquoise""]","6","low nameability","52","right","response","1"
"html-audio-button-response","275","435936","0.0-191.1-1.1","CKN_121","121","","","","","","null","stimuli/bleep.m4a","null","turquoise","lightred","[""turquoise"",""lightred"",""low nameability""]","right-left","[""lightred"",""turquoise""]","6","low nameability","52","right","audio_feedback","1"
"html-button-response","276","436455","0.0-192.0","CKN_121","121","","","","","","null","<button class=""jspsych-btn""><img src=""stimuli/white_square.png"" style=""width: 200px;height: 200px;""></button>","null","turquoise","lightred","[""turquoise"",""lightred"",""low nameability""]","right-left","[""lightred"",""turquoise""]","6","low nameability","52","right","iti",""
"html-button-response","277","436921","0.0-193.0","CKN_121","121","","","","","","454","","0","neonyellow","turquoise","[""neonyellow"",""turquoise"",""low nameability""]","right-left","[""turquoise"",""neonyellow""]","6","low nameability","53","right","trigger",""
"html-button-response","278","438884","0.0-194.0-0.0","CKN_121","121","","","","","","1957","<button class=""jspsych-btn""><img src=""stimuli/neonyellow.png"" style=""width: 200px;height: 200px;""></button>","1","neonyellow","turquoise","[""neonyellow"",""turquoise"",""low nameability""]","right-left","[""turquoise"",""neonyellow""]","6","low nameability","53","right","response","1"
"html-audio-button-response","279","439092","0.0-194.0-1.0","CKN_121","121","","","","","","null","stimuli/bleep.m4a","null","neonyellow","turquoise","[""neonyellow"",""turquoise"",""low nameability""]","right-left","[""turquoise"",""neonyellow""]","6","low nameability","53","right","audio_feedback","1"
"html-button-response","280","439606","0.0-195.0","CKN_121","121","","","","","","null","<button class=""jspsych-btn""><img src=""stimuli/white_square.png"" style=""width: 200px;height: 200px;""></button>","null","neonyellow","turquoise","[""neonyellow"",""turquoise"",""low nameability""]","right-left","[""turquoise"",""neonyellow""]","6","low nameability","53","right","iti",""
"html-button-response","281","440315","0.0-196.0","CKN_121","121","","","","","","698","","0","blue","purple","[""blue"",""purple"",""high nameability""]","left-right","[""blue"",""purple"",""high nameability""]","6","high nameability","54","left","trigger",""
"html-button-response","282","441468","0.0-197.0-0.0","CKN_121","121","","","","","","1145","<button class=""jspsych-btn""><img src=""stimuli/blue.png"" style=""width: 200px;height: 200px;""></button>","0","blue","purple","[""blue"",""purple"",""high nameability""]","left-right","[""blue"",""purple"",""high nameability""]","6","high nameability","54","left","response","1"
"html-audio-button-response","283","441669","0.0-197.0-1.0","CKN_121","121","","","","","","null","stimuli/bleep.m4a","null","blue","purple","[""blue"",""purple"",""high nameability""]","left-right","[""blue"",""purple"",""high nameability""]","6","high nameability","54","left","audio_feedback","1"
"html-button-response","284","442179","0.0-198.0","CKN_121","121","","","","","","null","<button class=""jspsych-btn""><img src=""stimuli/white_square.png"" style=""width: 200px;height: 200px;""></button>","null","blue","purple","[""blue"",""purple"",""high nameability""]","left-right","[""blue"",""purple"",""high nameability""]","6","high nameability","54","left","iti",""
"html-button-response","285","444029","0.0-199.0","CKN_121","121","","","","","","1833","","0","purple","red","[""purple"",""red"",""high nameability""]","left-right","[""purple"",""red"",""high nameability""]","6","high nameability","55","left","trigger",""
"html-button-response","286","445859","0.0-200.0-0.0","CKN_121","121","","","","","","1823","<button class=""jspsych-btn""><img src=""stimuli/purple.png"" style=""width: 200px;height: 200px;""></button>","0","purple","red","[""purple"",""red"",""high nameability""]","left-right","[""purple"",""red"",""high nameability""]","6","high nameability","55","left","response","1"
"html-audio-button-response","287","446073","0.0-200.0-1.0","CKN_121","121","","","","","","null","stimuli/bleep.m4a","null","purple","red","[""purple"",""red"",""high nameability""]","left-right","[""purple"",""red"",""high nameability""]","6","high nameability","55","left","audio_feedback","1"
"html-button-response","288","446589","0.0-201.0","CKN_121","121","","","","","","null","<button class=""jspsych-btn""><img src=""stimuli/white_square.png"" style=""width: 200px;height: 200px;""></button>","null","purple","red","[""purple"",""red"",""high nameability""]","left-right","[""purple"",""red"",""high nameability""]","6","high nameability","55","left","iti",""
"html-button-response","289","447401","0.0-202.0","CKN_121","121","","","","","","801","","0","turquoise","neonyellow","[""turquoise"",""neonyellow"",""low nameability""]","right-left","[""neonyellow"",""turquoise""]","6","low nameability","56","right","trigger",""
"html-button-response","290","449518","0.0-203.0-0.0","CKN_121","121","","","","","","2111","<button class=""jspsych-btn""><img src=""stimuli/turquoise.png"" style=""width: 200px;height: 200px;""></button>","1","turquoise","neonyellow","[""turquoise"",""neonyellow"",""low nameability""]","right-left","[""neonyellow"",""turquoise""]","6","low nameability","56","right","response","1"
"html-audio-button-response","291","449727","0.0-203.0-1.0","CKN_121","121","","","","","","null","stimuli/bleep.m4a","null","turquoise","neonyellow","[""turquoise"",""neonyellow"",""low nameability""]","right-left","[""neonyellow"",""turquoise""]","6","low nameability","56","right","audio_feedback","1"
"html-button-response","292","450239","0.0-204.0","CKN_121","121","","","","","","null","<button class=""jspsych-btn""><img src=""stimuli/white_square.png"" style=""width: 200px;height: 200px;""></button>","null","turquoise","neonyellow","[""turquoise"",""neonyellow"",""low nameability""]","right-left","[""neonyellow"",""turquoise""]","6","low nameability","56","right","iti",""
"html-button-response","293","451326","0.0-205.0","CKN_121","121","","","","","","1069","","0","neonyellow","pink","[""neonyellow"",""pink"",""low nameability""]","left-right","[""neonyellow"",""pink"",""low nameability""]","6","low nameability","57","left","trigger",""
"html-button-response","294","454086","0.0-206.0-0.0","CKN_121","121","","","","","","2753","<button class=""jspsych-btn""><img src=""stimuli/neonyellow.png"" style=""width: 200px;height: 200px;""></button>","0","neonyellow","pink","[""neonyellow"",""pink"",""low nameability""]","left-right","[""neonyellow"",""pink"",""low nameability""]","6","low nameability","57","left","response","1"
"html-audio-button-response","295","454295","0.0-206.0-1.0","CKN_121","121","","","","","","null","stimuli/bleep.m4a","null","neonyellow","pink","[""neonyellow"",""pink"",""low nameability""]","left-right","[""neonyellow"",""pink"",""low nameability""]","6","low nameability","57","left","audio_feedback","1"
"html-button-response","296","454817","0.0-207.0","CKN_121","121","","","","","","null","<button class=""jspsych-btn""><img src=""stimuli/white_square.png"" style=""width: 200px;height: 200px;""></button>","null","neonyellow","pink","[""neonyellow"",""pink"",""low nameability""]","left-right","[""neonyellow"",""pink"",""low nameability""]","6","low nameability","57","left","iti",""
"html-button-response","297","455983","0.0-208.0","CKN_121","121","","","","","","1154","","0","pink","mustard","[""pink"",""mustard"",""low nameability""]","left-right","[""pink"",""mustard"",""low nameability""]","6","low nameability","58","left","trigger",""
"html-button-response","298","457063","0.0-209.0-0.0","CKN_121","121","","","","","","1072","<button class=""jspsych-btn""><img src=""stimuli/pink.png"" style=""width: 200px;height: 200px;""></button>","0","pink","mustard","[""pink"",""mustard"",""low nameability""]","left-right","[""pink"",""mustard"",""low nameability""]","6","low nameability","58","left","response","1"
"html-audio-button-response","299","457274","0.0-209.0-1.0","CKN_121","121","","","","","","null","stimuli/bleep.m4a","null","pink","mustard","[""pink"",""mustard"",""low nameability""]","left-right","[""pink"",""mustard"",""low nameability""]","6","low nameability","58","left","audio_feedback","1"
"html-button-response","300","457798","0.0-210.0","CKN_121","121","","","","","","null","<button class=""jspsych-btn""><img src=""stimuli/white_square.png"" style=""width: 200px;height: 200px;""></button>","null","pink","mustard","[""pink"",""mustard"",""low nameability""]","left-right","[""pink"",""mustard"",""low nameability""]","6","low nameability","58","left","iti",""
"html-button-response","301","458850","0.0-211.0","CKN_121","121","","","","","","1035","","0","purple","brown","[""purple"",""brown"",""high nameability""]","right-left","[""brown"",""purple""]","6","high nameability","59","right","trigger",""
"html-button-response","302","459638","0.0-212.0-0.0","CKN_121","121","","","","","","780","<button class=""jspsych-btn""><img src=""stimuli/purple.png"" style=""width: 200px;height: 200px;""></button>","0","purple","brown","[""purple"",""brown"",""high nameability""]","right-left","[""brown"",""purple""]","6","high nameability","59","right","response","0"
"html-audio-button-response","303","460263","0.0-212.0-1.0","CKN_121","121","","","","","","null","stimuli/boing.m4a","null","purple","brown","[""purple"",""brown"",""high nameability""]","right-left","[""brown"",""purple""]","6","high nameability","59","right","audio_feedback","0"
"html-button-response","304","460613","0.0-212.1-0.1","CKN_121","121","","","","","","330","<button class=""jspsych-btn""><img src=""stimuli/purple.png"" style=""width: 200px;height: 200px;""></button>","1","purple","brown","[""purple"",""brown"",""high nameability""]","right-left","[""brown"",""purple""]","6","high nameability","59","right","response","1"
"html-audio-button-response","305","460820","0.0-212.1-1.1","CKN_121","121","","","","","","null","stimuli/bleep.m4a","null","purple","brown","[""purple"",""brown"",""high nameability""]","right-left","[""brown"",""purple""]","6","high nameability","59","right","audio_feedback","1"
"html-button-response","306","461332","0.0-213.0","CKN_121","121","","","","","","null","<button class=""jspsych-btn""><img src=""stimuli/white_square.png"" style=""width: 200px;height: 200px;""></button>","null","purple","brown","[""purple"",""brown"",""high nameability""]","right-left","[""brown"",""purple""]","6","high nameability","59","right","iti",""
"html-button-response","307","464640","0.0-214.0","CKN_121","121","","","","","","3295","","0","brown","purple","[""brown"",""purple"",""high nameability""]","right-left","[""purple"",""brown""]","6","high nameability","60","right","trigger",""
"html-button-response","308","465728","0.0-215.0-0.0","CKN_121","121","","","","","","1080","<button class=""jspsych-btn""><img src=""stimuli/brown.png"" style=""width: 200px;height: 200px;""></button>","1","brown","purple","[""brown"",""purple"",""high nameability""]","right-left","[""purple"",""brown""]","6","high nameability","60","right","response","1"
"html-audio-button-response","309","465942","0.0-215.0-1.0","CKN_121","121","","","","","","null","stimuli/bleep.m4a","null","brown","purple","[""brown"",""purple"",""high nameability""]","right-left","[""purple"",""brown""]","6","high nameability","60","right","audio_feedback","1"
"html-button-response","310","466453","0.0-216.0","CKN_121","121","","","","","","null","<button class=""jspsych-btn""><img src=""stimuli/white_square.png"" style=""width: 200px;height: 200px;""></button>","null","brown","purple","[""brown"",""purple"",""high nameability""]","right-left","[""purple"",""brown""]","6","high nameability","60","right","iti",""
