"trial_type","trial_index","time_elapsed","internal_node_id","subject_id","seed","success","timeout","failed_images","failed_audio","failed_video","rt","stimulus","response","target","foil","choices","combination_order","choices_in_order","round","condition","trial_counter","target_location","trial_kind","correct"
"pavlovia","0","18","0.0-0.0","CKN_103","103","","","","","","","","","","","","","","","","","","",""
"preload","1","1140","0.0-1.0","CKN_103","103","true","false","[]","[]","[]","","","","","","","","","","","","","",""
"fullscreen","2","3307","0.0-2.0","CKN_103","103","true","","","","","","","","","","","","","","","","","",""
"html-button-response","3","15323","0.0-3.0","CKN_103","103","","","","","","11990","","0","","","","","","","","","","",""
"html-button-response","4","20467","0.0-4.0","CKN_103","103","","","","","","5129","","0","star","square","[""square"",""star""]","left-right","[""square"",""star""]","1","practice","1","right","trigger",""
"html-button-response","5","22939","0.0-5.0-0.0","CKN_103","103","","","","","","2457","<button class=""jspsych-btn""><img src=""stimuli/star.png"" style=""width: 200px;height: 200px;""></button>","1","star","square","[""square"",""star""]","left-right","[""square"",""star""]","1","practice","1","right","response","1"
"html-audio-button-response","6","23145","0.0-5.0-1.0","CKN_103","103","","","","","","null","stimuli/bleep.m4a","null","star","square","[""square"",""star""]","left-right","[""square"",""star""]","1","practice","1","right","audio_feedback","1"
"html-button-response","7","23666","0.0-6.0","CKN_103","103","","","","","","null","<button class=""jspsych-btn""><img src=""stimuli/white_square.png"" style=""width: 200px;height: 200px;""></button>","null","star","square","[""square"",""star""]","left-right","[""square"",""star""]","1","practice","1","right","iti",""
"html-button-response","8","25331","0.0-7.0","CKN_103","103","","","","","","1655","","0","triangle","pentagram","[""triangle"",""pentagram""]","left-right","[""triangle"",""pentagram""]","1","practice","1","left","trigger",""
"html-button-response","9","26911","0.0-8.0-0.0","CKN_103","103","","","","","","1571","<button class=""jspsych-btn""><img src=""stimuli/triangle.png"" style=""width: 200px;height: 200px;""></button>","0","triangle","pentagram","[""triangle"",""pentagram""]","left-right","[""triangle"",""pentagram""]","1","practice","1","left","response","1"
"html-audio-button-response","10","27113","0.0-8.0-1.0","CKN_103","103","","","","","","null","stimuli/bleep.m4a","null","triangle","pentagram","[""triangle"",""pentagram""]","left-right","[""triangle"",""pentagram""]","1","practice","1","left","audio_feedback","1"
"html-button-response","11","27624","0.0-9.0","CKN_103","103","","","","","","null","<button class=""jspsych-btn""><img src=""stimuli/white_square.png"" style=""width: 200px;height: 200px;""></button>","null","triangle","pentagram","[""triangle"",""pentagram""]","left-right","[""triangle"",""pentagram""]","1","practice","1","left","iti",""
"html-button-response","12","28994","0.0-10.0","CKN_103","103","","","","","","1357","","0","diamond","rectangle","[""rectangle"",""diamond""]","left-right","[""rectangle"",""diamond""]","1","practice","1","right","trigger",""
"html-button-response","13","30364","0.0-11.0-0.0","CKN_103","103","","","","","","1361","<button class=""jspsych-btn""><img src=""stimuli/diamond.png"" style=""width: 200px;height: 200px;""></button>","1","diamond","rectangle","[""rectangle"",""diamond""]","left-right","[""rectangle"",""diamond""]","1","practice","1","right","response","1"
"html-audio-button-response","14","30571","0.0-11.0-1.0","CKN_103","103","","","","","","null","stimuli/bleep.m4a","null","diamond","rectangle","[""rectangle"",""diamond""]","left-right","[""rectangle"",""diamond""]","1","practice","1","right","audio_feedback","1"
"html-button-response","15","31086","0.0-12.0","CKN_103","103","","","","","","null","<button class=""jspsych-btn""><img src=""stimuli/white_square.png"" style=""width: 200px;height: 200px;""></button>","null","diamond","rectangle","[""rectangle"",""diamond""]","left-right","[""rectangle"",""diamond""]","1","practice","1","right","iti",""
"html-button-response","16","32312","0.0-13.0","CKN_103","103","","","","","","1216","","0","pentagram","star","[""pentagram"",""star""]","left-right","[""pentagram"",""star""]","1","practice","1","left","trigger",""
"html-button-response","17","33902","0.0-14.0-0.0","CKN_103","103","","","","","","1582","<button class=""jspsych-btn""><img src=""stimuli/pentagram.png"" style=""width: 200px;height: 200px;""></button>","0","pentagram","star","[""pentagram"",""star""]","left-right","[""pentagram"",""star""]","1","practice","1","left","response","1"
"html-audio-button-response","18","34109","0.0-14.0-1.0","CKN_103","103","","","","","","null","stimuli/bleep.m4a","null","pentagram","star","[""pentagram"",""star""]","left-right","[""pentagram"",""star""]","1","practice","1","left","audio_feedback","1"
"html-button-response","19","34627","0.0-15.0","CKN_103","103","","","","","","null","<button class=""jspsych-btn""><img src=""stimuli/white_square.png"" style=""width: 200px;height: 200px;""></button>","null","pentagram","star","[""pentagram"",""star""]","left-right","[""pentagram"",""star""]","1","practice","1","left","iti",""
"html-button-response","20","40149","0.0-16.0","CKN_103","103","","","","","","5512","","0","","","","","","","","","","",""
"html-button-response","21","40989","0.0-17.0","CKN_103","103","","","","","","835","","0","yellow","blue","[""yellow"",""blue"",""high nameability""]","left-right","[""yellow"",""blue"",""high nameability""]","1","high nameability","1","left","trigger",""
"html-button-response","22","42275","0.0-18.0-0.0","CKN_103","103","","","","","","1277","<button class=""jspsych-btn""><img src=""stimuli/yellow.png"" style=""width: 200px;height: 200px;""></button>","0","yellow","blue","[""yellow"",""blue"",""high nameability""]","left-right","[""yellow"",""blue"",""high nameability""]","1","high nameability","1","left","response","1"
"html-audio-button-response","23","42481","0.0-18.0-1.0","CKN_103","103","","","","","","null","stimuli/bleep.m4a","null","yellow","blue","[""yellow"",""blue"",""high nameability""]","left-right","[""yellow"",""blue"",""high nameability""]","1","high nameability","1","left","audio_feedback","1"
"html-button-response","24","43002","0.0-19.0","CKN_103","103","","","","","","null","<button class=""jspsych-btn""><img src=""stimuli/white_square.png"" style=""width: 200px;height: 200px;""></button>","null","yellow","blue","[""yellow"",""blue"",""high nameability""]","left-right","[""yellow"",""blue"",""high nameability""]","1","high nameability","1","left","iti",""
"html-button-response","25","44180","0.0-20.0","CKN_103","103","","","","","","1158","","0","yellow","brown","[""yellow"",""brown"",""high nameability""]","right-left","[""brown"",""yellow""]","1","high nameability","2","right","trigger",""
"html-button-response","26","44991","0.0-21.0-0.0","CKN_103","103","","","","","","803","<button class=""jspsych-btn""><img src=""stimuli/yellow.png"" style=""width: 200px;height: 200px;""></button>","1","yellow","brown","[""yellow"",""brown"",""high nameability""]","right-left","[""brown"",""yellow""]","1","high nameability","2","right","response","1"
"html-audio-button-response","27","45198","0.0-21.0-1.0","CKN_103","103","","","","","","null","stimuli/bleep.m4a","null","yellow","brown","[""yellow"",""brown"",""high nameability""]","right-left","[""brown"",""yellow""]","1","high nameability","2","right","audio_feedback","1"
"html-button-response","28","45715","0.0-22.0","CKN_103","103","","","","","","null","<button class=""jspsych-btn""><img src=""stimuli/white_square.png"" style=""width: 200px;height: 200px;""></button>","null","yellow","brown","[""yellow"",""brown"",""high nameability""]","right-left","[""brown"",""yellow""]","1","high nameability","2","right","iti",""
"html-button-response","29","46496","0.0-23.0","CKN_103","103","","","","","","768","","0","darkgreenblue","pink","[""darkgreenblue"",""pink"",""low nameability""]","left-right","[""darkgreenblue"",""pink"",""low nameability""]","1","low nameability","3","left","trigger",""
"html-button-response","30","47334","0.0-24.0-0.0","CKN_103","103","","","","","","831","<button class=""jspsych-btn""><img src=""stimuli/darkgreenblue.png"" style=""width: 200px;height: 200px;""></button>","0","darkgreenblue","pink","[""darkgreenblue"",""pink"",""low nameability""]","left-right","[""darkgreenblue"",""pink"",""low nameability""]","1","low nameability","3","left","response","1"
"html-audio-button-response","31","47544","0.0-24.0-1.0","CKN_103","103","","","","","","null","stimuli/bleep.m4a","null","darkgreenblue","pink","[""darkgreenblue"",""pink"",""low nameability""]","left-right","[""darkgreenblue"",""pink"",""low nameability""]","1","low nameability","3","left","audio_feedback","1"
"html-button-response","32","48060","0.0-25.0","CKN_103","103","","","","","","null","<button class=""jspsych-btn""><img src=""stimuli/white_square.png"" style=""width: 200px;height: 200px;""></button>","null","darkgreenblue","pink","[""darkgreenblue"",""pink"",""low nameability""]","left-right","[""darkgreenblue"",""pink"",""low nameability""]","1","low nameability","3","left","iti",""
"html-button-response","33","48918","0.0-26.0","CKN_103","103","","","","","","841","","0","darkgreenblue","neonyellow","[""darkgreenblue"",""neonyellow"",""low nameability""]","left-right","[""darkgreenblue"",""neonyellow"",""low nameability""]","1","low nameability","4","left","trigger",""
"html-button-response","34","49823","0.0-27.0-0.0","CKN_103","103","","","","","","895","<button class=""jspsych-btn""><img src=""stimuli/darkgreenblue.png"" style=""width: 200px;height: 200px;""></button>","0","darkgreenblue","neonyellow","[""darkgreenblue"",""neonyellow"",""low nameability""]","left-right","[""darkgreenblue"",""neonyellow"",""low nameability""]","1","low nameability","4","left","response","1"
"html-audio-button-response","35","50029","0.0-27.0-1.0","CKN_103","103","","","","","","null","stimuli/bleep.m4a","null","darkgreenblue","neonyellow","[""darkgreenblue"",""neonyellow"",""low nameability""]","left-right","[""darkgreenblue"",""neonyellow"",""low nameability""]","1","low nameability","4","left","audio_feedback","1"
"html-button-response","36","50546","0.0-28.0","CKN_103","103","","","","","","null","<button class=""jspsych-btn""><img src=""stimuli/white_square.png"" style=""width: 200px;height: 200px;""></button>","null","darkgreenblue","neonyellow","[""darkgreenblue"",""neonyellow"",""low nameability""]","left-right","[""darkgreenblue"",""neonyellow"",""low nameability""]","1","low nameability","4","left","iti",""
"html-button-response","37","51293","0.0-29.0","CKN_103","103","","","","","","736","","0","blue","red","[""blue"",""red"",""high nameability""]","right-left","[""red"",""blue""]","1","high nameability","5","right","trigger",""
"html-button-response","38","52071","0.0-30.0-0.0","CKN_103","103","","","","","","769","<button class=""jspsych-btn""><img src=""stimuli/blue.png"" style=""width: 200px;height: 200px;""></button>","1","blue","red","[""blue"",""red"",""high nameability""]","right-left","[""red"",""blue""]","1","high nameability","5","right","response","1"
"html-audio-button-response","39","52271","0.0-30.0-1.0","CKN_103","103","","","","","","null","stimuli/bleep.m4a","null","blue","red","[""blue"",""red"",""high nameability""]","right-left","[""red"",""blue""]","1","high nameability","5","right","audio_feedback","1"
"html-button-response","40","52787","0.0-31.0","CKN_103","103","","","","","","null","<button class=""jspsych-btn""><img src=""stimuli/white_square.png"" style=""width: 200px;height: 200px;""></button>","null","blue","red","[""blue"",""red"",""high nameability""]","right-left","[""red"",""blue""]","1","high nameability","5","right","iti",""
"html-button-response","41","53547","0.0-32.0","CKN_103","103","","","","","","747","","0","red","purple","[""red"",""purple"",""high nameability""]","right-left","[""purple"",""red""]","1","high nameability","6","right","trigger",""
"html-button-response","42","54390","0.0-33.0-0.0","CKN_103","103","","","","","","834","<button class=""jspsych-btn""><img src=""stimuli/red.png"" style=""width: 200px;height: 200px;""></button>","1","red","purple","[""red"",""purple"",""high nameability""]","right-left","[""purple"",""red""]","1","high nameability","6","right","response","1"
"html-audio-button-response","43","54591","0.0-33.0-1.0","CKN_103","103","","","","","","null","stimuli/bleep.m4a","null","red","purple","[""red"",""purple"",""high nameability""]","right-left","[""purple"",""red""]","1","high nameability","6","right","audio_feedback","1"
"html-button-response","44","55105","0.0-34.0","CKN_103","103","","","","","","null","<button class=""jspsych-btn""><img src=""stimuli/white_square.png"" style=""width: 200px;height: 200px;""></button>","null","red","purple","[""red"",""purple"",""high nameability""]","right-left","[""purple"",""red""]","1","high nameability","6","right","iti",""
"html-button-response","45","55574","0.0-35.0","CKN_103","103","","","","","","457","","0","pink","mustard","[""pink"",""mustard"",""low nameability""]","right-left","[""mustard"",""pink""]","1","low nameability","7","right","trigger",""
"html-button-response","46","56658","0.0-36.0-0.0","CKN_103","103","","","","","","1073","<button class=""jspsych-btn""><img src=""stimuli/pink.png"" style=""width: 200px;height: 200px;""></button>","1","pink","mustard","[""pink"",""mustard"",""low nameability""]","right-left","[""mustard"",""pink""]","1","low nameability","7","right","response","1"
"html-audio-button-response","47","56863","0.0-36.0-1.0","CKN_103","103","","","","","","null","stimuli/bleep.m4a","null","pink","mustard","[""pink"",""mustard"",""low nameability""]","right-left","[""mustard"",""pink""]","1","low nameability","7","right","audio_feedback","1"
"html-button-response","48","57384","0.0-37.0","CKN_103","103","","","","","","null","<button class=""jspsych-btn""><img src=""stimuli/white_square.png"" style=""width: 200px;height: 200px;""></button>","null","pink","mustard","[""pink"",""mustard"",""low nameability""]","right-left","[""mustard"",""pink""]","1","low nameability","7","right","iti",""
"html-button-response","49","58329","0.0-38.0","CKN_103","103","","","","","","935","","0","red","brown","[""red"",""brown"",""high nameability""]","left-right","[""red"",""brown"",""high nameability""]","1","high nameability","8","left","trigger",""
"html-button-response","50","59263","0.0-39.0-0.0","CKN_103","103","","","","","","927","<button class=""jspsych-btn""><img src=""stimuli/red.png"" style=""width: 200px;height: 200px;""></button>","0","red","brown","[""red"",""brown"",""high nameability""]","left-right","[""red"",""brown"",""high nameability""]","1","high nameability","8","left","response","1"
"html-audio-button-response","51","59469","0.0-39.0-1.0","CKN_103","103","","","","","","null","stimuli/bleep.m4a","null","red","brown","[""red"",""brown"",""high nameability""]","left-right","[""red"",""brown"",""high nameability""]","1","high nameability","8","left","audio_feedback","1"
"html-button-response","52","59984","0.0-40.0","CKN_103","103","","","","","","null","<button class=""jspsych-btn""><img src=""stimuli/white_square.png"" style=""width: 200px;height: 200px;""></button>","null","red","brown","[""red"",""brown"",""high nameability""]","left-right","[""red"",""brown"",""high nameability""]","1","high nameability","8","left","iti",""
"html-button-response","53","61968","0.0-41.0","CKN_103","103","","","","","","1973","","0","red","yellow","[""red"",""yellow"",""high nameability""]","left-right","[""red"",""yellow"",""high nameability""]","1","high nameability","9","left","trigger",""
"html-button-response","54","62875","0.0-42.0-0.0","CKN_103","103","","","","","","898","<button class=""jspsych-btn""><img src=""stimuli/red.png"" style=""width: 200px;height: 200px;""></button>","0","red","yellow","[""red"",""yellow"",""high nameability""]","left-right","[""red"",""yellow"",""high nameability""]","1","high nameability","9","left","response","1"
"html-audio-button-response","55","63083","0.0-42.0-1.0","CKN_103","103","","","","","","null","stimuli/bleep.m4a","null","red","yellow","[""red"",""yellow"",""high nameability""]","left-right","[""red"",""yellow"",""high nameability""]","1","high nameability","9","left","audio_feedback","1"
"html-button-response","56","63604","0.0-43.0","CKN_103","103","","","","","","null","<button class=""jspsych-btn""><img src=""stimuli/white_square.png"" style=""width: 200px;height: 200px;""></button>","null","red","yellow","[""red"",""yellow"",""high nameability""]","left-right","[""red"",""yellow"",""high nameability""]","1","high nameability","9","left","iti",""
"html-button-response","57","64456","0.0-44.0","CKN_103","103","","","","","","840","","0","brown","blue","[""brown"",""blue"",""high nameability""]","right-left","[""blue"",""brown""]","1","high nameability","10","right","trigger",""
"html-button-response","58","65449","0.0-45.0-0.0","CKN_103","103","","","","","","986","<button class=""jspsych-btn""><img src=""stimuli/brown.png"" style=""width: 200px;height: 200px;""></button>","1","brown","blue","[""brown"",""blue"",""high nameability""]","right-left","[""blue"",""brown""]","1","high nameability","10","right","response","1"
"html-audio-button-response","59","65654","0.0-45.0-1.0","CKN_103","103","","","","","","null","stimuli/bleep.m4a","null","brown","blue","[""brown"",""blue"",""high nameability""]","right-left","[""blue"",""brown""]","1","high nameability","10","right","audio_feedback","1"
"html-button-response","60","66169","0.0-46.0","CKN_103","103","","","","","","null","<button class=""jspsych-btn""><img src=""stimuli/white_square.png"" style=""width: 200px;height: 200px;""></button>","null","brown","blue","[""brown"",""blue"",""high nameability""]","right-left","[""blue"",""brown""]","1","high nameability","10","right","iti",""
"pavlovia","61","66228","0.0-47.0","CKN_103","103","","","","","","","","","","","","","","","","","","",""
"pavlovia","62","66238","0.0-48.0","CKN_103","103","","","","","","","","","","","","","","","","","","",""
"html-audio-button-response","63","71574","0.0-49.0","CKN_103","103","","","","","","5387","stimuli/tada.m4a","0","","","","","","","","","","",""
"html-button-response","64","72757","0.0-50.0","CKN_103","103","","","","","","1168","","0","","","","","","","","","","",""
"html-button-response","65","73625","0.0-51.0","CKN_103","103","","","","","","850","","0","orange","blue","[""orange"",""blue"",""high nameability""]","right-left","[""blue"",""orange""]","2","high nameability","11","right","trigger",""
"html-button-response","66","74486","0.0-52.0-0.0","CKN_103","103","","","","","","852","<button class=""jspsych-btn""><img src=""stimuli/orange.png"" style=""width: 200px;height: 200px;""></button>","1","orange","blue","[""orange"",""blue"",""high nameability""]","right-left","[""blue"",""orange""]","2","high nameability","11","right","response","1"
"html-audio-button-response","67","74687","0.0-52.0-1.0","CKN_103","103","","","","","","null","stimuli/bleep.m4a","null","orange","blue","[""orange"",""blue"",""high nameability""]","right-left","[""blue"",""orange""]","2","high nameability","11","right","audio_feedback","1"
"html-button-response","68","75212","0.0-53.0","CKN_103","103","","","","","","null","<button class=""jspsych-btn""><img src=""stimuli/white_square.png"" style=""width: 200px;height: 200px;""></button>","null","orange","blue","[""orange"",""blue"",""high nameability""]","right-left","[""blue"",""orange""]","2","high nameability","11","right","iti",""
"html-button-response","69","75997","0.0-54.0","CKN_103","103","","","","","","766","","0","yellow","orange","[""yellow"",""orange"",""high nameability""]","left-right","[""yellow"",""orange"",""high nameability""]","2","high nameability","12","left","trigger",""
"html-button-response","70","76802","0.0-55.0-0.0","CKN_103","103","","","","","","790","<button class=""jspsych-btn""><img src=""stimuli/yellow.png"" style=""width: 200px;height: 200px;""></button>","1","yellow","orange","[""yellow"",""orange"",""high nameability""]","left-right","[""yellow"",""orange"",""high nameability""]","2","high nameability","12","left","response","0"
"html-audio-button-response","71","77437","0.0-55.0-1.0","CKN_103","103","","","","","","null","stimuli/boing.m4a","null","yellow","orange","[""yellow"",""orange"",""high nameability""]","left-right","[""yellow"",""orange"",""high nameability""]","2","high nameability","12","left","audio_feedback","0"
"html-button-response","72","90929","0.0-55.1-0.1","CKN_103","103","","","","","","13458","<button class=""jspsych-btn""><img src=""stimuli/yellow.png"" style=""width: 200px;height: 200px;""></button>","0","yellow","orange","[""yellow"",""orange"",""high nameability""]","left-right","[""yellow"",""orange"",""high nameability""]","2","high nameability","12","left","response","1"
"html-audio-button-response","73","91140","0.0-55.1-1.1","CKN_103","103","","","","","","null","stimuli/bleep.m4a","null","yellow","orange","[""yellow"",""orange"",""high nameability""]","left-right","[""yellow"",""orange"",""high nameability""]","2","high nameability","12","left","audio_feedback","1"
"html-button-response","74","91666","0.0-56.0","CKN_103","103","","","","","","null","<button class=""jspsych-btn""><img src=""stimuli/white_square.png"" style=""width: 200px;height: 200px;""></button>","null","yellow","orange","[""yellow"",""orange"",""high nameability""]","left-right","[""yellow"",""orange"",""high nameability""]","2","high nameability","12","left","iti",""
"html-button-response","75","92770","0.0-57.0","CKN_103","103","","","","","","1089","","0","neonyellow","darkgreenblue","[""neonyellow"",""darkgreenblue"",""low nameability""]","left-right","[""neonyellow"",""darkgreenblue"",""low nameability""]","2","low nameability","13","left","trigger",""
"html-button-response","76","93873","0.0-58.0-0.0","CKN_103","103","","","","","","1097","<button class=""jspsych-btn""><img src=""stimuli/neonyellow.png"" style=""width: 200px;height: 200px;""></button>","0","neonyellow","darkgreenblue","[""neonyellow"",""darkgreenblue"",""low nameability""]","left-right","[""neonyellow"",""darkgreenblue"",""low nameability""]","2","low nameability","13","left","response","1"
"html-audio-button-response","77","94077","0.0-58.0-1.0","CKN_103","103","","","","","","null","stimuli/bleep.m4a","null","neonyellow","darkgreenblue","[""neonyellow"",""darkgreenblue"",""low nameability""]","left-right","[""neonyellow"",""darkgreenblue"",""low nameability""]","2","low nameability","13","left","audio_feedback","1"
"html-button-response","78","94588","0.0-59.0","CKN_103","103","","","","","","null","<button class=""jspsych-btn""><img src=""stimuli/white_square.png"" style=""width: 200px;height: 200px;""></button>","null","neonyellow","darkgreenblue","[""neonyellow"",""darkgreenblue"",""low nameability""]","left-right","[""neonyellow"",""darkgreenblue"",""low nameability""]","2","low nameability","13","left","iti",""
"html-button-response","79","95285","0.0-60.0","CKN_103","103","","","","","","689","","0","turquoise","pink","[""turquoise"",""pink"",""low nameability""]","right-left","[""pink"",""turquoise""]","2","low nameability","14","right","trigger",""
"html-button-response","80","96414","0.0-61.0-0.0","CKN_103","103","","","","","","1121","<button class=""jspsych-btn""><img src=""stimuli/turquoise.png"" style=""width: 200px;height: 200px;""></button>","1","turquoise","pink","[""turquoise"",""pink"",""low nameability""]","right-left","[""pink"",""turquoise""]","2","low nameability","14","right","response","1"
"html-audio-button-response","81","96619","0.0-61.0-1.0","CKN_103","103","","","","","","null","stimuli/bleep.m4a","null","turquoise","pink","[""turquoise"",""pink"",""low nameability""]","right-left","[""pink"",""turquoise""]","2","low nameability","14","right","audio_feedback","1"
"html-button-response","82","97140","0.0-62.0","CKN_103","103","","","","","","null","<button class=""jspsych-btn""><img src=""stimuli/white_square.png"" style=""width: 200px;height: 200px;""></button>","null","turquoise","pink","[""turquoise"",""pink"",""low nameability""]","right-left","[""pink"",""turquoise""]","2","low nameability","14","right","iti",""
"html-button-response","83","99236","0.0-63.0","CKN_103","103","","","","","","2085","","0","neonyellow","turquoise","[""neonyellow"",""turquoise"",""low nameability""]","right-left","[""turquoise"",""neonyellow""]","2","low nameability","15","right","trigger",""
"html-button-response","84","100339","0.0-64.0-0.0","CKN_103","103","","","","","","1094","<button class=""jspsych-btn""><img src=""stimuli/neonyellow.png"" style=""width: 200px;height: 200px;""></button>","1","neonyellow","turquoise","[""neonyellow"",""turquoise"",""low nameability""]","right-left","[""turquoise"",""neonyellow""]","2","low nameability","15","right","response","1"
"html-audio-button-response","85","100545","0.0-64.0-1.0","CKN_103","103","","","","","","null","stimuli/bleep.m4a","null","neonyellow","turquoise","[""neonyellow"",""turquoise"",""low nameability""]","right-left","[""turquoise"",""neonyellow""]","2","low nameability","15","right","audio_feedback","1"
"html-button-response","86","101059","0.0-65.0","CKN_103","103","","","","","","null","<button class=""jspsych-btn""><img src=""stimuli/white_square.png"" style=""width: 200px;height: 200px;""></button>","null","neonyellow","turquoise","[""neonyellow"",""turquoise"",""low nameability""]","right-left","[""turquoise"",""neonyellow""]","2","low nameability","15","right","iti",""
"html-button-response","87","101397","0.0-66.0","CKN_103","103","","","","","","328","","0","darkgreenblue","turquoise","[""darkgreenblue"",""turquoise"",""low nameability""]","right-left","[""turquoise"",""darkgreenblue""]","2","low nameability","16","right","trigger",""
"html-button-response","88","102202","0.0-67.0-0.0","CKN_103","103","","","","","","797","<button class=""jspsych-btn""><img src=""stimuli/darkgreenblue.png"" style=""width: 200px;height: 200px;""></button>","1","darkgreenblue","turquoise","[""darkgreenblue"",""turquoise"",""low nameability""]","right-left","[""turquoise"",""darkgreenblue""]","2","low nameability","16","right","response","1"
"html-audio-button-response","89","102409","0.0-67.0-1.0","CKN_103","103","","","","","","null","stimuli/bleep.m4a","null","darkgreenblue","turquoise","[""darkgreenblue"",""turquoise"",""low nameability""]","right-left","[""turquoise"",""darkgreenblue""]","2","low nameability","16","right","audio_feedback","1"
"html-button-response","90","102921","0.0-68.0","CKN_103","103","","","","","","null","<button class=""jspsych-btn""><img src=""stimuli/white_square.png"" style=""width: 200px;height: 200px;""></button>","null","darkgreenblue","turquoise","[""darkgreenblue"",""turquoise"",""low nameability""]","right-left","[""turquoise"",""darkgreenblue""]","2","low nameability","16","right","iti",""
"html-button-response","91","103468","0.0-69.0","CKN_103","103","","","","","","532","","0","mustard","darkgreenblue","[""mustard"",""darkgreenblue"",""low nameability""]","right-left","[""darkgreenblue"",""mustard""]","2","low nameability","17","right","trigger",""
"html-button-response","92","104255","0.0-70.0-0.0","CKN_103","103","","","","","","776","<button class=""jspsych-btn""><img src=""stimuli/mustard.png"" style=""width: 200px;height: 200px;""></button>","1","mustard","darkgreenblue","[""mustard"",""darkgreenblue"",""low nameability""]","right-left","[""darkgreenblue"",""mustard""]","2","low nameability","17","right","response","1"
"html-audio-button-response","93","104459","0.0-70.0-1.0","CKN_103","103","","","","","","null","stimuli/bleep.m4a","null","mustard","darkgreenblue","[""mustard"",""darkgreenblue"",""low nameability""]","right-left","[""darkgreenblue"",""mustard""]","2","low nameability","17","right","audio_feedback","1"
"html-button-response","94","104975","0.0-71.0","CKN_103","103","","","","","","null","<button class=""jspsych-btn""><img src=""stimuli/white_square.png"" style=""width: 200px;height: 200px;""></button>","null","mustard","darkgreenblue","[""mustard"",""darkgreenblue"",""low nameability""]","right-left","[""darkgreenblue"",""mustard""]","2","low nameability","17","right","iti",""
"html-button-response","95","105531","0.0-72.0","CKN_103","103","","","","","","545","","0","orange","purple","[""orange"",""purple"",""high nameability""]","right-left","[""purple"",""orange""]","2","high nameability","18","right","trigger",""
"html-button-response","96","106316","0.0-73.0-0.0","CKN_103","103","","","","","","778","<button class=""jspsych-btn""><img src=""stimuli/orange.png"" style=""width: 200px;height: 200px;""></button>","1","orange","purple","[""orange"",""purple"",""high nameability""]","right-left","[""purple"",""orange""]","2","high nameability","18","right","response","1"
"html-audio-button-response","97","106519","0.0-73.0-1.0","CKN_103","103","","","","","","null","stimuli/bleep.m4a","null","orange","purple","[""orange"",""purple"",""high nameability""]","right-left","[""purple"",""orange""]","2","high nameability","18","right","audio_feedback","1"
"html-button-response","98","107031","0.0-74.0","CKN_103","103","","","","","","null","<button class=""jspsych-btn""><img src=""stimuli/white_square.png"" style=""width: 200px;height: 200px;""></button>","null","orange","purple","[""orange"",""purple"",""high nameability""]","right-left","[""purple"",""orange""]","2","high nameability","18","right","iti",""
"html-button-response","99","107659","0.0-75.0","CKN_103","103","","","","","","611","","0","purple","yellow","[""purple"",""yellow"",""high nameability""]","left-right","[""purple"",""yellow"",""high nameability""]","2","high nameability","19","left","trigger",""
"html-button-response","100","109205","0.0-76.0-0.0","CKN_103","103","","","","","","1537","<button class=""jspsych-btn""><img src=""stimuli/purple.png"" style=""width: 200px;height: 200px;""></button>","0","purple","yellow","[""purple"",""yellow"",""high nameability""]","left-right","[""purple"",""yellow"",""high nameability""]","2","high nameability","19","left","response","1"
"html-audio-button-response","101","109402","0.0-76.0-1.0","CKN_103","103","","","","","","null","stimuli/bleep.m4a","null","purple","yellow","[""purple"",""yellow"",""high nameability""]","left-right","[""purple"",""yellow"",""high nameability""]","2","high nameability","19","left","audio_feedback","1"
"html-button-response","102","109919","0.0-77.0","CKN_103","103","","","","","","null","<button class=""jspsych-btn""><img src=""stimuli/white_square.png"" style=""width: 200px;height: 200px;""></button>","null","purple","yellow","[""purple"",""yellow"",""high nameability""]","left-right","[""purple"",""yellow"",""high nameability""]","2","high nameability","19","left","iti",""
"html-button-response","103","110980","0.0-78.0","CKN_103","103","","","","","","1049","","0","purple","orange","[""purple"",""orange"",""high nameability""]","left-right","[""purple"",""orange"",""high nameability""]","2","high nameability","20","left","trigger",""
"html-button-response","104","111869","0.0-79.0-0.0","CKN_103","103","","","","","","881","<button class=""jspsych-btn""><img src=""stimuli/purple.png"" style=""width: 200px;height: 200px;""></button>","0","purple","orange","[""purple"",""orange"",""high nameability""]","left-right","[""purple"",""orange"",""high nameability""]","2","high nameability","20","left","response","1"
"html-audio-button-response","105","112071","0.0-79.0-1.0","CKN_103","103","","","","","","null","stimuli/bleep.m4a","null","purple","orange","[""purple"",""orange"",""high nameability""]","left-right","[""purple"",""orange"",""high nameability""]","2","high nameability","20","left","audio_feedback","1"
"html-button-response","106","112584","0.0-80.0","CKN_103","103","","","","","","null","<button class=""jspsych-btn""><img src=""stimuli/white_square.png"" style=""width: 200px;height: 200px;""></button>","null","purple","orange","[""purple"",""orange"",""high nameability""]","left-right","[""purple"",""orange"",""high nameability""]","2","high nameability","20","left","iti",""
"pavlovia","107","112673","0.0-81.0","CKN_103","103","","","","","","","","","","","","","","","","","","",""
"pavlovia","108","112685","0.0-82.0","CKN_103","103","","","","","","","","","","","","","","","","","","",""
"html-audio-button-response","109","117381","0.0-83.0","CKN_103","103","","","","","","4776","stimuli/tada.m4a","0","","","","","","","","","","",""
"html-button-response","110","118854","0.0-84.0","CKN_103","103","","","","","","1464","","0","","","","","","","","","","",""
"html-button-response","111","120337","0.0-85.0","CKN_103","103","","","","","","1477","","0","neonyellow","mustard","[""neonyellow"",""mustard"",""low nameability""]","left-right","[""neonyellow"",""mustard"",""low nameability""]","3","low nameability","21","left","trigger",""
"html-button-response","112","122297","0.0-86.0-0.0","CKN_103","103","","","","","","1953","<button class=""jspsych-btn""><img src=""stimuli/neonyellow.png"" style=""width: 200px;height: 200px;""></button>","0","neonyellow","mustard","[""neonyellow"",""mustard"",""low nameability""]","left-right","[""neonyellow"",""mustard"",""low nameability""]","3","low nameability","21","left","response","1"
"html-audio-button-response","113","122496","0.0-86.0-1.0","CKN_103","103","","","","","","null","stimuli/bleep.m4a","null","neonyellow","mustard","[""neonyellow"",""mustard"",""low nameability""]","left-right","[""neonyellow"",""mustard"",""low nameability""]","3","low nameability","21","left","audio_feedback","1"
"html-button-response","114","123016","0.0-87.0","CKN_103","103","","","","","","null","<button class=""jspsych-btn""><img src=""stimuli/white_square.png"" style=""width: 200px;height: 200px;""></button>","null","neonyellow","mustard","[""neonyellow"",""mustard"",""low nameability""]","left-right","[""neonyellow"",""mustard"",""low nameability""]","3","low nameability","21","left","iti",""
"html-button-response","115","123990","0.0-88.0","CKN_103","103","","","","","","960","","0","turquoise","darkgreenblue","[""turquoise"",""darkgreenblue"",""low nameability""]","right-left","[""darkgreenblue"",""turquoise""]","3","low nameability","22","right","trigger",""
"html-button-response","116","124856","0.0-89.0-0.0","CKN_103","103","","","","","","858","<button class=""jspsych-btn""><img src=""stimuli/turquoise.png"" style=""width: 200px;height: 200px;""></button>","1","turquoise","darkgreenblue","[""turquoise"",""darkgreenblue"",""low nameability""]","right-left","[""darkgreenblue"",""turquoise""]","3","low nameability","22","right","response","1"
"html-audio-button-response","117","125059","0.0-89.0-1.0","CKN_103","103","","","","","","null","stimuli/bleep.m4a","null","turquoise","darkgreenblue","[""turquoise"",""darkgreenblue"",""low nameability""]","right-left","[""darkgreenblue"",""turquoise""]","3","low nameability","22","right","audio_feedback","1"
"html-button-response","118","125571","0.0-90.0","CKN_103","103","","","","","","null","<button class=""jspsych-btn""><img src=""stimuli/white_square.png"" style=""width: 200px;height: 200px;""></button>","null","turquoise","darkgreenblue","[""turquoise"",""darkgreenblue"",""low nameability""]","right-left","[""darkgreenblue"",""turquoise""]","3","low nameability","22","right","iti",""
"html-button-response","119","126387","0.0-91.0","CKN_103","103","","","","","","802","","0","brown","red","[""brown"",""red"",""high nameability""]","right-left","[""red"",""brown""]","3","high nameability","23","right","trigger",""
"html-button-response","120","127136","0.0-92.0-0.0","CKN_103","103","","","","","","743","<button class=""jspsych-btn""><img src=""stimuli/brown.png"" style=""width: 200px;height: 200px;""></button>","1","brown","red","[""brown"",""red"",""high nameability""]","right-left","[""red"",""brown""]","3","high nameability","23","right","response","1"
"html-audio-button-response","121","127340","0.0-92.0-1.0","CKN_103","103","","","","","","null","stimuli/bleep.m4a","null","brown","red","[""brown"",""red"",""high nameability""]","right-left","[""red"",""brown""]","3","high nameability","23","right","audio_feedback","1"
"html-button-response","122","127859","0.0-93.0","CKN_103","103","","","","","","null","<button class=""jspsych-btn""><img src=""stimuli/white_square.png"" style=""width: 200px;height: 200px;""></button>","null","brown","red","[""brown"",""red"",""high nameability""]","right-left","[""red"",""brown""]","3","high nameability","23","right","iti",""
"html-button-response","123","128618","0.0-94.0","CKN_103","103","","","","","","749","","0","yellow","red","[""yellow"",""red"",""high nameability""]","left-right","[""yellow"",""red"",""high nameability""]","3","high nameability","24","left","trigger",""
"html-button-response","124","129555","0.0-95.0-0.0","CKN_103","103","","","","","","929","<button class=""jspsych-btn""><img src=""stimuli/yellow.png"" style=""width: 200px;height: 200px;""></button>","0","yellow","red","[""yellow"",""red"",""high nameability""]","left-right","[""yellow"",""red"",""high nameability""]","3","high nameability","24","left","response","1"
"html-audio-button-response","125","129755","0.0-95.0-1.0","CKN_103","103","","","","","","null","stimuli/bleep.m4a","null","yellow","red","[""yellow"",""red"",""high nameability""]","left-right","[""yellow"",""red"",""high nameability""]","3","high nameability","24","left","audio_feedback","1"
"html-button-response","126","130271","0.0-96.0","CKN_103","103","","","","","","null","<button class=""jspsych-btn""><img src=""stimuli/white_square.png"" style=""width: 200px;height: 200px;""></button>","null","yellow","red","[""yellow"",""red"",""high nameability""]","left-right","[""yellow"",""red"",""high nameability""]","3","high nameability","24","left","iti",""
"html-button-response","127","130763","0.0-97.0","CKN_103","103","","","","","","475","","0","purple","blue","[""purple"",""blue"",""high nameability""]","left-right","[""purple"",""blue"",""high nameability""]","3","high nameability","25","left","trigger",""
"html-button-response","128","131720","0.0-98.0-0.0","CKN_103","103","","","","","","945","<button class=""jspsych-btn""><img src=""stimuli/purple.png"" style=""width: 200px;height: 200px;""></button>","0","purple","blue","[""purple"",""blue"",""high nameability""]","left-right","[""purple"",""blue"",""high nameability""]","3","high nameability","25","left","response","1"
"html-audio-button-response","129","131938","0.0-98.0-1.0","CKN_103","103","","","","","","null","stimuli/bleep.m4a","null","purple","blue","[""purple"",""blue"",""high nameability""]","left-right","[""purple"",""blue"",""high nameability""]","3","high nameability","25","left","audio_feedback","1"
"html-button-response","130","132469","0.0-99.0","CKN_103","103","","","","","","null","<button class=""jspsych-btn""><img src=""stimuli/white_square.png"" style=""width: 200px;height: 200px;""></button>","null","purple","blue","[""purple"",""blue"",""high nameability""]","left-right","[""purple"",""blue"",""high nameability""]","3","high nameability","25","left","iti",""
"html-button-response","131","133765","0.0-100.0","CKN_103","103","","","","","","1275","","0","brown","orange","[""brown"",""orange"",""high nameability""]","left-right","[""brown"",""orange"",""high nameability""]","3","high nameability","26","left","trigger",""
"html-button-response","132","134611","0.0-101.0-0.0","CKN_103","103","","","","","","833","<button class=""jspsych-btn""><img src=""stimuli/brown.png"" style=""width: 200px;height: 200px;""></button>","0","brown","orange","[""brown"",""orange"",""high nameability""]","left-right","[""brown"",""orange"",""high nameability""]","3","high nameability","26","left","response","1"
"html-audio-button-response","133","134817","0.0-101.0-1.0","CKN_103","103","","","","","","null","stimuli/bleep.m4a","null","brown","orange","[""brown"",""orange"",""high nameability""]","left-right","[""brown"",""orange"",""high nameability""]","3","high nameability","26","left","audio_feedback","1"
"html-button-response","134","135341","0.0-102.0","CKN_103","103","","","","","","null","<button class=""jspsych-btn""><img src=""stimuli/white_square.png"" style=""width: 200px;height: 200px;""></button>","null","brown","orange","[""brown"",""orange"",""high nameability""]","left-right","[""brown"",""orange"",""high nameability""]","3","high nameability","26","left","iti",""
"html-button-response","135","136192","0.0-103.0","CKN_103","103","","","","","","831","","0","yellow","purple","[""yellow"",""purple"",""high nameability""]","right-left","[""purple"",""yellow""]","3","high nameability","27","right","trigger",""
"html-button-response","136","137373","0.0-104.0-0.0","CKN_103","103","","","","","","1166","<button class=""jspsych-btn""><img src=""stimuli/yellow.png"" style=""width: 200px;height: 200px;""></button>","1","yellow","purple","[""yellow"",""purple"",""high nameability""]","right-left","[""purple"",""yellow""]","3","high nameability","27","right","response","1"
"html-audio-button-response","137","137576","0.0-104.0-1.0","CKN_103","103","","","","","","null","stimuli/bleep.m4a","null","yellow","purple","[""yellow"",""purple"",""high nameability""]","right-left","[""purple"",""yellow""]","3","high nameability","27","right","audio_feedback","1"
"html-button-response","138","138106","0.0-105.0","CKN_103","103","","","","","","null","<button class=""jspsych-btn""><img src=""stimuli/white_square.png"" style=""width: 200px;height: 200px;""></button>","null","yellow","purple","[""yellow"",""purple"",""high nameability""]","right-left","[""purple"",""yellow""]","3","high nameability","27","right","iti",""
"html-button-response","139","138540","0.0-106.0","CKN_103","103","","","","","","412","","0","pink","darkgreenblue","[""pink"",""darkgreenblue"",""low nameability""]","right-left","[""darkgreenblue"",""pink""]","3","low nameability","28","right","trigger",""
"html-button-response","140","139360","0.0-107.0-0.0","CKN_103","103","","","","","","810","<button class=""jspsych-btn""><img src=""stimuli/pink.png"" style=""width: 200px;height: 200px;""></button>","1","pink","darkgreenblue","[""pink"",""darkgreenblue"",""low nameability""]","right-left","[""darkgreenblue"",""pink""]","3","low nameability","28","right","response","1"
"html-audio-button-response","141","139563","0.0-107.0-1.0","CKN_103","103","","","","","","null","stimuli/bleep.m4a","null","pink","darkgreenblue","[""pink"",""darkgreenblue"",""low nameability""]","right-left","[""darkgreenblue"",""pink""]","3","low nameability","28","right","audio_feedback","1"
"html-button-response","142","140082","0.0-108.0","CKN_103","103","","","","","","null","<button class=""jspsych-btn""><img src=""stimuli/white_square.png"" style=""width: 200px;height: 200px;""></button>","null","pink","darkgreenblue","[""pink"",""darkgreenblue"",""low nameability""]","right-left","[""darkgreenblue"",""pink""]","3","low nameability","28","right","iti",""
"html-button-response","143","141089","0.0-109.0","CKN_103","103","","","","","","993","","0","lightred","pink","[""lightred"",""pink"",""low nameability""]","right-left","[""pink"",""lightred""]","3","low nameability","29","right","trigger",""
"html-button-response","144","141957","0.0-110.0-0.0","CKN_103","103","","","","","","860","<button class=""jspsych-btn""><img src=""stimuli/lightred.png"" style=""width: 200px;height: 200px;""></button>","1","lightred","pink","[""lightred"",""pink"",""low nameability""]","right-left","[""pink"",""lightred""]","3","low nameability","29","right","response","1"
"html-audio-button-response","145","142161","0.0-110.0-1.0","CKN_103","103","","","","","","null","stimuli/bleep.m4a","null","lightred","pink","[""lightred"",""pink"",""low nameability""]","right-left","[""pink"",""lightred""]","3","low nameability","29","right","audio_feedback","1"
"html-button-response","146","142673","0.0-111.0","CKN_103","103","","","","","","null","<button class=""jspsych-btn""><img src=""stimuli/white_square.png"" style=""width: 200px;height: 200px;""></button>","null","lightred","pink","[""lightred"",""pink"",""low nameability""]","right-left","[""pink"",""lightred""]","3","low nameability","29","right","iti",""
"html-button-response","147","142998","0.0-112.0","CKN_103","103","","","","","","307","","0","darkgreenblue","mustard","[""darkgreenblue"",""mustard"",""low nameability""]","left-right","[""darkgreenblue"",""mustard"",""low nameability""]","3","low nameability","30","left","trigger",""
"html-button-response","148","144009","0.0-113.0-0.0","CKN_103","103","","","","","","1003","<button class=""jspsych-btn""><img src=""stimuli/darkgreenblue.png"" style=""width: 200px;height: 200px;""></button>","0","darkgreenblue","mustard","[""darkgreenblue"",""mustard"",""low nameability""]","left-right","[""darkgreenblue"",""mustard"",""low nameability""]","3","low nameability","30","left","response","1"
"html-audio-button-response","149","144211","0.0-113.0-1.0","CKN_103","103","","","","","","null","stimuli/bleep.m4a","null","darkgreenblue","mustard","[""darkgreenblue"",""mustard"",""low nameability""]","left-right","[""darkgreenblue"",""mustard"",""low nameability""]","3","low nameability","30","left","audio_feedback","1"
"html-button-response","150","144725","0.0-114.0","CKN_103","103","","","","","","null","<button class=""jspsych-btn""><img src=""stimuli/white_square.png"" style=""width: 200px;height: 200px;""></button>","null","darkgreenblue","mustard","[""darkgreenblue"",""mustard"",""low nameability""]","left-right","[""darkgreenblue"",""mustard"",""low nameability""]","3","low nameability","30","left","iti",""
"pavlovia","151","144798","0.0-115.0","CKN_103","103","","","","","","","","","","","","","","","","","","",""
"pavlovia","152","144806","0.0-116.0","CKN_103","103","","","","","","","","","","","","","","","","","","",""
"html-audio-button-response","153","148847","0.0-117.0","CKN_103","103","","","","","","4117","stimuli/tada.m4a","0","","","","","","","","","","",""
"html-button-response","154","149816","0.0-118.0","CKN_103","103","","","","","","960","","0","","","","","","","","","","",""
"html-button-response","155","151530","0.0-119.0","CKN_103","103","","","","","","1707","","0","darkgreenblue","lightred","[""darkgreenblue"",""lightred"",""low nameability""]","right-left","[""lightred"",""darkgreenblue""]","4","low nameability","31","right","trigger",""
"html-button-response","156","152604","0.0-120.0-0.0","CKN_103","103","","","","","","1067","<button class=""jspsych-btn""><img src=""stimuli/darkgreenblue.png"" style=""width: 200px;height: 200px;""></button>","1","darkgreenblue","lightred","[""darkgreenblue"",""lightred"",""low nameability""]","right-left","[""lightred"",""darkgreenblue""]","4","low nameability","31","right","response","1"
"html-audio-button-response","157","152808","0.0-120.0-1.0","CKN_103","103","","","","","","null","stimuli/bleep.m4a","null","darkgreenblue","lightred","[""darkgreenblue"",""lightred"",""low nameability""]","right-left","[""lightred"",""darkgreenblue""]","4","low nameability","31","right","audio_feedback","1"
"html-button-response","158","153320","0.0-121.0","CKN_103","103","","","","","","null","<button class=""jspsych-btn""><img src=""stimuli/white_square.png"" style=""width: 200px;height: 200px;""></button>","null","darkgreenblue","lightred","[""darkgreenblue"",""lightred"",""low nameability""]","right-left","[""lightred"",""darkgreenblue""]","4","low nameability","31","right","iti",""
"html-button-response","159","153520","0.0-122.0","CKN_103","103","","","","","","187","","0","turquoise","lightred","[""turquoise"",""lightred"",""low nameability""]","right-left","[""lightred"",""turquoise""]","4","low nameability","32","right","trigger",""
"html-button-response","160","154489","0.0-123.0-0.0","CKN_103","103","","","","","","962","<button class=""jspsych-btn""><img src=""stimuli/turquoise.png"" style=""width: 200px;height: 200px;""></button>","1","turquoise","lightred","[""turquoise"",""lightred"",""low nameability""]","right-left","[""lightred"",""turquoise""]","4","low nameability","32","right","response","1"
"html-audio-button-response","161","154697","0.0-123.0-1.0","CKN_103","103","","","","","","null","stimuli/bleep.m4a","null","turquoise","lightred","[""turquoise"",""lightred"",""low nameability""]","right-left","[""lightred"",""turquoise""]","4","low nameability","32","right","audio_feedback","1"
"html-button-response","162","155214","0.0-124.0","CKN_103","103","","","","","","null","<button class=""jspsych-btn""><img src=""stimuli/white_square.png"" style=""width: 200px;height: 200px;""></button>","null","turquoise","lightred","[""turquoise"",""lightred"",""low nameability""]","right-left","[""lightred"",""turquoise""]","4","low nameability","32","right","iti",""
"html-button-response","163","156438","0.0-125.0","CKN_103","103","","","","","","1216","","0","purple","red","[""purple"",""red"",""high nameability""]","right-left","[""red"",""purple""]","4","high nameability","33","right","trigger",""
"html-button-response","164","157276","0.0-126.0-0.0","CKN_103","103","","","","","","827","<button class=""jspsych-btn""><img src=""stimuli/purple.png"" style=""width: 200px;height: 200px;""></button>","1","purple","red","[""purple"",""red"",""high nameability""]","right-left","[""red"",""purple""]","4","high nameability","33","right","response","1"
"html-audio-button-response","165","157480","0.0-126.0-1.0","CKN_103","103","","","","","","null","stimuli/bleep.m4a","null","purple","red","[""purple"",""red"",""high nameability""]","right-left","[""red"",""purple""]","4","high nameability","33","right","audio_feedback","1"
"html-button-response","166","157995","0.0-127.0","CKN_103","103","","","","","","null","<button class=""jspsych-btn""><img src=""stimuli/white_square.png"" style=""width: 200px;height: 200px;""></button>","null","purple","red","[""purple"",""red"",""high nameability""]","right-left","[""red"",""purple""]","4","high nameability","33","right","iti",""
"html-button-response","167","158530","0.0-128.0","CKN_103","103","","","","","","521","","0","pink","lightred","[""pink"",""lightred"",""low nameability""]","left-right","[""pink"",""lightred"",""low nameability""]","4","low nameability","34","left","trigger",""
"html-button-response","168","159612","0.0-129.0-0.0","CKN_103","103","","","","","","1073","<button class=""jspsych-btn""><img src=""stimuli/pink.png"" style=""width: 200px;height: 200px;""></button>","0","pink","lightred","[""pink"",""lightred"",""low nameability""]","left-right","[""pink"",""lightred"",""low nameability""]","4","low nameability","34","left","response","1"
"html-audio-button-response","169","159818","0.0-129.0-1.0","CKN_103","103","","","","","","null","stimuli/bleep.m4a","null","pink","lightred","[""pink"",""lightred"",""low nameability""]","left-right","[""pink"",""lightred"",""low nameability""]","4","low nameability","34","left","audio_feedback","1"
"html-button-response","170","160337","0.0-130.0","CKN_103","103","","","","","","null","<button class=""jspsych-btn""><img src=""stimuli/white_square.png"" style=""width: 200px;height: 200px;""></button>","null","pink","lightred","[""pink"",""lightred"",""low nameability""]","left-right","[""pink"",""lightred"",""low nameability""]","4","low nameability","34","left","iti",""
"html-button-response","171","160819","0.0-131.0","CKN_103","103","","","","","","472","","0","mustard","neonyellow","[""mustard"",""neonyellow"",""low nameability""]","right-left","[""neonyellow"",""mustard""]","4","low nameability","35","right","trigger",""
"html-button-response","172","162376","0.0-132.0-0.0","CKN_103","103","","","","","","1547","<button class=""jspsych-btn""><img src=""stimuli/mustard.png"" style=""width: 200px;height: 200px;""></button>","1","mustard","neonyellow","[""mustard"",""neonyellow"",""low nameability""]","right-left","[""neonyellow"",""mustard""]","4","low nameability","35","right","response","1"
"html-audio-button-response","173","162579","0.0-132.0-1.0","CKN_103","103","","","","","","null","stimuli/bleep.m4a","null","mustard","neonyellow","[""mustard"",""neonyellow"",""low nameability""]","right-left","[""neonyellow"",""mustard""]","4","low nameability","35","right","audio_feedback","1"
"html-button-response","174","163094","0.0-133.0","CKN_103","103","","","","","","null","<button class=""jspsych-btn""><img src=""stimuli/white_square.png"" style=""width: 200px;height: 200px;""></button>","null","mustard","neonyellow","[""mustard"",""neonyellow"",""low nameability""]","right-left","[""neonyellow"",""mustard""]","4","low nameability","35","right","iti",""
"html-button-response","175","163726","0.0-134.0","CKN_103","103","","","","","","618","","0","red","blue","[""red"",""blue"",""high nameability""]","right-left","[""blue"",""red""]","4","high nameability","36","right","trigger",""
"html-button-response","176","164685","0.0-135.0-0.0","CKN_103","103","","","","","","953","<button class=""jspsych-btn""><img src=""stimuli/red.png"" style=""width: 200px;height: 200px;""></button>","1","red","blue","[""red"",""blue"",""high nameability""]","right-left","[""blue"",""red""]","4","high nameability","36","right","response","1"
"html-audio-button-response","177","164889","0.0-135.0-1.0","CKN_103","103","","","","","","null","stimuli/bleep.m4a","null","red","blue","[""red"",""blue"",""high nameability""]","right-left","[""blue"",""red""]","4","high nameability","36","right","audio_feedback","1"
"html-button-response","178","165407","0.0-136.0","CKN_103","103","","","","","","null","<button class=""jspsych-btn""><img src=""stimuli/white_square.png"" style=""width: 200px;height: 200px;""></button>","null","red","blue","[""red"",""blue"",""high nameability""]","right-left","[""blue"",""red""]","4","high nameability","36","right","iti",""
"html-button-response","179","165604","0.0-137.0","CKN_103","103","","","","","","183","","0","lightred","darkgreenblue","[""lightred"",""darkgreenblue"",""low nameability""]","left-right","[""lightred"",""darkgreenblue"",""low nameability""]","4","low nameability","37","left","trigger",""
"html-button-response","180","166755","0.0-138.0-0.0","CKN_103","103","","","","","","1141","<button class=""jspsych-btn""><img src=""stimuli/lightred.png"" style=""width: 200px;height: 200px;""></button>","0","lightred","darkgreenblue","[""lightred"",""darkgreenblue"",""low nameability""]","left-right","[""lightred"",""darkgreenblue"",""low nameability""]","4","low nameability","37","left","response","1"
"html-audio-button-response","181","166957","0.0-138.0-1.0","CKN_103","103","","","","","","null","stimuli/bleep.m4a","null","lightred","darkgreenblue","[""lightred"",""darkgreenblue"",""low nameability""]","left-right","[""lightred"",""darkgreenblue"",""low nameability""]","4","low nameability","37","left","audio_feedback","1"
"html-button-response","182","167468","0.0-139.0","CKN_103","103","","","","","","null","<button class=""jspsych-btn""><img src=""stimuli/white_square.png"" style=""width: 200px;height: 200px;""></button>","null","lightred","darkgreenblue","[""lightred"",""darkgreenblue"",""low nameability""]","left-right","[""lightred"",""darkgreenblue"",""low nameability""]","4","low nameability","37","left","iti",""
"html-button-response","183","167982","0.0-140.0","CKN_103","103","","","","","","505","","0","neonyellow","pink","[""neonyellow"",""pink"",""low nameability""]","right-left","[""pink"",""neonyellow""]","4","low nameability","38","right","trigger",""
"html-button-response","184","169011","0.0-141.0-0.0","CKN_103","103","","","","","","1023","<button class=""jspsych-btn""><img src=""stimuli/neonyellow.png"" style=""width: 200px;height: 200px;""></button>","1","neonyellow","pink","[""neonyellow"",""pink"",""low nameability""]","right-left","[""pink"",""neonyellow""]","4","low nameability","38","right","response","1"
"html-audio-button-response","185","169218","0.0-141.0-1.0","CKN_103","103","","","","","","null","stimuli/bleep.m4a","null","neonyellow","pink","[""neonyellow"",""pink"",""low nameability""]","right-left","[""pink"",""neonyellow""]","4","low nameability","38","right","audio_feedback","1"
"html-button-response","186","169733","0.0-142.0","CKN_103","103","","","","","","null","<button class=""jspsych-btn""><img src=""stimuli/white_square.png"" style=""width: 200px;height: 200px;""></button>","null","neonyellow","pink","[""neonyellow"",""pink"",""low nameability""]","right-left","[""pink"",""neonyellow""]","4","low nameability","38","right","iti",""
"html-button-response","187","170021","0.0-143.0","CKN_103","103","","","","","","276","","0","red","orange","[""red"",""orange"",""high nameability""]","right-left","[""orange"",""red""]","4","high nameability","39","right","trigger",""
"html-button-response","188","171021","0.0-144.0-0.0","CKN_103","103","","","","","","992","<button class=""jspsych-btn""><img src=""stimuli/red.png"" style=""width: 200px;height: 200px;""></button>","1","red","orange","[""red"",""orange"",""high nameability""]","right-left","[""orange"",""red""]","4","high nameability","39","right","response","1"
"html-audio-button-response","189","171226","0.0-144.0-1.0","CKN_103","103","","","","","","null","stimuli/bleep.m4a","null","red","orange","[""red"",""orange"",""high nameability""]","right-left","[""orange"",""red""]","4","high nameability","39","right","audio_feedback","1"
"html-button-response","190","171736","0.0-145.0","CKN_103","103","","","","","","null","<button class=""jspsych-btn""><img src=""stimuli/white_square.png"" style=""width: 200px;height: 200px;""></button>","null","red","orange","[""red"",""orange"",""high nameability""]","right-left","[""orange"",""red""]","4","high nameability","39","right","iti",""
"html-button-response","191","172232","0.0-146.0","CKN_103","103","","","","","","485","","0","brown","purple","[""brown"",""purple"",""high nameability""]","left-right","[""brown"",""purple"",""high nameability""]","4","high nameability","40","left","trigger",""
"html-button-response","192","173493","0.0-147.0-0.0","CKN_103","103","","","","","","1253","<button class=""jspsych-btn""><img src=""stimuli/brown.png"" style=""width: 200px;height: 200px;""></button>","0","brown","purple","[""brown"",""purple"",""high nameability""]","left-right","[""brown"",""purple"",""high nameability""]","4","high nameability","40","left","response","1"
"html-audio-button-response","193","173697","0.0-147.0-1.0","CKN_103","103","","","","","","null","stimuli/bleep.m4a","null","brown","purple","[""brown"",""purple"",""high nameability""]","left-right","[""brown"",""purple"",""high nameability""]","4","high nameability","40","left","audio_feedback","1"
"html-button-response","194","174213","0.0-148.0","CKN_103","103","","","","","","null","<button class=""jspsych-btn""><img src=""stimuli/white_square.png"" style=""width: 200px;height: 200px;""></button>","null","brown","purple","[""brown"",""purple"",""high nameability""]","left-right","[""brown"",""purple"",""high nameability""]","4","high nameability","40","left","iti",""
"pavlovia","195","174277","0.0-149.0","CKN_103","103","","","","","","","","","","","","","","","","","","",""
"pavlovia","196","174282","0.0-150.0","CKN_103","103","","","","","","","","","","","","","","","","","","",""
"html-audio-button-response","197","178375","0.0-151.0","CKN_103","103","","","","","","4157","stimuli/tada.m4a","0","","","","","","","","","","",""
"html-button-response","198","179407","0.0-152.0","CKN_103","103","","","","","","1024","","0","","","","","","","","","","",""
"html-button-response","199","180241","0.0-153.0","CKN_103","103","","","","","","828","","0","lightred","neonyellow","[""lightred"",""neonyellow"",""low nameability""]","right-left","[""neonyellow"",""lightred""]","5","low nameability","41","right","trigger",""
"html-button-response","200","181037","0.0-154.0-0.0","CKN_103","103","","","","","","789","<button class=""jspsych-btn""><img src=""stimuli/lightred.png"" style=""width: 200px;height: 200px;""></button>","1","lightred","neonyellow","[""lightred"",""neonyellow"",""low nameability""]","right-left","[""neonyellow"",""lightred""]","5","low nameability","41","right","response","1"
"html-audio-button-response","201","181241","0.0-154.0-1.0","CKN_103","103","","","","","","null","stimuli/bleep.m4a","null","lightred","neonyellow","[""lightred"",""neonyellow"",""low nameability""]","right-left","[""neonyellow"",""lightred""]","5","low nameability","41","right","audio_feedback","1"
"html-button-response","202","181756","0.0-155.0","CKN_103","103","","","","","","null","<button class=""jspsych-btn""><img src=""stimuli/white_square.png"" style=""width: 200px;height: 200px;""></button>","null","lightred","neonyellow","[""lightred"",""neonyellow"",""low nameability""]","right-left","[""neonyellow"",""lightred""]","5","low nameability","41","right","iti",""
"html-button-response","203","182007","0.0-156.0","CKN_103","103","","","","","","238","","0","blue","yellow","[""blue"",""yellow"",""high nameability""]","left-right","[""blue"",""yellow"",""high nameability""]","5","high nameability","42","left","trigger",""
"html-button-response","204","182992","0.0-157.0-0.0","CKN_103","103","","","","","","978","<button class=""jspsych-btn""><img src=""stimuli/blue.png"" style=""width: 200px;height: 200px;""></button>","0","blue","yellow","[""blue"",""yellow"",""high nameability""]","left-right","[""blue"",""yellow"",""high nameability""]","5","high nameability","42","left","response","1"
"html-audio-button-response","205","183197","0.0-157.0-1.0","CKN_103","103","","","","","","null","stimuli/bleep.m4a","null","blue","yellow","[""blue"",""yellow"",""high nameability""]","left-right","[""blue"",""yellow"",""high nameability""]","5","high nameability","42","left","audio_feedback","1"
"html-button-response","206","183715","0.0-158.0","CKN_103","103","","","","","","null","<button class=""jspsych-btn""><img src=""stimuli/white_square.png"" style=""width: 200px;height: 200px;""></button>","null","blue","yellow","[""blue"",""yellow"",""high nameability""]","left-right","[""blue"",""yellow"",""high nameability""]","5","high nameability","42","left","iti",""
"html-button-response","207","183874","0.0-159.0","CKN_103","103","","","","","","148","","0","mustard","pink","[""mustard"",""pink"",""low nameability""]","left-right","[""mustard"",""pink"",""low nameability""]","5","low nameability","43","left","trigger",""
"html-button-response","208","185740","0.0-160.0-0.0","CKN_103","103","","","","","","1858","<button class=""jspsych-btn""><img src=""stimuli/mustard.png"" style=""width: 200px;height: 200px;""></button>","0","mustard","pink","[""mustard"",""pink"",""low nameability""]","left-right","[""mustard"",""pink"",""low nameability""]","5","low nameability","43","left","response","1"
"html-audio-button-response","209","185949","0.0-160.0-1.0","CKN_103","103","","","","","","null","stimuli/bleep.m4a","null","mustard","pink","[""mustard"",""pink"",""low nameability""]","left-right","[""mustard"",""pink"",""low nameability""]","5","low nameability","43","left","audio_feedback","1"
"html-button-response","210","186468","0.0-161.0","CKN_103","103","","","","","","null","<button class=""jspsych-btn""><img src=""stimuli/white_square.png"" style=""width: 200px;height: 200px;""></button>","null","mustard","pink","[""mustard"",""pink"",""low nameability""]","left-right","[""mustard"",""pink"",""low nameability""]","5","low nameability","43","left","iti",""
"html-button-response","211","186599","0.0-162.0","CKN_103","103","","","","","","119","","0","mustard","turquoise","[""mustard"",""turquoise"",""low nameability""]","right-left","[""turquoise"",""mustard""]","5","low nameability","44","right","trigger",""
"html-button-response","212","187890","0.0-163.0-0.0","CKN_103","103","","","","","","1283","<button class=""jspsych-btn""><img src=""stimuli/mustard.png"" style=""width: 200px;height: 200px;""></button>","1","mustard","turquoise","[""mustard"",""turquoise"",""low nameability""]","right-left","[""turquoise"",""mustard""]","5","low nameability","44","right","response","1"
"html-audio-button-response","213","188087","0.0-163.0-1.0","CKN_103","103","","","","","","null","stimuli/bleep.m4a","null","mustard","turquoise","[""mustard"",""turquoise"",""low nameability""]","right-left","[""turquoise"",""mustard""]","5","low nameability","44","right","audio_feedback","1"
"html-button-response","214","188603","0.0-164.0","CKN_103","103","","","","","","null","<button class=""jspsych-btn""><img src=""stimuli/white_square.png"" style=""width: 200px;height: 200px;""></button>","null","mustard","turquoise","[""mustard"",""turquoise"",""low nameability""]","right-left","[""turquoise"",""mustard""]","5","low nameability","44","right","iti",""
"html-button-response","215","188738","0.0-165.0","CKN_103","103","","","","","","124","","0","blue","brown","[""blue"",""brown"",""high nameability""]","left-right","[""blue"",""brown"",""high nameability""]","5","high nameability","45","left","trigger",""
"html-button-response","216","189745","0.0-166.0-0.0","CKN_103","103","","","","","","998","<button class=""jspsych-btn""><img src=""stimuli/blue.png"" style=""width: 200px;height: 200px;""></button>","0","blue","brown","[""blue"",""brown"",""high nameability""]","left-right","[""blue"",""brown"",""high nameability""]","5","high nameability","45","left","response","1"
"html-audio-button-response","217","189947","0.0-166.0-1.0","CKN_103","103","","","","","","null","stimuli/bleep.m4a","null","blue","brown","[""blue"",""brown"",""high nameability""]","left-right","[""blue"",""brown"",""high nameability""]","5","high nameability","45","left","audio_feedback","1"
"html-button-response","218","190461","0.0-167.0","CKN_103","103","","","","","","null","<button class=""jspsych-btn""><img src=""stimuli/white_square.png"" style=""width: 200px;height: 200px;""></button>","null","blue","brown","[""blue"",""brown"",""high nameability""]","left-right","[""blue"",""brown"",""high nameability""]","5","high nameability","45","left","iti",""
"html-button-response","219","193076","0.0-168.0","CKN_103","103","","","","","","2603","","0","blue","orange","[""blue"",""orange"",""high nameability""]","right-left","[""orange"",""blue""]","5","high nameability","46","right","trigger",""
"html-button-response","220","194326","0.0-169.0-0.0","CKN_103","103","","","","","","1240","<button class=""jspsych-btn""><img src=""stimuli/blue.png"" style=""width: 200px;height: 200px;""></button>","1","blue","orange","[""blue"",""orange"",""high nameability""]","right-left","[""orange"",""blue""]","5","high nameability","46","right","response","1"
"html-audio-button-response","221","194527","0.0-169.0-1.0","CKN_103","103","","","","","","null","stimuli/bleep.m4a","null","blue","orange","[""blue"",""orange"",""high nameability""]","right-left","[""orange"",""blue""]","5","high nameability","46","right","audio_feedback","1"
"html-button-response","222","195040","0.0-170.0","CKN_103","103","","","","","","null","<button class=""jspsych-btn""><img src=""stimuli/white_square.png"" style=""width: 200px;height: 200px;""></button>","null","blue","orange","[""blue"",""orange"",""high nameability""]","right-left","[""orange"",""blue""]","5","high nameability","46","right","iti",""
"html-button-response","223","195237","0.0-171.0","CKN_103","103","","","","","","184","","0","pink","turquoise","[""pink"",""turquoise"",""low nameability""]","right-left","[""turquoise"",""pink""]","5","low nameability","47","right","trigger",""
"html-button-response","224","196609","0.0-172.0-0.0","CKN_103","103","","","","","","1361","<button class=""jspsych-btn""><img src=""stimuli/pink.png"" style=""width: 200px;height: 200px;""></button>","1","pink","turquoise","[""pink"",""turquoise"",""low nameability""]","right-left","[""turquoise"",""pink""]","5","low nameability","47","right","response","1"
"html-audio-button-response","225","196815","0.0-172.0-1.0","CKN_103","103","","","","","","null","stimuli/bleep.m4a","null","pink","turquoise","[""pink"",""turquoise"",""low nameability""]","right-left","[""turquoise"",""pink""]","5","low nameability","47","right","audio_feedback","1"
"html-button-response","226","197341","0.0-173.0","CKN_103","103","","","","","","null","<button class=""jspsych-btn""><img src=""stimuli/white_square.png"" style=""width: 200px;height: 200px;""></button>","null","pink","turquoise","[""pink"",""turquoise"",""low nameability""]","right-left","[""turquoise"",""pink""]","5","low nameability","47","right","iti",""
"html-button-response","227","197612","0.0-174.0","CKN_103","103","","","","","","245","","0","lightred","turquoise","[""lightred"",""turquoise"",""low nameability""]","right-left","[""turquoise"",""lightred""]","5","low nameability","48","right","trigger",""
"html-button-response","228","198661","0.0-175.0-0.0","CKN_103","103","","","","","","1041","<button class=""jspsych-btn""><img src=""stimuli/lightred.png"" style=""width: 200px;height: 200px;""></button>","1","lightred","turquoise","[""lightred"",""turquoise"",""low nameability""]","right-left","[""turquoise"",""lightred""]","5","low nameability","48","right","response","1"
"html-audio-button-response","229","198863","0.0-175.0-1.0","CKN_103","103","","","","","","null","stimuli/bleep.m4a","null","lightred","turquoise","[""lightred"",""turquoise"",""low nameability""]","right-left","[""turquoise"",""lightred""]","5","low nameability","48","right","audio_feedback","1"
"html-button-response","230","199384","0.0-176.0","CKN_103","103","","","","","","null","<button class=""jspsych-btn""><img src=""stimuli/white_square.png"" style=""width: 200px;height: 200px;""></button>","null","lightred","turquoise","[""lightred"",""turquoise"",""low nameability""]","right-left","[""turquoise"",""lightred""]","5","low nameability","48","right","iti",""
"html-button-response","231","200214","0.0-177.0","CKN_103","103","","","","","","814","","0","lightred","mustard","[""lightred"",""mustard"",""low nameability""]","left-right","[""lightred"",""mustard"",""low nameability""]","5","low nameability","49","left","trigger",""
"html-button-response","232","201374","0.0-178.0-0.0","CKN_103","103","","","","","","1144","<button class=""jspsych-btn""><img src=""stimuli/lightred.png"" style=""width: 200px;height: 200px;""></button>","0","lightred","mustard","[""lightred"",""mustard"",""low nameability""]","left-right","[""lightred"",""mustard"",""low nameability""]","5","low nameability","49","left","response","1"
"html-audio-button-response","233","201584","0.0-178.0-1.0","CKN_103","103","","","","","","null","stimuli/bleep.m4a","null","lightred","mustard","[""lightred"",""mustard"",""low nameability""]","left-right","[""lightred"",""mustard"",""low nameability""]","5","low nameability","49","left","audio_feedback","1"
"html-button-response","234","202114","0.0-179.0","CKN_103","103","","","","","","null","<button class=""jspsych-btn""><img src=""stimuli/white_square.png"" style=""width: 200px;height: 200px;""></button>","null","lightred","mustard","[""lightred"",""mustard"",""low nameability""]","left-right","[""lightred"",""mustard"",""low nameability""]","5","low nameability","49","left","iti",""
"html-button-response","235","202377","0.0-180.0","CKN_103","103","","","","","","248","","0","neonyellow","lightred","[""neonyellow"",""lightred"",""low nameability""]","left-right","[""neonyellow"",""lightred"",""low nameability""]","5","low nameability","50","left","trigger",""
"html-button-response","236","203334","0.0-181.0-0.0","CKN_103","103","","","","","","947","<button class=""jspsych-btn""><img src=""stimuli/neonyellow.png"" style=""width: 200px;height: 200px;""></button>","0","neonyellow","lightred","[""neonyellow"",""lightred"",""low nameability""]","left-right","[""neonyellow"",""lightred"",""low nameability""]","5","low nameability","50","left","response","1"
"html-audio-button-response","237","203532","0.0-181.0-1.0","CKN_103","103","","","","","","null","stimuli/bleep.m4a","null","neonyellow","lightred","[""neonyellow"",""lightred"",""low nameability""]","left-right","[""neonyellow"",""lightred"",""low nameability""]","5","low nameability","50","left","audio_feedback","1"
"html-button-response","238","204049","0.0-182.0","CKN_103","103","","","","","","null","<button class=""jspsych-btn""><img src=""stimuli/white_square.png"" style=""width: 200px;height: 200px;""></button>","null","neonyellow","lightred","[""neonyellow"",""lightred"",""low nameability""]","left-right","[""neonyellow"",""lightred"",""low nameability""]","5","low nameability","50","left","iti",""
"pavlovia","239","204140","0.0-183.0","CKN_103","103","","","","","","","","","","","","","","","","","","",""
"pavlovia","240","204150","0.0-184.0","CKN_103","103","","","","","","","","","","","","","","","","","","",""
"html-audio-button-response","241","207772","0.0-185.0","CKN_103","103","","","","","","3720","stimuli/tada.m4a","0","","","","","","","","","","",""
"html-button-response","242","208765","0.0-186.0","CKN_103","103","","","","","","985","","0","","","","","","","","","","",""
"html-button-response","243","209504","0.0-187.0","CKN_103","103","","","","","","731","","0","orange","brown","[""orange"",""brown"",""high nameability""]","left-right","[""orange"",""brown"",""high nameability""]","6","high nameability","51","left","trigger",""
"html-button-response","244","210305","0.0-188.0-0.0","CKN_103","103","","","","","","796","<button class=""jspsych-btn""><img src=""stimuli/orange.png"" style=""width: 200px;height: 200px;""></button>","0","orange","brown","[""orange"",""brown"",""high nameability""]","left-right","[""orange"",""brown"",""high nameability""]","6","high nameability","51","left","response","1"
"html-audio-button-response","245","210513","0.0-188.0-1.0","CKN_103","103","","","","","","null","stimuli/bleep.m4a","null","orange","brown","[""orange"",""brown"",""high nameability""]","left-right","[""orange"",""brown"",""high nameability""]","6","high nameability","51","left","audio_feedback","1"
"html-button-response","246","211027","0.0-189.0","CKN_103","103","","","","","","null","<button class=""jspsych-btn""><img src=""stimuli/white_square.png"" style=""width: 200px;height: 200px;""></button>","null","orange","brown","[""orange"",""brown"",""high nameability""]","left-right","[""orange"",""brown"",""high nameability""]","6","high nameability","51","left","iti",""
"html-button-response","247","211188","0.0-190.0","CKN_103","103","","","","","","150","","0","orange","red","[""orange"",""red"",""high nameability""]","left-right","[""orange"",""red"",""high nameability""]","6","high nameability","52","left","trigger",""
"html-button-response","248","212229","0.0-191.0-0.0","CKN_103","103","","","","","","1032","<button class=""jspsych-btn""><img src=""stimuli/orange.png"" style=""width: 200px;height: 200px;""></button>","0","orange","red","[""orange"",""red"",""high nameability""]","left-right","[""orange"",""red"",""high nameability""]","6","high nameability","52","left","response","1"
"html-audio-button-response","249","212433","0.0-191.0-1.0","CKN_103","103","","","","","","null","stimuli/bleep.m4a","null","orange","red","[""orange"",""red"",""high nameability""]","left-right","[""orange"",""red"",""high nameability""]","6","high nameability","52","left","audio_feedback","1"
"html-button-response","250","212946","0.0-192.0","CKN_103","103","","","","","","null","<button class=""jspsych-btn""><img src=""stimuli/white_square.png"" style=""width: 200px;height: 200px;""></button>","null","orange","red","[""orange"",""red"",""high nameability""]","left-right","[""orange"",""red"",""high nameability""]","6","high nameability","52","left","iti",""
"html-button-response","251","212975","0.0-193.0","CKN_103","103","","","","","","20","","0","turquoise","neonyellow","[""turquoise"",""neonyellow"",""low nameability""]","left-right","[""turquoise"",""neonyellow"",""low nameability""]","6","low nameability","53","left","trigger",""
"html-button-response","252","213736","0.0-194.0-0.0","CKN_103","103","","","","","","755","<button class=""jspsych-btn""><img src=""stimuli/turquoise.png"" style=""width: 200px;height: 200px;""></button>","0","turquoise","neonyellow","[""turquoise"",""neonyellow"",""low nameability""]","left-right","[""turquoise"",""neonyellow"",""low nameability""]","6","low nameability","53","left","response","1"
"html-audio-button-response","253","213936","0.0-194.0-1.0","CKN_103","103","","","","","","null","stimuli/bleep.m4a","null","turquoise","neonyellow","[""turquoise"",""neonyellow"",""low nameability""]","left-right","[""turquoise"",""neonyellow"",""low nameability""]","6","low nameability","53","left","audio_feedback","1"
"html-button-response","254","214469","0.0-195.0","CKN_103","103","","","","","","null","<button class=""jspsych-btn""><img src=""stimuli/white_square.png"" style=""width: 200px;height: 200px;""></button>","null","turquoise","neonyellow","[""turquoise"",""neonyellow"",""low nameability""]","left-right","[""turquoise"",""neonyellow"",""low nameability""]","6","low nameability","53","left","iti",""
"html-button-response","255","214514","0.0-196.0","CKN_103","103","","","","","","35","","0","pink","neonyellow","[""pink"",""neonyellow"",""low nameability""]","right-left","[""neonyellow"",""pink""]","6","low nameability","54","right","trigger",""
"html-button-response","256","215535","0.0-197.0-0.0","CKN_103","103","","","","","","1015","<button class=""jspsych-btn""><img src=""stimuli/pink.png"" style=""width: 200px;height: 200px;""></button>","1","pink","neonyellow","[""pink"",""neonyellow"",""low nameability""]","right-left","[""neonyellow"",""pink""]","6","low nameability","54","right","response","1"
"html-audio-button-response","257","215746","0.0-197.0-1.0","CKN_103","103","","","","","","null","stimuli/bleep.m4a","null","pink","neonyellow","[""pink"",""neonyellow"",""low nameability""]","right-left","[""neonyellow"",""pink""]","6","low nameability","54","right","audio_feedback","1"
"html-button-response","258","216257","0.0-198.0","CKN_103","103","","","","","","null","<button class=""jspsych-btn""><img src=""stimuli/white_square.png"" style=""width: 200px;height: 200px;""></button>","null","pink","neonyellow","[""pink"",""neonyellow"",""low nameability""]","right-left","[""neonyellow"",""pink""]","6","low nameability","54","right","iti",""
"html-button-response","259","216278","0.0-199.0","CKN_103","103","","","","","","15","","0","orange","yellow","[""orange"",""yellow"",""high nameability""]","left-right","[""orange"",""yellow"",""high nameability""]","6","high nameability","55","left","trigger",""
"html-button-response","260","217351","0.0-200.0-0.0","CKN_103","103","","","","","","1067","<button class=""jspsych-btn""><img src=""stimuli/orange.png"" style=""width: 200px;height: 200px;""></button>","0","orange","yellow","[""orange"",""yellow"",""high nameability""]","left-right","[""orange"",""yellow"",""high nameability""]","6","high nameability","55","left","response","1"
"html-audio-button-response","261","217557","0.0-200.0-1.0","CKN_103","103","","","","","","null","stimuli/bleep.m4a","null","orange","yellow","[""orange"",""yellow"",""high nameability""]","left-right","[""orange"",""yellow"",""high nameability""]","6","high nameability","55","left","audio_feedback","1"
"html-button-response","262","218077","0.0-201.0","CKN_103","103","","","","","","null","<button class=""jspsych-btn""><img src=""stimuli/white_square.png"" style=""width: 200px;height: 200px;""></button>","null","orange","yellow","[""orange"",""yellow"",""high nameability""]","left-right","[""orange"",""yellow"",""high nameability""]","6","high nameability","55","left","iti",""
"html-button-response","263","218257","0.0-202.0","CKN_103","103","","","","","","165","","0","brown","yellow","[""brown"",""yellow"",""high nameability""]","right-left","[""yellow"",""brown""]","6","high nameability","56","right","trigger",""
"html-button-response","264","219077","0.0-203.0-0.0","CKN_103","103","","","","","","810","<button class=""jspsych-btn""><img src=""stimuli/brown.png"" style=""width: 200px;height: 200px;""></button>","1","brown","yellow","[""brown"",""yellow"",""high nameability""]","right-left","[""yellow"",""brown""]","6","high nameability","56","right","response","1"
"html-audio-button-response","265","219283","0.0-203.0-1.0","CKN_103","103","","","","","","null","stimuli/bleep.m4a","null","brown","yellow","[""brown"",""yellow"",""high nameability""]","right-left","[""yellow"",""brown""]","6","high nameability","56","right","audio_feedback","1"
"html-button-response","266","219798","0.0-204.0","CKN_103","103","","","","","","null","<button class=""jspsych-btn""><img src=""stimuli/white_square.png"" style=""width: 200px;height: 200px;""></button>","null","brown","yellow","[""brown"",""yellow"",""high nameability""]","right-left","[""yellow"",""brown""]","6","high nameability","56","right","iti",""
"html-button-response","267","219926","0.0-205.0","CKN_103","103","","","","","","114","","0","purple","brown","[""purple"",""brown"",""high nameability""]","left-right","[""purple"",""brown"",""high nameability""]","6","high nameability","57","left","trigger",""
"html-button-response","268","220769","0.0-206.0-0.0","CKN_103","103","","","","","","836","<button class=""jspsych-btn""><img src=""stimuli/purple.png"" style=""width: 200px;height: 200px;""></button>","0","purple","brown","[""purple"",""brown"",""high nameability""]","left-right","[""purple"",""brown"",""high nameability""]","6","high nameability","57","left","response","1"
"html-audio-button-response","269","220974","0.0-206.0-1.0","CKN_103","103","","","","","","null","stimuli/bleep.m4a","null","purple","brown","[""purple"",""brown"",""high nameability""]","left-right","[""purple"",""brown"",""high nameability""]","6","high nameability","57","left","audio_feedback","1"
"html-button-response","270","221487","0.0-207.0","CKN_103","103","","","","","","null","<button class=""jspsych-btn""><img src=""stimuli/white_square.png"" style=""width: 200px;height: 200px;""></button>","null","purple","brown","[""purple"",""brown"",""high nameability""]","left-right","[""purple"",""brown"",""high nameability""]","6","high nameability","57","left","iti",""
"html-button-response","271","221805","0.0-208.0","CKN_103","103","","","","","","299","","0","turquoise","mustard","[""turquoise"",""mustard"",""low nameability""]","left-right","[""turquoise"",""mustard"",""low nameability""]","6","low nameability","58","left","trigger",""
"html-button-response","272","224810","0.0-209.0-0.0","CKN_103","103","","","","","","2997","<button class=""jspsych-btn""><img src=""stimuli/turquoise.png"" style=""width: 200px;height: 200px;""></button>","0","turquoise","mustard","[""turquoise"",""mustard"",""low nameability""]","left-right","[""turquoise"",""mustard"",""low nameability""]","6","low nameability","58","left","response","1"
"html-audio-button-response","273","225018","0.0-209.0-1.0","CKN_103","103","","","","","","null","stimuli/bleep.m4a","null","turquoise","mustard","[""turquoise"",""mustard"",""low nameability""]","left-right","[""turquoise"",""mustard"",""low nameability""]","6","low nameability","58","left","audio_feedback","1"
"html-button-response","274","225541","0.0-210.0","CKN_103","103","","","","","","null","<button class=""jspsych-btn""><img src=""stimuli/white_square.png"" style=""width: 200px;height: 200px;""></button>","null","turquoise","mustard","[""turquoise"",""mustard"",""low nameability""]","left-right","[""turquoise"",""mustard"",""low nameability""]","6","low nameability","58","left","iti",""
"html-button-response","275","226030","0.0-211.0","CKN_103","103","","","","","","476","","0","mustard","lightred","[""mustard"",""lightred"",""low nameability""]","left-right","[""mustard"",""lightred"",""low nameability""]","6","low nameability","59","left","trigger",""
"html-button-response","276","227230","0.0-212.0-0.0","CKN_103","103","","","","","","1188","<button class=""jspsych-btn""><img src=""stimuli/mustard.png"" style=""width: 200px;height: 200px;""></button>","0","mustard","lightred","[""mustard"",""lightred"",""low nameability""]","left-right","[""mustard"",""lightred"",""low nameability""]","6","low nameability","59","left","response","1"
"html-audio-button-response","277","227437","0.0-212.0-1.0","CKN_103","103","","","","","","null","stimuli/bleep.m4a","null","mustard","lightred","[""mustard"",""lightred"",""low nameability""]","left-right","[""mustard"",""lightred"",""low nameability""]","6","low nameability","59","left","audio_feedback","1"
"html-button-response","278","227954","0.0-213.0","CKN_103","103","","","","","","null","<button class=""jspsych-btn""><img src=""stimuli/white_square.png"" style=""width: 200px;height: 200px;""></button>","null","mustard","lightred","[""mustard"",""lightred"",""low nameability""]","left-right","[""mustard"",""lightred"",""low nameability""]","6","low nameability","59","left","iti",""
"html-button-response","279","229378","0.0-214.0","CKN_103","103","","","","","","1406","","0","blue","purple","[""blue"",""purple"",""high nameability""]","left-right","[""blue"",""purple"",""high nameability""]","6","high nameability","60","left","trigger",""
"html-button-response","280","230159","0.0-215.0-0.0","CKN_103","103","","","","","","774","<button class=""jspsych-btn""><img src=""stimuli/blue.png"" style=""width: 200px;height: 200px;""></button>","0","blue","purple","[""blue"",""purple"",""high nameability""]","left-right","[""blue"",""purple"",""high nameability""]","6","high nameability","60","left","response","1"
"html-audio-button-response","281","230361","0.0-215.0-1.0","CKN_103","103","","","","","","null","stimuli/bleep.m4a","null","blue","purple","[""blue"",""purple"",""high nameability""]","left-right","[""blue"",""purple"",""high nameability""]","6","high nameability","60","left","audio_feedback","1"
"html-button-response","282","230872","0.0-216.0","CKN_103","103","","","","","","null","<button class=""jspsych-btn""><img src=""stimuli/white_square.png"" style=""width: 200px;height: 200px;""></button>","null","blue","purple","[""blue"",""purple"",""high nameability""]","left-right","[""blue"",""purple"",""high nameability""]","6","high nameability","60","left","iti",""
