"trial_type","trial_index","time_elapsed","internal_node_id","subject_id","seed","success","timeout","failed_images","failed_audio","failed_video","rt","stimulus","response","target","foil","choices","combination_order","choices_in_order","round","condition","trial_counter","target_location","trial_kind","correct"
"pavlovia","0","22","0.0-0.0","CKN_132","132","","","","","","","","","","","","","","","","","","",""
"preload","1","684","0.0-1.0","CKN_132","132","true","false","[]","[]","[]","","","","","","","","","","","","","",""
"fullscreen","2","2800","0.0-2.0","CKN_132","132","true","","","","","","","","","","","","","","","","","",""
"html-button-response","3","279770","0.0-3.0","CKN_132","132","","","","","","276940","","0","","","","","","","","","","",""
"html-button-response","4","283909","0.0-4.0","CKN_132","132","","","","","","4115","","0","star","square","[""square"",""star""]","left-right","[""square"",""star""]","1","practice","1","right","trigger",""
"html-button-response","5","291860","0.0-5.0-0.0","CKN_132","132","","","","","","7930","<button class=""jspsych-btn""><img src=""stimuli/star.png"" style=""width: 200px;height: 200px;""></button>","1","star","square","[""square"",""star""]","left-right","[""square"",""star""]","1","practice","1","right","response","1"
"html-audio-button-response","6","292087","0.0-5.0-1.0","CKN_132","132","","","","","","null","stimuli/bleep.m4a","null","star","square","[""square"",""star""]","left-right","[""square"",""star""]","1","practice","1","right","audio_feedback","1"
"html-button-response","7","292617","0.0-6.0","CKN_132","132","","","","","","null","<button class=""jspsych-btn""><img src=""stimuli/white_square.png"" style=""width: 200px;height: 200px;""></button>","null","star","square","[""square"",""star""]","left-right","[""square"",""star""]","1","practice","1","right","iti",""
"html-button-response","8","295566","0.0-7.0","CKN_132","132","","","","","","2923","","0","triangle","pentagram","[""triangle"",""pentagram""]","left-right","[""triangle"",""pentagram""]","1","practice","1","left","trigger",""
"html-button-response","9","303911","0.0-8.0-0.0","CKN_132","132","","","","","","8331","<button class=""jspsych-btn""><img src=""stimuli/triangle.png"" style=""width: 200px;height: 200px;""></button>","0","triangle","pentagram","[""triangle"",""pentagram""]","left-right","[""triangle"",""pentagram""]","1","practice","1","left","response","1"
"html-audio-button-response","10","304119","0.0-8.0-1.0","CKN_132","132","","","","","","null","stimuli/bleep.m4a","null","triangle","pentagram","[""triangle"",""pentagram""]","left-right","[""triangle"",""pentagram""]","1","practice","1","left","audio_feedback","1"
"html-button-response","11","304641","0.0-9.0","CKN_132","132","","","","","","null","<button class=""jspsych-btn""><img src=""stimuli/white_square.png"" style=""width: 200px;height: 200px;""></button>","null","triangle","pentagram","[""triangle"",""pentagram""]","left-right","[""triangle"",""pentagram""]","1","practice","1","left","iti",""
"html-button-response","12","307882","0.0-10.0","CKN_132","132","","","","","","3228","","0","diamond","rectangle","[""rectangle"",""diamond""]","left-right","[""rectangle"",""diamond""]","1","practice","1","right","trigger",""
"html-button-response","13","313288","0.0-11.0-0.0","CKN_132","132","","","","","","5392","<button class=""jspsych-btn""><img src=""stimuli/diamond.png"" style=""width: 200px;height: 200px;""></button>","1","diamond","rectangle","[""rectangle"",""diamond""]","left-right","[""rectangle"",""diamond""]","1","practice","1","right","response","1"
"html-audio-button-response","14","313495","0.0-11.0-1.0","CKN_132","132","","","","","","null","stimuli/bleep.m4a","null","diamond","rectangle","[""rectangle"",""diamond""]","left-right","[""rectangle"",""diamond""]","1","practice","1","right","audio_feedback","1"
"html-button-response","15","314011","0.0-12.0","CKN_132","132","","","","","","null","<button class=""jspsych-btn""><img src=""stimuli/white_square.png"" style=""width: 200px;height: 200px;""></button>","null","diamond","rectangle","[""rectangle"",""diamond""]","left-right","[""rectangle"",""diamond""]","1","practice","1","right","iti",""
"html-button-response","16","318221","0.0-13.0","CKN_132","132","","","","","","4200","","0","pentagram","star","[""pentagram"",""star""]","left-right","[""pentagram"",""star""]","1","practice","1","left","trigger",""
"html-button-response","17","320731","0.0-14.0-0.0","CKN_132","132","","","","","","2501","<button class=""jspsych-btn""><img src=""stimuli/pentagram.png"" style=""width: 200px;height: 200px;""></button>","0","pentagram","star","[""pentagram"",""star""]","left-right","[""pentagram"",""star""]","1","practice","1","left","response","1"
"html-audio-button-response","18","320933","0.0-14.0-1.0","CKN_132","132","","","","","","null","stimuli/bleep.m4a","null","pentagram","star","[""pentagram"",""star""]","left-right","[""pentagram"",""star""]","1","practice","1","left","audio_feedback","1"
"html-button-response","19","321451","0.0-15.0","CKN_132","132","","","","","","null","<button class=""jspsych-btn""><img src=""stimuli/white_square.png"" style=""width: 200px;height: 200px;""></button>","null","pentagram","star","[""pentagram"",""star""]","left-right","[""pentagram"",""star""]","1","practice","1","left","iti",""
"html-button-response","20","325132","0.0-16.0","CKN_132","132","","","","","","3662","","0","","","","","","","","","","",""
"html-button-response","21","326919","0.0-17.0","CKN_132","132","","","","","","1778","","0","turquoise","pink","[""turquoise"",""pink"",""low nameability""]","right-left","[""pink"",""turquoise""]","1","low nameability","1","right","trigger",""
"html-button-response","22","331043","0.0-18.0-0.0","CKN_132","132","","","","","","4109","<button class=""jspsych-btn""><img src=""stimuli/turquoise.png"" style=""width: 200px;height: 200px;""></button>","1","turquoise","pink","[""turquoise"",""pink"",""low nameability""]","right-left","[""pink"",""turquoise""]","1","low nameability","1","right","response","1"
"html-audio-button-response","23","331246","0.0-18.0-1.0","CKN_132","132","","","","","","null","stimuli/bleep.m4a","null","turquoise","pink","[""turquoise"",""pink"",""low nameability""]","right-left","[""pink"",""turquoise""]","1","low nameability","1","right","audio_feedback","1"
"html-button-response","24","331758","0.0-19.0","CKN_132","132","","","","","","null","<button class=""jspsych-btn""><img src=""stimuli/white_square.png"" style=""width: 200px;height: 200px;""></button>","null","turquoise","pink","[""turquoise"",""pink"",""low nameability""]","right-left","[""pink"",""turquoise""]","1","low nameability","1","right","iti",""
"html-button-response","25","333584","0.0-20.0","CKN_132","132","","","","","","1808","","0","neonyellow","turquoise","[""neonyellow"",""turquoise"",""low nameability""]","right-left","[""turquoise"",""neonyellow""]","1","low nameability","2","right","trigger",""
"html-button-response","26","335104","0.0-21.0-0.0","CKN_132","132","","","","","","1506","<button class=""jspsych-btn""><img src=""stimuli/neonyellow.png"" style=""width: 200px;height: 200px;""></button>","1","neonyellow","turquoise","[""neonyellow"",""turquoise"",""low nameability""]","right-left","[""turquoise"",""neonyellow""]","1","low nameability","2","right","response","1"
"html-audio-button-response","27","335316","0.0-21.0-1.0","CKN_132","132","","","","","","null","stimuli/bleep.m4a","null","neonyellow","turquoise","[""neonyellow"",""turquoise"",""low nameability""]","right-left","[""turquoise"",""neonyellow""]","1","low nameability","2","right","audio_feedback","1"
"html-button-response","28","335833","0.0-22.0","CKN_132","132","","","","","","null","<button class=""jspsych-btn""><img src=""stimuli/white_square.png"" style=""width: 200px;height: 200px;""></button>","null","neonyellow","turquoise","[""neonyellow"",""turquoise"",""low nameability""]","right-left","[""turquoise"",""neonyellow""]","1","low nameability","2","right","iti",""
"html-button-response","29","337465","0.0-23.0","CKN_132","132","","","","","","1623","","0","darkgreenblue","lightred","[""darkgreenblue"",""lightred"",""low nameability""]","right-left","[""lightred"",""darkgreenblue""]","1","low nameability","3","right","trigger",""
"html-button-response","30","338733","0.0-24.0-0.0","CKN_132","132","","","","","","1260","<button class=""jspsych-btn""><img src=""stimuli/darkgreenblue.png"" style=""width: 200px;height: 200px;""></button>","1","darkgreenblue","lightred","[""darkgreenblue"",""lightred"",""low nameability""]","right-left","[""lightred"",""darkgreenblue""]","1","low nameability","3","right","response","1"
"html-audio-button-response","31","338949","0.0-24.0-1.0","CKN_132","132","","","","","","null","stimuli/bleep.m4a","null","darkgreenblue","lightred","[""darkgreenblue"",""lightred"",""low nameability""]","right-left","[""lightred"",""darkgreenblue""]","1","low nameability","3","right","audio_feedback","1"
"html-button-response","32","339470","0.0-25.0","CKN_132","132","","","","","","null","<button class=""jspsych-btn""><img src=""stimuli/white_square.png"" style=""width: 200px;height: 200px;""></button>","null","darkgreenblue","lightred","[""darkgreenblue"",""lightred"",""low nameability""]","right-left","[""lightred"",""darkgreenblue""]","1","low nameability","3","right","iti",""
"html-button-response","33","343535","0.0-26.0","CKN_132","132","","","","","","4045","","0","yellow","red","[""yellow"",""red"",""high nameability""]","right-left","[""red"",""yellow""]","1","high nameability","4","right","trigger",""
"html-button-response","34","345116","0.0-27.0-0.0","CKN_132","132","","","","","","1573","<button class=""jspsych-btn""><img src=""stimuli/yellow.png"" style=""width: 200px;height: 200px;""></button>","1","yellow","red","[""yellow"",""red"",""high nameability""]","right-left","[""red"",""yellow""]","1","high nameability","4","right","response","1"
"html-audio-button-response","35","345327","0.0-27.0-1.0","CKN_132","132","","","","","","null","stimuli/bleep.m4a","null","yellow","red","[""yellow"",""red"",""high nameability""]","right-left","[""red"",""yellow""]","1","high nameability","4","right","audio_feedback","1"
"html-button-response","36","345853","0.0-28.0","CKN_132","132","","","","","","null","<button class=""jspsych-btn""><img src=""stimuli/white_square.png"" style=""width: 200px;height: 200px;""></button>","null","yellow","red","[""yellow"",""red"",""high nameability""]","right-left","[""red"",""yellow""]","1","high nameability","4","right","iti",""
"html-button-response","37","347779","0.0-29.0","CKN_132","132","","","","","","1919","","0","pink","mustard","[""pink"",""mustard"",""low nameability""]","left-right","[""pink"",""mustard"",""low nameability""]","1","low nameability","5","left","trigger",""
"html-button-response","38","349326","0.0-30.0-0.0","CKN_132","132","","","","","","1540","<button class=""jspsych-btn""><img src=""stimuli/pink.png"" style=""width: 200px;height: 200px;""></button>","0","pink","mustard","[""pink"",""mustard"",""low nameability""]","left-right","[""pink"",""mustard"",""low nameability""]","1","low nameability","5","left","response","1"
"html-audio-button-response","39","349542","0.0-30.0-1.0","CKN_132","132","","","","","","null","stimuli/bleep.m4a","null","pink","mustard","[""pink"",""mustard"",""low nameability""]","left-right","[""pink"",""mustard"",""low nameability""]","1","low nameability","5","left","audio_feedback","1"
"html-button-response","40","350058","0.0-31.0","CKN_132","132","","","","","","null","<button class=""jspsych-btn""><img src=""stimuli/white_square.png"" style=""width: 200px;height: 200px;""></button>","null","pink","mustard","[""pink"",""mustard"",""low nameability""]","left-right","[""pink"",""mustard"",""low nameability""]","1","low nameability","5","left","iti",""
"html-button-response","41","354977","0.0-32.0","CKN_132","132","","","","","","4908","","0","mustard","pink","[""mustard"",""pink"",""low nameability""]","left-right","[""mustard"",""pink"",""low nameability""]","1","low nameability","6","left","trigger",""
"html-button-response","42","358581","0.0-33.0-0.0","CKN_132","132","","","","","","3597","<button class=""jspsych-btn""><img src=""stimuli/mustard.png"" style=""width: 200px;height: 200px;""></button>","0","mustard","pink","[""mustard"",""pink"",""low nameability""]","left-right","[""mustard"",""pink"",""low nameability""]","1","low nameability","6","left","response","1"
"html-audio-button-response","43","358789","0.0-33.0-1.0","CKN_132","132","","","","","","null","stimuli/bleep.m4a","null","mustard","pink","[""mustard"",""pink"",""low nameability""]","left-right","[""mustard"",""pink"",""low nameability""]","1","low nameability","6","left","audio_feedback","1"
"html-button-response","44","359296","0.0-34.0","CKN_132","132","","","","","","null","<button class=""jspsych-btn""><img src=""stimuli/white_square.png"" style=""width: 200px;height: 200px;""></button>","null","mustard","pink","[""mustard"",""pink"",""low nameability""]","left-right","[""mustard"",""pink"",""low nameability""]","1","low nameability","6","left","iti",""
"html-button-response","45","361088","0.0-35.0","CKN_132","132","","","","","","1786","","0","blue","brown","[""blue"",""brown"",""high nameability""]","right-left","[""brown"",""blue""]","1","high nameability","7","right","trigger",""
"html-button-response","46","362717","0.0-36.0-0.0","CKN_132","132","","","","","","1620","<button class=""jspsych-btn""><img src=""stimuli/blue.png"" style=""width: 200px;height: 200px;""></button>","1","blue","brown","[""blue"",""brown"",""high nameability""]","right-left","[""brown"",""blue""]","1","high nameability","7","right","response","1"
"html-audio-button-response","47","362931","0.0-36.0-1.0","CKN_132","132","","","","","","null","stimuli/bleep.m4a","null","blue","brown","[""blue"",""brown"",""high nameability""]","right-left","[""brown"",""blue""]","1","high nameability","7","right","audio_feedback","1"
"html-button-response","48","363460","0.0-37.0","CKN_132","132","","","","","","40","<button class=""jspsych-btn""><img src=""stimuli/white_square.png"" style=""width: 200px;height: 200px;""></button>","1","blue","brown","[""blue"",""brown"",""high nameability""]","right-left","[""brown"",""blue""]","1","high nameability","7","right","iti",""
"html-button-response","49","364789","0.0-38.0","CKN_132","132","","","","","","1308","","0","brown","yellow","[""brown"",""yellow"",""high nameability""]","right-left","[""yellow"",""brown""]","1","high nameability","8","right","trigger",""
"html-button-response","50","366391","0.0-39.0-0.0","CKN_132","132","","","","","","1592","<button class=""jspsych-btn""><img src=""stimuli/brown.png"" style=""width: 200px;height: 200px;""></button>","1","brown","yellow","[""brown"",""yellow"",""high nameability""]","right-left","[""yellow"",""brown""]","1","high nameability","8","right","response","1"
"html-audio-button-response","51","366617","0.0-39.0-1.0","CKN_132","132","","","","","","null","stimuli/bleep.m4a","null","brown","yellow","[""brown"",""yellow"",""high nameability""]","right-left","[""yellow"",""brown""]","1","high nameability","8","right","audio_feedback","1"
"html-button-response","52","367139","0.0-40.0","CKN_132","132","","","","","","null","<button class=""jspsych-btn""><img src=""stimuli/white_square.png"" style=""width: 200px;height: 200px;""></button>","null","brown","yellow","[""brown"",""yellow"",""high nameability""]","right-left","[""yellow"",""brown""]","1","high nameability","8","right","iti",""
"html-button-response","53","368277","0.0-41.0","CKN_132","132","","","","","","1125","","0","pink","neonyellow","[""pink"",""neonyellow"",""low nameability""]","left-right","[""pink"",""neonyellow"",""low nameability""]","1","low nameability","9","left","trigger",""
"html-button-response","54","370384","0.0-42.0-0.0","CKN_132","132","","","","","","2099","<button class=""jspsych-btn""><img src=""stimuli/pink.png"" style=""width: 200px;height: 200px;""></button>","0","pink","neonyellow","[""pink"",""neonyellow"",""low nameability""]","left-right","[""pink"",""neonyellow"",""low nameability""]","1","low nameability","9","left","response","1"
"html-audio-button-response","55","370621","0.0-42.0-1.0","CKN_132","132","","","","","","null","stimuli/bleep.m4a","null","pink","neonyellow","[""pink"",""neonyellow"",""low nameability""]","left-right","[""pink"",""neonyellow"",""low nameability""]","1","low nameability","9","left","audio_feedback","1"
"html-button-response","56","371131","0.0-43.0","CKN_132","132","","","","","","null","<button class=""jspsych-btn""><img src=""stimuli/white_square.png"" style=""width: 200px;height: 200px;""></button>","null","pink","neonyellow","[""pink"",""neonyellow"",""low nameability""]","left-right","[""pink"",""neonyellow"",""low nameability""]","1","low nameability","9","left","iti",""
"html-button-response","57","372667","0.0-44.0","CKN_132","132","","","","","","1525","","0","lightred","pink","[""lightred"",""pink"",""low nameability""]","right-left","[""pink"",""lightred""]","1","low nameability","10","right","trigger",""
"html-button-response","58","374645","0.0-45.0-0.0","CKN_132","132","","","","","","1968","<button class=""jspsych-btn""><img src=""stimuli/lightred.png"" style=""width: 200px;height: 200px;""></button>","1","lightred","pink","[""lightred"",""pink"",""low nameability""]","right-left","[""pink"",""lightred""]","1","low nameability","10","right","response","1"
"html-audio-button-response","59","374858","0.0-45.0-1.0","CKN_132","132","","","","","","null","stimuli/bleep.m4a","null","lightred","pink","[""lightred"",""pink"",""low nameability""]","right-left","[""pink"",""lightred""]","1","low nameability","10","right","audio_feedback","1"
"html-button-response","60","375399","0.0-46.0","CKN_132","132","","","","","","null","<button class=""jspsych-btn""><img src=""stimuli/white_square.png"" style=""width: 200px;height: 200px;""></button>","null","lightred","pink","[""lightred"",""pink"",""low nameability""]","right-left","[""pink"",""lightred""]","1","low nameability","10","right","iti",""
"pavlovia","61","375480","0.0-47.0","CKN_132","132","","","","","","","","","","","","","","","","","","",""
"pavlovia","62","375500","0.0-48.0","CKN_132","132","","","","","","","","","","","","","","","","","","",""
"html-audio-button-response","63","380951","0.0-49.0","CKN_132","132","","","","","","5557","stimuli/tada.m4a","0","","","","","","","","","","",""
"html-button-response","64","381402","0.0-50.0","CKN_132","132","","","","","","438","","0","","","","","","","","","","",""
"html-button-response","65","382915","0.0-51.0","CKN_132","132","","","","","","1496","","0","red","blue","[""red"",""blue"",""high nameability""]","left-right","[""red"",""blue"",""high nameability""]","2","high nameability","11","left","trigger",""
"html-button-response","66","385501","0.0-52.0-0.0","CKN_132","132","","","","","","2574","<button class=""jspsych-btn""><img src=""stimuli/red.png"" style=""width: 200px;height: 200px;""></button>","0","red","blue","[""red"",""blue"",""high nameability""]","left-right","[""red"",""blue"",""high nameability""]","2","high nameability","11","left","response","1"
"html-audio-button-response","67","385719","0.0-52.0-1.0","CKN_132","132","","","","","","null","stimuli/bleep.m4a","null","red","blue","[""red"",""blue"",""high nameability""]","left-right","[""red"",""blue"",""high nameability""]","2","high nameability","11","left","audio_feedback","1"
"html-button-response","68","386251","0.0-53.0","CKN_132","132","","","","","","null","<button class=""jspsych-btn""><img src=""stimuli/white_square.png"" style=""width: 200px;height: 200px;""></button>","null","red","blue","[""red"",""blue"",""high nameability""]","left-right","[""red"",""blue"",""high nameability""]","2","high nameability","11","left","iti",""
"html-button-response","69","387533","0.0-54.0","CKN_132","132","","","","","","1241","","0","neonyellow","pink","[""neonyellow"",""pink"",""low nameability""]","right-left","[""pink"",""neonyellow""]","2","low nameability","12","right","trigger",""
"html-button-response","70","388968","0.0-55.0-0.0","CKN_132","132","","","","","","1417","<button class=""jspsych-btn""><img src=""stimuli/neonyellow.png"" style=""width: 200px;height: 200px;""></button>","1","neonyellow","pink","[""neonyellow"",""pink"",""low nameability""]","right-left","[""pink"",""neonyellow""]","2","low nameability","12","right","response","1"
"html-audio-button-response","71","389190","0.0-55.0-1.0","CKN_132","132","","","","","","null","stimuli/bleep.m4a","null","neonyellow","pink","[""neonyellow"",""pink"",""low nameability""]","right-left","[""pink"",""neonyellow""]","2","low nameability","12","right","audio_feedback","1"
"html-button-response","72","389710","0.0-56.0","CKN_132","132","","","","","","null","<button class=""jspsych-btn""><img src=""stimuli/white_square.png"" style=""width: 200px;height: 200px;""></button>","null","neonyellow","pink","[""neonyellow"",""pink"",""low nameability""]","right-left","[""pink"",""neonyellow""]","2","low nameability","12","right","iti",""
"html-button-response","73","390604","0.0-57.0","CKN_132","132","","","","","","877","","0","mustard","neonyellow","[""mustard"",""neonyellow"",""low nameability""]","right-left","[""neonyellow"",""mustard""]","2","low nameability","13","right","trigger",""
"html-button-response","74","392274","0.0-58.0-0.0","CKN_132","132","","","","","","1661","<button class=""jspsych-btn""><img src=""stimuli/mustard.png"" style=""width: 200px;height: 200px;""></button>","1","mustard","neonyellow","[""mustard"",""neonyellow"",""low nameability""]","right-left","[""neonyellow"",""mustard""]","2","low nameability","13","right","response","1"
"html-audio-button-response","75","392499","0.0-58.0-1.0","CKN_132","132","","","","","","null","stimuli/bleep.m4a","null","mustard","neonyellow","[""mustard"",""neonyellow"",""low nameability""]","right-left","[""neonyellow"",""mustard""]","2","low nameability","13","right","audio_feedback","1"
"html-button-response","76","393020","0.0-59.0","CKN_132","132","","","","","","null","<button class=""jspsych-btn""><img src=""stimuli/white_square.png"" style=""width: 200px;height: 200px;""></button>","null","mustard","neonyellow","[""mustard"",""neonyellow"",""low nameability""]","right-left","[""neonyellow"",""mustard""]","2","low nameability","13","right","iti",""
"html-button-response","77","394173","0.0-60.0","CKN_132","132","","","","","","1136","","0","pink","darkgreenblue","[""pink"",""darkgreenblue"",""low nameability""]","left-right","[""pink"",""darkgreenblue"",""low nameability""]","2","low nameability","14","left","trigger",""
"html-button-response","78","396456","0.0-61.0-0.0","CKN_132","132","","","","","","2268","<button class=""jspsych-btn""><img src=""stimuli/pink.png"" style=""width: 200px;height: 200px;""></button>","0","pink","darkgreenblue","[""pink"",""darkgreenblue"",""low nameability""]","left-right","[""pink"",""darkgreenblue"",""low nameability""]","2","low nameability","14","left","response","1"
"html-audio-button-response","79","396661","0.0-61.0-1.0","CKN_132","132","","","","","","null","stimuli/bleep.m4a","null","pink","darkgreenblue","[""pink"",""darkgreenblue"",""low nameability""]","left-right","[""pink"",""darkgreenblue"",""low nameability""]","2","low nameability","14","left","audio_feedback","1"
"html-button-response","80","397171","0.0-62.0","CKN_132","132","","","","","","null","<button class=""jspsych-btn""><img src=""stimuli/white_square.png"" style=""width: 200px;height: 200px;""></button>","null","pink","darkgreenblue","[""pink"",""darkgreenblue"",""low nameability""]","left-right","[""pink"",""darkgreenblue"",""low nameability""]","2","low nameability","14","left","iti",""
"html-button-response","81","398390","0.0-63.0","CKN_132","132","","","","","","1209","","0","lightred","mustard","[""lightred"",""mustard"",""low nameability""]","left-right","[""lightred"",""mustard"",""low nameability""]","2","low nameability","15","left","trigger",""
"html-button-response","82","399903","0.0-64.0-0.0","CKN_132","132","","","","","","1504","<button class=""jspsych-btn""><img src=""stimuli/lightred.png"" style=""width: 200px;height: 200px;""></button>","0","lightred","mustard","[""lightred"",""mustard"",""low nameability""]","left-right","[""lightred"",""mustard"",""low nameability""]","2","low nameability","15","left","response","1"
"html-audio-button-response","83","400117","0.0-64.0-1.0","CKN_132","132","","","","","","null","stimuli/bleep.m4a","null","lightred","mustard","[""lightred"",""mustard"",""low nameability""]","left-right","[""lightred"",""mustard"",""low nameability""]","2","low nameability","15","left","audio_feedback","1"
"html-button-response","84","400638","0.0-65.0","CKN_132","132","","","","","","null","<button class=""jspsych-btn""><img src=""stimuli/white_square.png"" style=""width: 200px;height: 200px;""></button>","null","lightred","mustard","[""lightred"",""mustard"",""low nameability""]","left-right","[""lightred"",""mustard"",""low nameability""]","2","low nameability","15","left","iti",""
"html-button-response","85","403282","0.0-66.0","CKN_132","132","","","","","","2623","","0","brown","red","[""brown"",""red"",""high nameability""]","right-left","[""red"",""brown""]","2","high nameability","16","right","trigger",""
"html-button-response","86","405708","0.0-67.0-0.0","CKN_132","132","","","","","","2416","<button class=""jspsych-btn""><img src=""stimuli/brown.png"" style=""width: 200px;height: 200px;""></button>","1","brown","red","[""brown"",""red"",""high nameability""]","right-left","[""red"",""brown""]","2","high nameability","16","right","response","1"
"html-audio-button-response","87","405910","0.0-67.0-1.0","CKN_132","132","","","","","","null","stimuli/bleep.m4a","null","brown","red","[""brown"",""red"",""high nameability""]","right-left","[""red"",""brown""]","2","high nameability","16","right","audio_feedback","1"
"html-button-response","88","406425","0.0-68.0","CKN_132","132","","","","","","null","<button class=""jspsych-btn""><img src=""stimuli/white_square.png"" style=""width: 200px;height: 200px;""></button>","null","brown","red","[""brown"",""red"",""high nameability""]","right-left","[""red"",""brown""]","2","high nameability","16","right","iti",""
"html-button-response","89","407540","0.0-69.0","CKN_132","132","","","","","","1096","","0","brown","orange","[""brown"",""orange"",""high nameability""]","right-left","[""orange"",""brown""]","2","high nameability","17","right","trigger",""
"html-button-response","90","408600","0.0-70.0-0.0","CKN_132","132","","","","","","1051","<button class=""jspsych-btn""><img src=""stimuli/brown.png"" style=""width: 200px;height: 200px;""></button>","1","brown","orange","[""brown"",""orange"",""high nameability""]","right-left","[""orange"",""brown""]","2","high nameability","17","right","response","1"
"html-audio-button-response","91","408810","0.0-70.0-1.0","CKN_132","132","","","","","","null","stimuli/bleep.m4a","null","brown","orange","[""brown"",""orange"",""high nameability""]","right-left","[""orange"",""brown""]","2","high nameability","17","right","audio_feedback","1"
"html-button-response","92","409320","0.0-71.0","CKN_132","132","","","","","","null","<button class=""jspsych-btn""><img src=""stimuli/white_square.png"" style=""width: 200px;height: 200px;""></button>","null","brown","orange","[""brown"",""orange"",""high nameability""]","right-left","[""orange"",""brown""]","2","high nameability","17","right","iti",""
"html-button-response","93","410327","0.0-72.0","CKN_132","132","","","","","","990","","0","brown","blue","[""brown"",""blue"",""high nameability""]","right-left","[""blue"",""brown""]","2","high nameability","18","right","trigger",""
"html-button-response","94","411385","0.0-73.0-0.0","CKN_132","132","","","","","","1048","<button class=""jspsych-btn""><img src=""stimuli/brown.png"" style=""width: 200px;height: 200px;""></button>","1","brown","blue","[""brown"",""blue"",""high nameability""]","right-left","[""blue"",""brown""]","2","high nameability","18","right","response","1"
"html-audio-button-response","95","411589","0.0-73.0-1.0","CKN_132","132","","","","","","null","stimuli/bleep.m4a","null","brown","blue","[""brown"",""blue"",""high nameability""]","right-left","[""blue"",""brown""]","2","high nameability","18","right","audio_feedback","1"
"html-button-response","96","412098","0.0-74.0","CKN_132","132","","","","","","null","<button class=""jspsych-btn""><img src=""stimuli/white_square.png"" style=""width: 200px;height: 200px;""></button>","null","brown","blue","[""brown"",""blue"",""high nameability""]","right-left","[""blue"",""brown""]","2","high nameability","18","right","iti",""
"html-button-response","97","412773","0.0-75.0","CKN_132","132","","","","","","672","","0","mustard","turquoise","[""mustard"",""turquoise"",""low nameability""]","right-left","[""turquoise"",""mustard""]","2","low nameability","19","right","trigger",""
"html-button-response","98","414702","0.0-76.0-0.0","CKN_132","132","","","","","","1924","<button class=""jspsych-btn""><img src=""stimuli/mustard.png"" style=""width: 200px;height: 200px;""></button>","1","mustard","turquoise","[""mustard"",""turquoise"",""low nameability""]","right-left","[""turquoise"",""mustard""]","2","low nameability","19","right","response","1"
"html-audio-button-response","99","414901","0.0-76.0-1.0","CKN_132","132","","","","","","null","stimuli/bleep.m4a","null","mustard","turquoise","[""mustard"",""turquoise"",""low nameability""]","right-left","[""turquoise"",""mustard""]","2","low nameability","19","right","audio_feedback","1"
"html-button-response","100","415411","0.0-77.0","CKN_132","132","","","","","","null","<button class=""jspsych-btn""><img src=""stimuli/white_square.png"" style=""width: 200px;height: 200px;""></button>","null","mustard","turquoise","[""mustard"",""turquoise"",""low nameability""]","right-left","[""turquoise"",""mustard""]","2","low nameability","19","right","iti",""
"html-button-response","101","416418","0.0-78.0","CKN_132","132","","","","","","996","","0","darkgreenblue","pink","[""darkgreenblue"",""pink"",""low nameability""]","right-left","[""pink"",""darkgreenblue""]","2","low nameability","20","right","trigger",""
"html-button-response","102","417628","0.0-79.0-0.0","CKN_132","132","","","","","","1199","<button class=""jspsych-btn""><img src=""stimuli/darkgreenblue.png"" style=""width: 200px;height: 200px;""></button>","1","darkgreenblue","pink","[""darkgreenblue"",""pink"",""low nameability""]","right-left","[""pink"",""darkgreenblue""]","2","low nameability","20","right","response","1"
"html-audio-button-response","103","417838","0.0-79.0-1.0","CKN_132","132","","","","","","null","stimuli/bleep.m4a","null","darkgreenblue","pink","[""darkgreenblue"",""pink"",""low nameability""]","right-left","[""pink"",""darkgreenblue""]","2","low nameability","20","right","audio_feedback","1"
"html-button-response","104","418347","0.0-80.0","CKN_132","132","","","","","","null","<button class=""jspsych-btn""><img src=""stimuli/white_square.png"" style=""width: 200px;height: 200px;""></button>","null","darkgreenblue","pink","[""darkgreenblue"",""pink"",""low nameability""]","right-left","[""pink"",""darkgreenblue""]","2","low nameability","20","right","iti",""
"pavlovia","105","418417","0.0-81.0","CKN_132","132","","","","","","","","","","","","","","","","","","",""
"pavlovia","106","418432","0.0-82.0","CKN_132","132","","","","","","","","","","","","","","","","","","",""
"html-audio-button-response","107","422111","0.0-83.0","CKN_132","132","","","","","","3755","stimuli/tada.m4a","0","","","","","","","","","","",""
"html-button-response","108","422782","0.0-84.0","CKN_132","132","","","","","","665","","0","","","","","","","","","","",""
"html-button-response","109","425511","0.0-85.0","CKN_132","132","","","","","","2724","","0","lightred","neonyellow","[""lightred"",""neonyellow"",""low nameability""]","left-right","[""lightred"",""neonyellow"",""low nameability""]","3","low nameability","21","left","trigger",""
"html-button-response","110","427477","0.0-86.0-0.0","CKN_132","132","","","","","","1955","<button class=""jspsych-btn""><img src=""stimuli/lightred.png"" style=""width: 200px;height: 200px;""></button>","0","lightred","neonyellow","[""lightred"",""neonyellow"",""low nameability""]","left-right","[""lightred"",""neonyellow"",""low nameability""]","3","low nameability","21","left","response","1"
"html-audio-button-response","111","427686","0.0-86.0-1.0","CKN_132","132","","","","","","null","stimuli/bleep.m4a","null","lightred","neonyellow","[""lightred"",""neonyellow"",""low nameability""]","left-right","[""lightred"",""neonyellow"",""low nameability""]","3","low nameability","21","left","audio_feedback","1"
"html-button-response","112","428202","0.0-87.0","CKN_132","132","","","","","","null","<button class=""jspsych-btn""><img src=""stimuli/white_square.png"" style=""width: 200px;height: 200px;""></button>","null","lightred","neonyellow","[""lightred"",""neonyellow"",""low nameability""]","left-right","[""lightred"",""neonyellow"",""low nameability""]","3","low nameability","21","left","iti",""
"html-button-response","113","429054","0.0-88.0","CKN_132","132","","","","","","838","","0","orange","yellow","[""orange"",""yellow"",""high nameability""]","left-right","[""orange"",""yellow"",""high nameability""]","3","high nameability","22","left","trigger",""
"html-button-response","114","431785","0.0-89.0-0.0","CKN_132","132","","","","","","2721","<button class=""jspsych-btn""><img src=""stimuli/orange.png"" style=""width: 200px;height: 200px;""></button>","0","orange","yellow","[""orange"",""yellow"",""high nameability""]","left-right","[""orange"",""yellow"",""high nameability""]","3","high nameability","22","left","response","1"
"html-audio-button-response","115","431990","0.0-89.0-1.0","CKN_132","132","","","","","","null","stimuli/bleep.m4a","null","orange","yellow","[""orange"",""yellow"",""high nameability""]","left-right","[""orange"",""yellow"",""high nameability""]","3","high nameability","22","left","audio_feedback","1"
"html-button-response","116","432509","0.0-90.0","CKN_132","132","","","","","","null","<button class=""jspsych-btn""><img src=""stimuli/white_square.png"" style=""width: 200px;height: 200px;""></button>","null","orange","yellow","[""orange"",""yellow"",""high nameability""]","left-right","[""orange"",""yellow"",""high nameability""]","3","high nameability","22","left","iti",""
"html-button-response","117","434662","0.0-91.0","CKN_132","132","","","","","","2136","","0","purple","red","[""purple"",""red"",""high nameability""]","left-right","[""purple"",""red"",""high nameability""]","3","high nameability","23","left","trigger",""
"html-button-response","118","435999","0.0-92.0-0.0","CKN_132","132","","","","","","1320","<button class=""jspsych-btn""><img src=""stimuli/purple.png"" style=""width: 200px;height: 200px;""></button>","0","purple","red","[""purple"",""red"",""high nameability""]","left-right","[""purple"",""red"",""high nameability""]","3","high nameability","23","left","response","1"
"html-audio-button-response","119","436224","0.0-92.0-1.0","CKN_132","132","","","","","","null","stimuli/bleep.m4a","null","purple","red","[""purple"",""red"",""high nameability""]","left-right","[""purple"",""red"",""high nameability""]","3","high nameability","23","left","audio_feedback","1"
"html-button-response","120","436748","0.0-93.0","CKN_132","132","","","","","","186","<button class=""jspsych-btn""><img src=""stimuli/white_square.png"" style=""width: 200px;height: 200px;""></button>","0","purple","red","[""purple"",""red"",""high nameability""]","left-right","[""purple"",""red"",""high nameability""]","3","high nameability","23","left","iti",""
"html-button-response","121","438271","0.0-94.0","CKN_132","132","","","","","","1506","","0","darkgreenblue","neonyellow","[""darkgreenblue"",""neonyellow"",""low nameability""]","left-right","[""darkgreenblue"",""neonyellow"",""low nameability""]","3","low nameability","24","left","trigger",""
"html-button-response","122","439560","0.0-95.0-0.0","CKN_132","132","","","","","","1273","<button class=""jspsych-btn""><img src=""stimuli/darkgreenblue.png"" style=""width: 200px;height: 200px;""></button>","0","darkgreenblue","neonyellow","[""darkgreenblue"",""neonyellow"",""low nameability""]","left-right","[""darkgreenblue"",""neonyellow"",""low nameability""]","3","low nameability","24","left","response","1"
"html-audio-button-response","123","439783","0.0-95.0-1.0","CKN_132","132","","","","","","null","stimuli/bleep.m4a","null","darkgreenblue","neonyellow","[""darkgreenblue"",""neonyellow"",""low nameability""]","left-right","[""darkgreenblue"",""neonyellow"",""low nameability""]","3","low nameability","24","left","audio_feedback","1"
"html-button-response","124","440325","0.0-96.0","CKN_132","132","","","","","","null","<button class=""jspsych-btn""><img src=""stimuli/white_square.png"" style=""width: 200px;height: 200px;""></button>","null","darkgreenblue","neonyellow","[""darkgreenblue"",""neonyellow"",""low nameability""]","left-right","[""darkgreenblue"",""neonyellow"",""low nameability""]","3","low nameability","24","left","iti",""
"html-button-response","125","441629","0.0-97.0","CKN_132","132","","","","","","1281","","0","turquoise","mustard","[""turquoise"",""mustard"",""low nameability""]","left-right","[""turquoise"",""mustard"",""low nameability""]","3","low nameability","25","left","trigger",""
"html-button-response","126","444265","0.0-98.0-0.0","CKN_132","132","","","","","","2618","<button class=""jspsych-btn""><img src=""stimuli/turquoise.png"" style=""width: 200px;height: 200px;""></button>","0","turquoise","mustard","[""turquoise"",""mustard"",""low nameability""]","left-right","[""turquoise"",""mustard"",""low nameability""]","3","low nameability","25","left","response","1"
"html-audio-button-response","127","444481","0.0-98.0-1.0","CKN_132","132","","","","","","null","stimuli/bleep.m4a","null","turquoise","mustard","[""turquoise"",""mustard"",""low nameability""]","left-right","[""turquoise"",""mustard"",""low nameability""]","3","low nameability","25","left","audio_feedback","1"
"html-button-response","128","445011","0.0-99.0","CKN_132","132","","","","","","null","<button class=""jspsych-btn""><img src=""stimuli/white_square.png"" style=""width: 200px;height: 200px;""></button>","null","turquoise","mustard","[""turquoise"",""mustard"",""low nameability""]","left-right","[""turquoise"",""mustard"",""low nameability""]","3","low nameability","25","left","iti",""
"html-button-response","129","446971","0.0-100.0","CKN_132","132","","","","","","1946","","0","red","brown","[""red"",""brown"",""high nameability""]","left-right","[""red"",""brown"",""high nameability""]","3","high nameability","26","left","trigger",""
"html-button-response","130","449606","0.0-101.0-0.0","CKN_132","132","","","","","","2628","<button class=""jspsych-btn""><img src=""stimuli/red.png"" style=""width: 200px;height: 200px;""></button>","0","red","brown","[""red"",""brown"",""high nameability""]","left-right","[""red"",""brown"",""high nameability""]","3","high nameability","26","left","response","1"
"html-audio-button-response","131","449813","0.0-101.0-1.0","CKN_132","132","","","","","","null","stimuli/bleep.m4a","null","red","brown","[""red"",""brown"",""high nameability""]","left-right","[""red"",""brown"",""high nameability""]","3","high nameability","26","left","audio_feedback","1"
"html-button-response","132","450328","0.0-102.0","CKN_132","132","","","","","","null","<button class=""jspsych-btn""><img src=""stimuli/white_square.png"" style=""width: 200px;height: 200px;""></button>","null","red","brown","[""red"",""brown"",""high nameability""]","left-right","[""red"",""brown"",""high nameability""]","3","high nameability","26","left","iti",""
"html-button-response","133","452108","0.0-103.0","CKN_132","132","","","","","","1773","","0","lightred","turquoise","[""lightred"",""turquoise"",""low nameability""]","left-right","[""lightred"",""turquoise"",""low nameability""]","3","low nameability","27","left","trigger",""
"html-button-response","134","453864","0.0-104.0-0.0","CKN_132","132","","","","","","1742","<button class=""jspsych-btn""><img src=""stimuli/lightred.png"" style=""width: 200px;height: 200px;""></button>","0","lightred","turquoise","[""lightred"",""turquoise"",""low nameability""]","left-right","[""lightred"",""turquoise"",""low nameability""]","3","low nameability","27","left","response","1"
"html-audio-button-response","135","454077","0.0-104.0-1.0","CKN_132","132","","","","","","null","stimuli/bleep.m4a","null","lightred","turquoise","[""lightred"",""turquoise"",""low nameability""]","left-right","[""lightred"",""turquoise"",""low nameability""]","3","low nameability","27","left","audio_feedback","1"
"html-button-response","136","454597","0.0-105.0","CKN_132","132","","","","","","null","<button class=""jspsych-btn""><img src=""stimuli/white_square.png"" style=""width: 200px;height: 200px;""></button>","null","lightred","turquoise","[""lightred"",""turquoise"",""low nameability""]","left-right","[""lightred"",""turquoise"",""low nameability""]","3","low nameability","27","left","iti",""
"html-button-response","137","456137","0.0-106.0","CKN_132","132","","","","","","1531","","0","lightred","darkgreenblue","[""lightred"",""darkgreenblue"",""low nameability""]","right-left","[""darkgreenblue"",""lightred""]","3","low nameability","28","right","trigger",""
"html-button-response","138","457455","0.0-107.0-0.0","CKN_132","132","","","","","","1306","<button class=""jspsych-btn""><img src=""stimuli/lightred.png"" style=""width: 200px;height: 200px;""></button>","0","lightred","darkgreenblue","[""lightred"",""darkgreenblue"",""low nameability""]","right-left","[""darkgreenblue"",""lightred""]","3","low nameability","28","right","response","0"
"html-audio-button-response","139","458106","0.0-107.0-1.0","CKN_132","132","","","","","","null","stimuli/boing.m4a","null","lightred","darkgreenblue","[""lightred"",""darkgreenblue"",""low nameability""]","right-left","[""darkgreenblue"",""lightred""]","3","low nameability","28","right","audio_feedback","0"
"html-button-response","140","459462","0.0-107.1-0.1","CKN_132","132","","","","","","1325","<button class=""jspsych-btn""><img src=""stimuli/lightred.png"" style=""width: 200px;height: 200px;""></button>","1","lightred","darkgreenblue","[""lightred"",""darkgreenblue"",""low nameability""]","right-left","[""darkgreenblue"",""lightred""]","3","low nameability","28","right","response","1"
"html-audio-button-response","141","459670","0.0-107.1-1.1","CKN_132","132","","","","","","null","stimuli/bleep.m4a","null","lightred","darkgreenblue","[""lightred"",""darkgreenblue"",""low nameability""]","right-left","[""darkgreenblue"",""lightred""]","3","low nameability","28","right","audio_feedback","1"
"html-button-response","142","460208","0.0-108.0","CKN_132","132","","","","","","null","<button class=""jspsych-btn""><img src=""stimuli/white_square.png"" style=""width: 200px;height: 200px;""></button>","null","lightred","darkgreenblue","[""lightred"",""darkgreenblue"",""low nameability""]","right-left","[""darkgreenblue"",""lightred""]","3","low nameability","28","right","iti",""
"html-button-response","143","463290","0.0-109.0","CKN_132","132","","","","","","3070","","0","blue","red","[""blue"",""red"",""high nameability""]","left-right","[""blue"",""red"",""high nameability""]","3","high nameability","29","left","trigger",""
"html-button-response","144","464541","0.0-110.0-0.0","CKN_132","132","","","","","","1241","<button class=""jspsych-btn""><img src=""stimuli/blue.png"" style=""width: 200px;height: 200px;""></button>","0","blue","red","[""blue"",""red"",""high nameability""]","left-right","[""blue"",""red"",""high nameability""]","3","high nameability","29","left","response","1"
"html-audio-button-response","145","464757","0.0-110.0-1.0","CKN_132","132","","","","","","null","stimuli/bleep.m4a","null","blue","red","[""blue"",""red"",""high nameability""]","left-right","[""blue"",""red"",""high nameability""]","3","high nameability","29","left","audio_feedback","1"
"html-button-response","146","465285","0.0-111.0","CKN_132","132","","","","","","null","<button class=""jspsych-btn""><img src=""stimuli/white_square.png"" style=""width: 200px;height: 200px;""></button>","null","blue","red","[""blue"",""red"",""high nameability""]","left-right","[""blue"",""red"",""high nameability""]","3","high nameability","29","left","iti",""
"html-button-response","147","466268","0.0-112.0","CKN_132","132","","","","","","964","","0","purple","orange","[""purple"",""orange"",""high nameability""]","left-right","[""purple"",""orange"",""high nameability""]","3","high nameability","30","left","trigger",""
"html-button-response","148","467456","0.0-113.0-0.0","CKN_132","132","","","","","","1179","<button class=""jspsych-btn""><img src=""stimuli/purple.png"" style=""width: 200px;height: 200px;""></button>","0","purple","orange","[""purple"",""orange"",""high nameability""]","left-right","[""purple"",""orange"",""high nameability""]","3","high nameability","30","left","response","1"
"html-audio-button-response","149","467662","0.0-113.0-1.0","CKN_132","132","","","","","","null","stimuli/bleep.m4a","null","purple","orange","[""purple"",""orange"",""high nameability""]","left-right","[""purple"",""orange"",""high nameability""]","3","high nameability","30","left","audio_feedback","1"
"html-button-response","150","468172","0.0-114.0","CKN_132","132","","","","","","null","<button class=""jspsych-btn""><img src=""stimuli/white_square.png"" style=""width: 200px;height: 200px;""></button>","null","purple","orange","[""purple"",""orange"",""high nameability""]","left-right","[""purple"",""orange"",""high nameability""]","3","high nameability","30","left","iti",""
"pavlovia","151","468271","0.0-115.0","CKN_132","132","","","","","","","","","","","","","","","","","","",""
"pavlovia","152","468290","0.0-116.0","CKN_132","132","","","","","","","","","","","","","","","","","","",""
"html-audio-button-response","153","472414","0.0-117.0","CKN_132","132","","","","","","4240","stimuli/tada.m4a","0","","","","","","","","","","",""
"html-button-response","154","473015","0.0-118.0","CKN_132","132","","","","","","592","","0","","","","","","","","","","",""
"html-button-response","155","474504","0.0-119.0","CKN_132","132","","","","","","1478","","0","darkgreenblue","turquoise","[""darkgreenblue"",""turquoise"",""low nameability""]","right-left","[""turquoise"",""darkgreenblue""]","4","low nameability","31","right","trigger",""
"html-button-response","156","476215","0.0-120.0-0.0","CKN_132","132","","","","","","1697","<button class=""jspsych-btn""><img src=""stimuli/darkgreenblue.png"" style=""width: 200px;height: 200px;""></button>","1","darkgreenblue","turquoise","[""darkgreenblue"",""turquoise"",""low nameability""]","right-left","[""turquoise"",""darkgreenblue""]","4","low nameability","31","right","response","1"
"html-audio-button-response","157","476430","0.0-120.0-1.0","CKN_132","132","","","","","","null","stimuli/bleep.m4a","null","darkgreenblue","turquoise","[""darkgreenblue"",""turquoise"",""low nameability""]","right-left","[""turquoise"",""darkgreenblue""]","4","low nameability","31","right","audio_feedback","1"
"html-button-response","158","476948","0.0-121.0","CKN_132","132","","","","","","null","<button class=""jspsych-btn""><img src=""stimuli/white_square.png"" style=""width: 200px;height: 200px;""></button>","null","darkgreenblue","turquoise","[""darkgreenblue"",""turquoise"",""low nameability""]","right-left","[""turquoise"",""darkgreenblue""]","4","low nameability","31","right","iti",""
"html-button-response","159","477911","0.0-122.0","CKN_132","132","","","","","","951","","0","yellow","orange","[""yellow"",""orange"",""high nameability""]","right-left","[""orange"",""yellow""]","4","high nameability","32","right","trigger",""
"html-button-response","160","482318","0.0-123.0-0.0","CKN_132","132","","","","","","4399","<button class=""jspsych-btn""><img src=""stimuli/yellow.png"" style=""width: 200px;height: 200px;""></button>","1","yellow","orange","[""yellow"",""orange"",""high nameability""]","right-left","[""orange"",""yellow""]","4","high nameability","32","right","response","1"
"html-audio-button-response","161","482547","0.0-123.0-1.0","CKN_132","132","","","","","","null","stimuli/bleep.m4a","null","yellow","orange","[""yellow"",""orange"",""high nameability""]","right-left","[""orange"",""yellow""]","4","high nameability","32","right","audio_feedback","1"
"html-button-response","162","483058","0.0-124.0","CKN_132","132","","","","","","null","<button class=""jspsych-btn""><img src=""stimuli/white_square.png"" style=""width: 200px;height: 200px;""></button>","null","yellow","orange","[""yellow"",""orange"",""high nameability""]","right-left","[""orange"",""yellow""]","4","high nameability","32","right","iti",""
"html-button-response","163","486002","0.0-125.0","CKN_132","132","","","","","","2938","","0","yellow","brown","[""yellow"",""brown"",""high nameability""]","right-left","[""brown"",""yellow""]","4","high nameability","33","right","trigger",""
"html-button-response","164","488241","0.0-126.0-0.0","CKN_132","132","","","","","","2231","<button class=""jspsych-btn""><img src=""stimuli/yellow.png"" style=""width: 200px;height: 200px;""></button>","1","yellow","brown","[""yellow"",""brown"",""high nameability""]","right-left","[""brown"",""yellow""]","4","high nameability","33","right","response","1"
"html-audio-button-response","165","488466","0.0-126.0-1.0","CKN_132","132","","","","","","null","stimuli/bleep.m4a","null","yellow","brown","[""yellow"",""brown"",""high nameability""]","right-left","[""brown"",""yellow""]","4","high nameability","33","right","audio_feedback","1"
"html-button-response","166","488991","0.0-127.0","CKN_132","132","","","","","","null","<button class=""jspsych-btn""><img src=""stimuli/white_square.png"" style=""width: 200px;height: 200px;""></button>","null","yellow","brown","[""yellow"",""brown"",""high nameability""]","right-left","[""brown"",""yellow""]","4","high nameability","33","right","iti",""
"html-button-response","167","490169","0.0-128.0","CKN_132","132","","","","","","1172","","0","purple","brown","[""purple"",""brown"",""high nameability""]","right-left","[""brown"",""purple""]","4","high nameability","34","right","trigger",""
"html-button-response","168","491516","0.0-129.0-0.0","CKN_132","132","","","","","","1340","<button class=""jspsych-btn""><img src=""stimuli/purple.png"" style=""width: 200px;height: 200px;""></button>","1","purple","brown","[""purple"",""brown"",""high nameability""]","right-left","[""brown"",""purple""]","4","high nameability","34","right","response","1"
"html-audio-button-response","169","491744","0.0-129.0-1.0","CKN_132","132","","","","","","null","stimuli/bleep.m4a","null","purple","brown","[""purple"",""brown"",""high nameability""]","right-left","[""brown"",""purple""]","4","high nameability","34","right","audio_feedback","1"
"html-button-response","170","492266","0.0-130.0","CKN_132","132","","","","","","146","<button class=""jspsych-btn""><img src=""stimuli/white_square.png"" style=""width: 200px;height: 200px;""></button>","1","purple","brown","[""purple"",""brown"",""high nameability""]","right-left","[""brown"",""purple""]","4","high nameability","34","right","iti",""
"html-button-response","171","493359","0.0-131.0","CKN_132","132","","","","","","1084","","0","orange","purple","[""orange"",""purple"",""high nameability""]","left-right","[""orange"",""purple"",""high nameability""]","4","high nameability","35","left","trigger",""
"html-button-response","172","494904","0.0-132.0-0.0","CKN_132","132","","","","","","1537","<button class=""jspsych-btn""><img src=""stimuli/orange.png"" style=""width: 200px;height: 200px;""></button>","0","orange","purple","[""orange"",""purple"",""high nameability""]","left-right","[""orange"",""purple"",""high nameability""]","4","high nameability","35","left","response","1"
"html-audio-button-response","173","495121","0.0-132.0-1.0","CKN_132","132","","","","","","null","stimuli/bleep.m4a","null","orange","purple","[""orange"",""purple"",""high nameability""]","left-right","[""orange"",""purple"",""high nameability""]","4","high nameability","35","left","audio_feedback","1"
"html-button-response","174","495646","0.0-133.0","CKN_132","132","","","","","","null","<button class=""jspsych-btn""><img src=""stimuli/white_square.png"" style=""width: 200px;height: 200px;""></button>","null","orange","purple","[""orange"",""purple"",""high nameability""]","left-right","[""orange"",""purple"",""high nameability""]","4","high nameability","35","left","iti",""
"html-button-response","175","497189","0.0-134.0","CKN_132","132","","","","","","1528","","0","neonyellow","lightred","[""neonyellow"",""lightred"",""low nameability""]","left-right","[""neonyellow"",""lightred"",""low nameability""]","4","low nameability","36","left","trigger",""
"html-button-response","176","499308","0.0-135.0-0.0","CKN_132","132","","","","","","2109","<button class=""jspsych-btn""><img src=""stimuli/neonyellow.png"" style=""width: 200px;height: 200px;""></button>","0","neonyellow","lightred","[""neonyellow"",""lightred"",""low nameability""]","left-right","[""neonyellow"",""lightred"",""low nameability""]","4","low nameability","36","left","response","1"
"html-audio-button-response","177","499518","0.0-135.0-1.0","CKN_132","132","","","","","","null","stimuli/bleep.m4a","null","neonyellow","lightred","[""neonyellow"",""lightred"",""low nameability""]","left-right","[""neonyellow"",""lightred"",""low nameability""]","4","low nameability","36","left","audio_feedback","1"
"html-button-response","178","500048","0.0-136.0","CKN_132","132","","","","","","null","<button class=""jspsych-btn""><img src=""stimuli/white_square.png"" style=""width: 200px;height: 200px;""></button>","null","neonyellow","lightred","[""neonyellow"",""lightred"",""low nameability""]","left-right","[""neonyellow"",""lightred"",""low nameability""]","4","low nameability","36","left","iti",""
"html-button-response","179","501222","0.0-137.0","CKN_132","132","","","","","","1151","","0","turquoise","lightred","[""turquoise"",""lightred"",""low nameability""]","right-left","[""lightred"",""turquoise""]","4","low nameability","37","right","trigger",""
"html-button-response","180","503943","0.0-138.0-0.0","CKN_132","132","","","","","","2707","<button class=""jspsych-btn""><img src=""stimuli/turquoise.png"" style=""width: 200px;height: 200px;""></button>","1","turquoise","lightred","[""turquoise"",""lightred"",""low nameability""]","right-left","[""lightred"",""turquoise""]","4","low nameability","37","right","response","1"
"html-audio-button-response","181","504169","0.0-138.0-1.0","CKN_132","132","","","","","","null","stimuli/bleep.m4a","null","turquoise","lightred","[""turquoise"",""lightred"",""low nameability""]","right-left","[""lightred"",""turquoise""]","4","low nameability","37","right","audio_feedback","1"
"html-button-response","182","504711","0.0-139.0","CKN_132","132","","","","","","null","<button class=""jspsych-btn""><img src=""stimuli/white_square.png"" style=""width: 200px;height: 200px;""></button>","null","turquoise","lightred","[""turquoise"",""lightred"",""low nameability""]","right-left","[""lightred"",""turquoise""]","4","low nameability","37","right","iti",""
"html-button-response","183","506765","0.0-140.0","CKN_132","132","","","","","","2035","","0","neonyellow","darkgreenblue","[""neonyellow"",""darkgreenblue"",""low nameability""]","left-right","[""neonyellow"",""darkgreenblue"",""low nameability""]","4","low nameability","38","left","trigger",""
"html-button-response","184","508867","0.0-141.0-0.0","CKN_132","132","","","","","","2078","<button class=""jspsych-btn""><img src=""stimuli/neonyellow.png"" style=""width: 200px;height: 200px;""></button>","0","neonyellow","darkgreenblue","[""neonyellow"",""darkgreenblue"",""low nameability""]","left-right","[""neonyellow"",""darkgreenblue"",""low nameability""]","4","low nameability","38","left","response","1"
"html-audio-button-response","185","509085","0.0-141.0-1.0","CKN_132","132","","","","","","null","stimuli/bleep.m4a","null","neonyellow","darkgreenblue","[""neonyellow"",""darkgreenblue"",""low nameability""]","left-right","[""neonyellow"",""darkgreenblue"",""low nameability""]","4","low nameability","38","left","audio_feedback","1"
"html-button-response","186","509602","0.0-142.0","CKN_132","132","","","","","","null","<button class=""jspsych-btn""><img src=""stimuli/white_square.png"" style=""width: 200px;height: 200px;""></button>","null","neonyellow","darkgreenblue","[""neonyellow"",""darkgreenblue"",""low nameability""]","left-right","[""neonyellow"",""darkgreenblue"",""low nameability""]","4","low nameability","38","left","iti",""
"html-button-response","187","510812","0.0-143.0","CKN_132","132","","","","","","1196","","0","mustard","darkgreenblue","[""mustard"",""darkgreenblue"",""low nameability""]","right-left","[""darkgreenblue"",""mustard""]","4","low nameability","39","right","trigger",""
"html-button-response","188","512319","0.0-144.0-0.0","CKN_132","132","","","","","","1492","<button class=""jspsych-btn""><img src=""stimuli/mustard.png"" style=""width: 200px;height: 200px;""></button>","1","mustard","darkgreenblue","[""mustard"",""darkgreenblue"",""low nameability""]","right-left","[""darkgreenblue"",""mustard""]","4","low nameability","39","right","response","1"
"html-audio-button-response","189","512533","0.0-144.0-1.0","CKN_132","132","","","","","","null","stimuli/bleep.m4a","null","mustard","darkgreenblue","[""mustard"",""darkgreenblue"",""low nameability""]","right-left","[""darkgreenblue"",""mustard""]","4","low nameability","39","right","audio_feedback","1"
"html-button-response","190","513057","0.0-145.0","CKN_132","132","","","","","","null","<button class=""jspsych-btn""><img src=""stimuli/white_square.png"" style=""width: 200px;height: 200px;""></button>","null","mustard","darkgreenblue","[""mustard"",""darkgreenblue"",""low nameability""]","right-left","[""darkgreenblue"",""mustard""]","4","low nameability","39","right","iti",""
"html-button-response","191","514102","0.0-146.0","CKN_132","132","","","","","","1035","","0","red","orange","[""red"",""orange"",""high nameability""]","left-right","[""red"",""orange"",""high nameability""]","4","high nameability","40","left","trigger",""
"html-button-response","192","515613","0.0-147.0-0.0","CKN_132","132","","","","","","1492","<button class=""jspsych-btn""><img src=""stimuli/red.png"" style=""width: 200px;height: 200px;""></button>","0","red","orange","[""red"",""orange"",""high nameability""]","left-right","[""red"",""orange"",""high nameability""]","4","high nameability","40","left","response","1"
"html-audio-button-response","193","515834","0.0-147.0-1.0","CKN_132","132","","","","","","null","stimuli/bleep.m4a","null","red","orange","[""red"",""orange"",""high nameability""]","left-right","[""red"",""orange"",""high nameability""]","4","high nameability","40","left","audio_feedback","1"
"html-button-response","194","516359","0.0-148.0","CKN_132","132","","","","","","null","<button class=""jspsych-btn""><img src=""stimuli/white_square.png"" style=""width: 200px;height: 200px;""></button>","null","red","orange","[""red"",""orange"",""high nameability""]","left-right","[""red"",""orange"",""high nameability""]","4","high nameability","40","left","iti",""
"pavlovia","195","516474","0.0-149.0","CKN_132","132","","","","","","","","","","","","","","","","","","",""
"pavlovia","196","516488","0.0-150.0","CKN_132","132","","","","","","","","","","","","","","","","","","",""
"html-audio-button-response","197","521577","0.0-151.0","CKN_132","132","","","","","","5211","stimuli/tada.m4a","0","","","","","","","","","","",""
"html-button-response","198","523402","0.0-152.0","CKN_132","132","","","","","","1819","","0","","","","","","","","","","",""
"html-button-response","199","525270","0.0-153.0","CKN_132","132","","","","","","1859","","0","blue","purple","[""blue"",""purple"",""high nameability""]","left-right","[""blue"",""purple"",""high nameability""]","5","high nameability","41","left","trigger",""
"html-button-response","200","526766","0.0-154.0-0.0","CKN_132","132","","","","","","1487","<button class=""jspsych-btn""><img src=""stimuli/blue.png"" style=""width: 200px;height: 200px;""></button>","0","blue","purple","[""blue"",""purple"",""high nameability""]","left-right","[""blue"",""purple"",""high nameability""]","5","high nameability","41","left","response","1"
"html-audio-button-response","201","526980","0.0-154.0-1.0","CKN_132","132","","","","","","null","stimuli/bleep.m4a","null","blue","purple","[""blue"",""purple"",""high nameability""]","left-right","[""blue"",""purple"",""high nameability""]","5","high nameability","41","left","audio_feedback","1"
"html-button-response","202","527506","0.0-155.0","CKN_132","132","","","","","","null","<button class=""jspsych-btn""><img src=""stimuli/white_square.png"" style=""width: 200px;height: 200px;""></button>","null","blue","purple","[""blue"",""purple"",""high nameability""]","left-right","[""blue"",""purple"",""high nameability""]","5","high nameability","41","left","iti",""
"html-button-response","203","528129","0.0-156.0","CKN_132","132","","","","","","604","","0","turquoise","darkgreenblue","[""turquoise"",""darkgreenblue"",""low nameability""]","left-right","[""turquoise"",""darkgreenblue"",""low nameability""]","5","low nameability","42","left","trigger",""
"html-button-response","204","531070","0.0-157.0-0.0","CKN_132","132","","","","","","2932","<button class=""jspsych-btn""><img src=""stimuli/turquoise.png"" style=""width: 200px;height: 200px;""></button>","0","turquoise","darkgreenblue","[""turquoise"",""darkgreenblue"",""low nameability""]","left-right","[""turquoise"",""darkgreenblue"",""low nameability""]","5","low nameability","42","left","response","1"
"html-audio-button-response","205","531281","0.0-157.0-1.0","CKN_132","132","","","","","","null","stimuli/bleep.m4a","null","turquoise","darkgreenblue","[""turquoise"",""darkgreenblue"",""low nameability""]","left-right","[""turquoise"",""darkgreenblue"",""low nameability""]","5","low nameability","42","left","audio_feedback","1"
"html-button-response","206","531805","0.0-158.0","CKN_132","132","","","","","","null","<button class=""jspsych-btn""><img src=""stimuli/white_square.png"" style=""width: 200px;height: 200px;""></button>","null","turquoise","darkgreenblue","[""turquoise"",""darkgreenblue"",""low nameability""]","left-right","[""turquoise"",""darkgreenblue"",""low nameability""]","5","low nameability","42","left","iti",""
"html-button-response","207","532821","0.0-159.0","CKN_132","132","","","","","","1005","","0","pink","lightred","[""pink"",""lightred"",""low nameability""]","left-right","[""pink"",""lightred"",""low nameability""]","5","low nameability","43","left","trigger",""
"html-button-response","208","534130","0.0-160.0-0.0","CKN_132","132","","","","","","1296","<button class=""jspsych-btn""><img src=""stimuli/pink.png"" style=""width: 200px;height: 200px;""></button>","0","pink","lightred","[""pink"",""lightred"",""low nameability""]","left-right","[""pink"",""lightred"",""low nameability""]","5","low nameability","43","left","response","1"
"html-audio-button-response","209","534341","0.0-160.0-1.0","CKN_132","132","","","","","","null","stimuli/bleep.m4a","null","pink","lightred","[""pink"",""lightred"",""low nameability""]","left-right","[""pink"",""lightred"",""low nameability""]","5","low nameability","43","left","audio_feedback","1"
"html-button-response","210","534852","0.0-161.0","CKN_132","132","","","","","","null","<button class=""jspsych-btn""><img src=""stimuli/white_square.png"" style=""width: 200px;height: 200px;""></button>","null","pink","lightred","[""pink"",""lightred"",""low nameability""]","left-right","[""pink"",""lightred"",""low nameability""]","5","low nameability","43","left","iti",""
"html-button-response","211","537585","0.0-162.0","CKN_132","132","","","","","","2717","","0","orange","red","[""orange"",""red"",""high nameability""]","right-left","[""red"",""orange""]","5","high nameability","44","right","trigger",""
"html-button-response","212","539139","0.0-163.0-0.0","CKN_132","132","","","","","","1542","<button class=""jspsych-btn""><img src=""stimuli/orange.png"" style=""width: 200px;height: 200px;""></button>","1","orange","red","[""orange"",""red"",""high nameability""]","right-left","[""red"",""orange""]","5","high nameability","44","right","response","1"
"html-audio-button-response","213","539350","0.0-163.0-1.0","CKN_132","132","","","","","","null","stimuli/bleep.m4a","null","orange","red","[""orange"",""red"",""high nameability""]","right-left","[""red"",""orange""]","5","high nameability","44","right","audio_feedback","1"
"html-button-response","214","539874","0.0-164.0","CKN_132","132","","","","","","null","<button class=""jspsych-btn""><img src=""stimuli/white_square.png"" style=""width: 200px;height: 200px;""></button>","null","orange","red","[""orange"",""red"",""high nameability""]","right-left","[""red"",""orange""]","5","high nameability","44","right","iti",""
"html-button-response","215","540885","0.0-165.0","CKN_132","132","","","","","","996","","0","blue","yellow","[""blue"",""yellow"",""high nameability""]","left-right","[""blue"",""yellow"",""high nameability""]","5","high nameability","45","left","trigger",""
"html-button-response","216","542779","0.0-166.0-0.0","CKN_132","132","","","","","","1882","<button class=""jspsych-btn""><img src=""stimuli/blue.png"" style=""width: 200px;height: 200px;""></button>","0","blue","yellow","[""blue"",""yellow"",""high nameability""]","left-right","[""blue"",""yellow"",""high nameability""]","5","high nameability","45","left","response","1"
"html-audio-button-response","217","542981","0.0-166.0-1.0","CKN_132","132","","","","","","null","stimuli/bleep.m4a","null","blue","yellow","[""blue"",""yellow"",""high nameability""]","left-right","[""blue"",""yellow"",""high nameability""]","5","high nameability","45","left","audio_feedback","1"
"html-button-response","218","543496","0.0-167.0","CKN_132","132","","","","","","122","<button class=""jspsych-btn""><img src=""stimuli/white_square.png"" style=""width: 200px;height: 200px;""></button>","0","blue","yellow","[""blue"",""yellow"",""high nameability""]","left-right","[""blue"",""yellow"",""high nameability""]","5","high nameability","45","left","iti",""
"html-button-response","219","545376","0.0-168.0","CKN_132","132","","","","","","1869","","0","brown","purple","[""brown"",""purple"",""high nameability""]","right-left","[""purple"",""brown""]","5","high nameability","46","right","trigger",""
"html-button-response","220","546807","0.0-169.0-0.0","CKN_132","132","","","","","","1422","<button class=""jspsych-btn""><img src=""stimuli/brown.png"" style=""width: 200px;height: 200px;""></button>","1","brown","purple","[""brown"",""purple"",""high nameability""]","right-left","[""purple"",""brown""]","5","high nameability","46","right","response","1"
"html-audio-button-response","221","547015","0.0-169.0-1.0","CKN_132","132","","","","","","null","stimuli/bleep.m4a","null","brown","purple","[""brown"",""purple"",""high nameability""]","right-left","[""purple"",""brown""]","5","high nameability","46","right","audio_feedback","1"
"html-button-response","222","547528","0.0-170.0","CKN_132","132","","","","","","null","<button class=""jspsych-btn""><img src=""stimuli/white_square.png"" style=""width: 200px;height: 200px;""></button>","null","brown","purple","[""brown"",""purple"",""high nameability""]","right-left","[""purple"",""brown""]","5","high nameability","46","right","iti",""
"html-button-response","223","548621","0.0-171.0","CKN_132","132","","","","","","1084","","0","red","yellow","[""red"",""yellow"",""high nameability""]","left-right","[""red"",""yellow"",""high nameability""]","5","high nameability","47","left","trigger",""
"html-button-response","224","550842","0.0-172.0-0.0","CKN_132","132","","","","","","2211","<button class=""jspsych-btn""><img src=""stimuli/red.png"" style=""width: 200px;height: 200px;""></button>","0","red","yellow","[""red"",""yellow"",""high nameability""]","left-right","[""red"",""yellow"",""high nameability""]","5","high nameability","47","left","response","1"
"html-audio-button-response","225","551047","0.0-172.0-1.0","CKN_132","132","","","","","","null","stimuli/bleep.m4a","null","red","yellow","[""red"",""yellow"",""high nameability""]","left-right","[""red"",""yellow"",""high nameability""]","5","high nameability","47","left","audio_feedback","1"
"html-button-response","226","551563","0.0-173.0","CKN_132","132","","","","","","null","<button class=""jspsych-btn""><img src=""stimuli/white_square.png"" style=""width: 200px;height: 200px;""></button>","null","red","yellow","[""red"",""yellow"",""high nameability""]","left-right","[""red"",""yellow"",""high nameability""]","5","high nameability","47","left","iti",""
"html-button-response","227","552072","0.0-174.0","CKN_132","132","","","","","","494","","0","neonyellow","mustard","[""neonyellow"",""mustard"",""low nameability""]","left-right","[""neonyellow"",""mustard"",""low nameability""]","5","low nameability","48","left","trigger",""
"html-button-response","228","553422","0.0-175.0-0.0","CKN_132","132","","","","","","1342","<button class=""jspsych-btn""><img src=""stimuli/neonyellow.png"" style=""width: 200px;height: 200px;""></button>","0","neonyellow","mustard","[""neonyellow"",""mustard"",""low nameability""]","left-right","[""neonyellow"",""mustard"",""low nameability""]","5","low nameability","48","left","response","1"
"html-audio-button-response","229","553630","0.0-175.0-1.0","CKN_132","132","","","","","","null","stimuli/bleep.m4a","null","neonyellow","mustard","[""neonyellow"",""mustard"",""low nameability""]","left-right","[""neonyellow"",""mustard"",""low nameability""]","5","low nameability","48","left","audio_feedback","1"
"html-button-response","230","554149","0.0-176.0","CKN_132","132","","","","","","null","<button class=""jspsych-btn""><img src=""stimuli/white_square.png"" style=""width: 200px;height: 200px;""></button>","null","neonyellow","mustard","[""neonyellow"",""mustard"",""low nameability""]","left-right","[""neonyellow"",""mustard"",""low nameability""]","5","low nameability","48","left","iti",""
"html-button-response","231","554711","0.0-177.0","CKN_132","132","","","","","","548","","0","pink","turquoise","[""pink"",""turquoise"",""low nameability""]","right-left","[""turquoise"",""pink""]","5","low nameability","49","right","trigger",""
"html-button-response","232","556145","0.0-178.0-0.0","CKN_132","132","","","","","","1427","<button class=""jspsych-btn""><img src=""stimuli/pink.png"" style=""width: 200px;height: 200px;""></button>","1","pink","turquoise","[""pink"",""turquoise"",""low nameability""]","right-left","[""turquoise"",""pink""]","5","low nameability","49","right","response","1"
"html-audio-button-response","233","556347","0.0-178.0-1.0","CKN_132","132","","","","","","null","stimuli/bleep.m4a","null","pink","turquoise","[""pink"",""turquoise"",""low nameability""]","right-left","[""turquoise"",""pink""]","5","low nameability","49","right","audio_feedback","1"
"html-button-response","234","556861","0.0-179.0","CKN_132","132","","","","","","null","<button class=""jspsych-btn""><img src=""stimuli/white_square.png"" style=""width: 200px;height: 200px;""></button>","null","pink","turquoise","[""pink"",""turquoise"",""low nameability""]","right-left","[""turquoise"",""pink""]","5","low nameability","49","right","iti",""
"html-button-response","235","558893","0.0-180.0","CKN_132","132","","","","","","2016","","0","red","purple","[""red"",""purple"",""high nameability""]","right-left","[""purple"",""red""]","5","high nameability","50","right","trigger",""
"html-button-response","236","560181","0.0-181.0-0.0","CKN_132","132","","","","","","1283","<button class=""jspsych-btn""><img src=""stimuli/red.png"" style=""width: 200px;height: 200px;""></button>","1","red","purple","[""red"",""purple"",""high nameability""]","right-left","[""purple"",""red""]","5","high nameability","50","right","response","1"
"html-audio-button-response","237","560389","0.0-181.0-1.0","CKN_132","132","","","","","","null","stimuli/bleep.m4a","null","red","purple","[""red"",""purple"",""high nameability""]","right-left","[""purple"",""red""]","5","high nameability","50","right","audio_feedback","1"
"html-button-response","238","560910","0.0-182.0","CKN_132","132","","","","","","null","<button class=""jspsych-btn""><img src=""stimuli/white_square.png"" style=""width: 200px;height: 200px;""></button>","null","red","purple","[""red"",""purple"",""high nameability""]","right-left","[""purple"",""red""]","5","high nameability","50","right","iti",""
"pavlovia","239","561003","0.0-183.0","CKN_132","132","","","","","","","","","","","","","","","","","","",""
"pavlovia","240","561015","0.0-184.0","CKN_132","132","","","","","","","","","","","","","","","","","","",""
"html-audio-button-response","241","567813","0.0-185.0","CKN_132","132","","","","","","6896","stimuli/tada.m4a","0","","","","","","","","","","",""
"html-button-response","242","569657","0.0-186.0","CKN_132","132","","","","","","1821","","0","","","","","","","","","","",""
"html-button-response","243","571525","0.0-187.0","CKN_132","132","","","","","","1849","","0","turquoise","neonyellow","[""turquoise"",""neonyellow"",""low nameability""]","right-left","[""neonyellow"",""turquoise""]","6","low nameability","51","right","trigger",""
"html-button-response","244","572775","0.0-188.0-0.0","CKN_132","132","","","","","","1224","<button class=""jspsych-btn""><img src=""stimuli/turquoise.png"" style=""width: 200px;height: 200px;""></button>","1","turquoise","neonyellow","[""turquoise"",""neonyellow"",""low nameability""]","right-left","[""neonyellow"",""turquoise""]","6","low nameability","51","right","response","1"
"html-audio-button-response","245","573006","0.0-188.0-1.0","CKN_132","132","","","","","","null","stimuli/bleep.m4a","null","turquoise","neonyellow","[""turquoise"",""neonyellow"",""low nameability""]","right-left","[""neonyellow"",""turquoise""]","6","low nameability","51","right","audio_feedback","1"
"html-button-response","246","573541","0.0-189.0","CKN_132","132","","","","","","null","<button class=""jspsych-btn""><img src=""stimuli/white_square.png"" style=""width: 200px;height: 200px;""></button>","null","turquoise","neonyellow","[""turquoise"",""neonyellow"",""low nameability""]","right-left","[""neonyellow"",""turquoise""]","6","low nameability","51","right","iti",""
"html-button-response","247","573861","0.0-190.0","CKN_132","132","","","","","","299","","0","purple","yellow","[""purple"",""yellow"",""high nameability""]","left-right","[""purple"",""yellow"",""high nameability""]","6","high nameability","52","left","trigger",""
"html-button-response","248","575406","0.0-191.0-0.0","CKN_132","132","","","","","","1535","<button class=""jspsych-btn""><img src=""stimuli/purple.png"" style=""width: 200px;height: 200px;""></button>","0","purple","yellow","[""purple"",""yellow"",""high nameability""]","left-right","[""purple"",""yellow"",""high nameability""]","6","high nameability","52","left","response","1"
"html-audio-button-response","249","575622","0.0-191.0-1.0","CKN_132","132","","","","","","null","stimuli/bleep.m4a","null","purple","yellow","[""purple"",""yellow"",""high nameability""]","left-right","[""purple"",""yellow"",""high nameability""]","6","high nameability","52","left","audio_feedback","1"
"html-button-response","250","576142","0.0-192.0","CKN_132","132","","","","","","null","<button class=""jspsych-btn""><img src=""stimuli/white_square.png"" style=""width: 200px;height: 200px;""></button>","null","purple","yellow","[""purple"",""yellow"",""high nameability""]","left-right","[""purple"",""yellow"",""high nameability""]","6","high nameability","52","left","iti",""
"html-button-response","251","576903","0.0-193.0","CKN_132","132","","","","","","747","","0","mustard","lightred","[""mustard"",""lightred"",""low nameability""]","right-left","[""lightred"",""mustard""]","6","low nameability","53","right","trigger",""
"html-button-response","252","578610","0.0-194.0-0.0","CKN_132","132","","","","","","1692","<button class=""jspsych-btn""><img src=""stimuli/mustard.png"" style=""width: 200px;height: 200px;""></button>","1","mustard","lightred","[""mustard"",""lightred"",""low nameability""]","right-left","[""lightred"",""mustard""]","6","low nameability","53","right","response","1"
"html-audio-button-response","253","578823","0.0-194.0-1.0","CKN_132","132","","","","","","null","stimuli/bleep.m4a","null","mustard","lightred","[""mustard"",""lightred"",""low nameability""]","right-left","[""lightred"",""mustard""]","6","low nameability","53","right","audio_feedback","1"
"html-button-response","254","579343","0.0-195.0","CKN_132","132","","","","","","null","<button class=""jspsych-btn""><img src=""stimuli/white_square.png"" style=""width: 200px;height: 200px;""></button>","null","mustard","lightred","[""mustard"",""lightred"",""low nameability""]","right-left","[""lightred"",""mustard""]","6","low nameability","53","right","iti",""
"html-button-response","255","582070","0.0-196.0","CKN_132","132","","","","","","2707","","0","purple","blue","[""purple"",""blue"",""high nameability""]","right-left","[""blue"",""purple""]","6","high nameability","54","right","trigger",""
"html-button-response","256","583654","0.0-197.0-0.0","CKN_132","132","","","","","","1575","<button class=""jspsych-btn""><img src=""stimuli/purple.png"" style=""width: 200px;height: 200px;""></button>","1","purple","blue","[""purple"",""blue"",""high nameability""]","right-left","[""blue"",""purple""]","6","high nameability","54","right","response","1"
"html-audio-button-response","257","583861","0.0-197.0-1.0","CKN_132","132","","","","","","null","stimuli/bleep.m4a","null","purple","blue","[""purple"",""blue"",""high nameability""]","right-left","[""blue"",""purple""]","6","high nameability","54","right","audio_feedback","1"
"html-button-response","258","584376","0.0-198.0","CKN_132","132","","","","","","null","<button class=""jspsych-btn""><img src=""stimuli/white_square.png"" style=""width: 200px;height: 200px;""></button>","null","purple","blue","[""purple"",""blue"",""high nameability""]","right-left","[""blue"",""purple""]","6","high nameability","54","right","iti",""
"html-button-response","259","586365","0.0-199.0","CKN_132","132","","","","","","1969","","0","yellow","blue","[""yellow"",""blue"",""high nameability""]","right-left","[""blue"",""yellow""]","6","high nameability","55","right","trigger",""
"html-button-response","260","588317","0.0-200.0-0.0","CKN_132","132","","","","","","1941","<button class=""jspsych-btn""><img src=""stimuli/yellow.png"" style=""width: 200px;height: 200px;""></button>","1","yellow","blue","[""yellow"",""blue"",""high nameability""]","right-left","[""blue"",""yellow""]","6","high nameability","55","right","response","1"
"html-audio-button-response","261","588519","0.0-200.0-1.0","CKN_132","132","","","","","","null","stimuli/bleep.m4a","null","yellow","blue","[""yellow"",""blue"",""high nameability""]","right-left","[""blue"",""yellow""]","6","high nameability","55","right","audio_feedback","1"
"html-button-response","262","589044","0.0-201.0","CKN_132","132","","","","","","null","<button class=""jspsych-btn""><img src=""stimuli/white_square.png"" style=""width: 200px;height: 200px;""></button>","null","yellow","blue","[""yellow"",""blue"",""high nameability""]","right-left","[""blue"",""yellow""]","6","high nameability","55","right","iti",""
"html-button-response","263","590324","0.0-202.0","CKN_132","132","","","","","","1272","","0","yellow","purple","[""yellow"",""purple"",""high nameability""]","left-right","[""yellow"",""purple"",""high nameability""]","6","high nameability","56","left","trigger",""
"html-button-response","264","591458","0.0-203.0-0.0","CKN_132","132","","","","","","1125","<button class=""jspsych-btn""><img src=""stimuli/yellow.png"" style=""width: 200px;height: 200px;""></button>","1","yellow","purple","[""yellow"",""purple"",""high nameability""]","left-right","[""yellow"",""purple"",""high nameability""]","6","high nameability","56","left","response","0"
"html-audio-button-response","265","592089","0.0-203.0-1.0","CKN_132","132","","","","","","null","stimuli/boing.m4a","null","yellow","purple","[""yellow"",""purple"",""high nameability""]","left-right","[""yellow"",""purple"",""high nameability""]","6","high nameability","56","left","audio_feedback","0"
"html-button-response","266","593050","0.0-203.1-0.1","CKN_132","132","","","","","","933","<button class=""jspsych-btn""><img src=""stimuli/yellow.png"" style=""width: 200px;height: 200px;""></button>","0","yellow","purple","[""yellow"",""purple"",""high nameability""]","left-right","[""yellow"",""purple"",""high nameability""]","6","high nameability","56","left","response","1"
"html-audio-button-response","267","593253","0.0-203.1-1.1","CKN_132","132","","","","","","null","stimuli/bleep.m4a","null","yellow","purple","[""yellow"",""purple"",""high nameability""]","left-right","[""yellow"",""purple"",""high nameability""]","6","high nameability","56","left","audio_feedback","1"
"html-button-response","268","593766","0.0-204.0","CKN_132","132","","","","","","null","<button class=""jspsych-btn""><img src=""stimuli/white_square.png"" style=""width: 200px;height: 200px;""></button>","null","yellow","purple","[""yellow"",""purple"",""high nameability""]","left-right","[""yellow"",""purple"",""high nameability""]","6","high nameability","56","left","iti",""
"html-button-response","269","597514","0.0-205.0","CKN_132","132","","","","","","3740","","0","darkgreenblue","mustard","[""darkgreenblue"",""mustard"",""low nameability""]","left-right","[""darkgreenblue"",""mustard"",""low nameability""]","6","low nameability","57","left","trigger",""
"html-button-response","270","600051","0.0-206.0-0.0","CKN_132","132","","","","","","2529","<button class=""jspsych-btn""><img src=""stimuli/darkgreenblue.png"" style=""width: 200px;height: 200px;""></button>","0","darkgreenblue","mustard","[""darkgreenblue"",""mustard"",""low nameability""]","left-right","[""darkgreenblue"",""mustard"",""low nameability""]","6","low nameability","57","left","response","1"
"html-audio-button-response","271","600269","0.0-206.0-1.0","CKN_132","132","","","","","","null","stimuli/bleep.m4a","null","darkgreenblue","mustard","[""darkgreenblue"",""mustard"",""low nameability""]","left-right","[""darkgreenblue"",""mustard"",""low nameability""]","6","low nameability","57","left","audio_feedback","1"
"html-button-response","272","600796","0.0-207.0","CKN_132","132","","","","","","null","<button class=""jspsych-btn""><img src=""stimuli/white_square.png"" style=""width: 200px;height: 200px;""></button>","null","darkgreenblue","mustard","[""darkgreenblue"",""mustard"",""low nameability""]","left-right","[""darkgreenblue"",""mustard"",""low nameability""]","6","low nameability","57","left","iti",""
"html-button-response","273","601951","0.0-208.0","CKN_132","132","","","","","","1147","","0","orange","brown","[""orange"",""brown"",""high nameability""]","left-right","[""orange"",""brown"",""high nameability""]","6","high nameability","58","left","trigger",""
"html-button-response","274","604279","0.0-209.0-0.0","CKN_132","132","","","","","","2320","<button class=""jspsych-btn""><img src=""stimuli/orange.png"" style=""width: 200px;height: 200px;""></button>","1","orange","brown","[""orange"",""brown"",""high nameability""]","left-right","[""orange"",""brown"",""high nameability""]","6","high nameability","58","left","response","0"
"html-audio-button-response","275","604903","0.0-209.0-1.0","CKN_132","132","","","","","","null","stimuli/boing.m4a","null","orange","brown","[""orange"",""brown"",""high nameability""]","left-right","[""orange"",""brown"",""high nameability""]","6","high nameability","58","left","audio_feedback","0"
"html-button-response","276","605649","0.0-209.1-0.1","CKN_132","132","","","","","","720","<button class=""jspsych-btn""><img src=""stimuli/orange.png"" style=""width: 200px;height: 200px;""></button>","0","orange","brown","[""orange"",""brown"",""high nameability""]","left-right","[""orange"",""brown"",""high nameability""]","6","high nameability","58","left","response","1"
"html-audio-button-response","277","605863","0.0-209.1-1.1","CKN_132","132","","","","","","null","stimuli/bleep.m4a","null","orange","brown","[""orange"",""brown"",""high nameability""]","left-right","[""orange"",""brown"",""high nameability""]","6","high nameability","58","left","audio_feedback","1"
"html-button-response","278","606389","0.0-210.0","CKN_132","132","","","","","","null","<button class=""jspsych-btn""><img src=""stimuli/white_square.png"" style=""width: 200px;height: 200px;""></button>","null","orange","brown","[""orange"",""brown"",""high nameability""]","left-right","[""orange"",""brown"",""high nameability""]","6","high nameability","58","left","iti",""
"html-button-response","279","608337","0.0-211.0","CKN_132","132","","","","","","1936","","0","orange","blue","[""orange"",""blue"",""high nameability""]","right-left","[""blue"",""orange""]","6","high nameability","59","right","trigger",""
"html-button-response","280","610008","0.0-212.0-0.0","CKN_132","132","","","","","","1660","<button class=""jspsych-btn""><img src=""stimuli/orange.png"" style=""width: 200px;height: 200px;""></button>","0","orange","blue","[""orange"",""blue"",""high nameability""]","right-left","[""blue"",""orange""]","6","high nameability","59","right","response","0"
"html-audio-button-response","281","610642","0.0-212.0-1.0","CKN_132","132","","","","","","null","stimuli/boing.m4a","null","orange","blue","[""orange"",""blue"",""high nameability""]","right-left","[""blue"",""orange""]","6","high nameability","59","right","audio_feedback","0"
"html-button-response","282","611952","0.0-212.1-0.1","CKN_132","132","","","","","","1288","<button class=""jspsych-btn""><img src=""stimuli/orange.png"" style=""width: 200px;height: 200px;""></button>","1","orange","blue","[""orange"",""blue"",""high nameability""]","right-left","[""blue"",""orange""]","6","high nameability","59","right","response","1"
"html-audio-button-response","283","612159","0.0-212.1-1.1","CKN_132","132","","","","","","null","stimuli/bleep.m4a","null","orange","blue","[""orange"",""blue"",""high nameability""]","right-left","[""blue"",""orange""]","6","high nameability","59","right","audio_feedback","1"
"html-button-response","284","612684","0.0-213.0","CKN_132","132","","","","","","null","<button class=""jspsych-btn""><img src=""stimuli/white_square.png"" style=""width: 200px;height: 200px;""></button>","null","orange","blue","[""orange"",""blue"",""high nameability""]","right-left","[""blue"",""orange""]","6","high nameability","59","right","iti",""
"html-button-response","285","615977","0.0-214.0","CKN_132","132","","","","","","3281","","0","blue","orange","[""blue"",""orange"",""high nameability""]","left-right","[""blue"",""orange"",""high nameability""]","6","high nameability","60","left","trigger",""
"html-button-response","286","617606","0.0-215.0-0.0","CKN_132","132","","","","","","1618","<button class=""jspsych-btn""><img src=""stimuli/blue.png"" style=""width: 200px;height: 200px;""></button>","0","blue","orange","[""blue"",""orange"",""high nameability""]","left-right","[""blue"",""orange"",""high nameability""]","6","high nameability","60","left","response","1"
"html-audio-button-response","287","617812","0.0-215.0-1.0","CKN_132","132","","","","","","null","stimuli/bleep.m4a","null","blue","orange","[""blue"",""orange"",""high nameability""]","left-right","[""blue"",""orange"",""high nameability""]","6","high nameability","60","left","audio_feedback","1"
"html-button-response","288","618323","0.0-216.0","CKN_132","132","","","","","","null","<button class=""jspsych-btn""><img src=""stimuli/white_square.png"" style=""width: 200px;height: 200px;""></button>","null","blue","orange","[""blue"",""orange"",""high nameability""]","left-right","[""blue"",""orange"",""high nameability""]","6","high nameability","60","left","iti",""
