"trial_type","trial_index","time_elapsed","internal_node_id","subject_id","seed","success","timeout","failed_images","failed_audio","failed_video","rt","stimulus","response","target","foil","choices","combination_order","choices_in_order","round","condition","trial_counter","target_location","trial_kind","correct"
"pavlovia","0","17","0.0-0.0","CKN_104","104","","","","","","","","","","","","","","","","","","",""
"preload","1","1190","0.0-1.0","CKN_104","104","true","false","[]","[]","[]","","","","","","","","","","","","","",""
"fullscreen","2","4423","0.0-2.0","CKN_104","104","true","","","","","","","","","","","","","","","","","",""
"html-button-response","3","15340","0.0-3.0","CKN_104","104","","","","","","10886","","0","","","","","","","","","","",""
"html-button-response","4","17841","0.0-4.0","CKN_104","104","","","","","","2492","","0","star","square","[""square"",""star""]","left-right","[""square"",""star""]","1","practice","1","right","trigger",""
"html-button-response","5","26384","0.0-5.0-0.0","CKN_104","104","","","","","","8535","<button class=""jspsych-btn""><img src=""stimuli/star.png"" style=""width: 200px;height: 200px;""></button>","1","star","square","[""square"",""star""]","left-right","[""square"",""star""]","1","practice","1","right","response","1"
"html-audio-button-response","6","26598","0.0-5.0-1.0","CKN_104","104","","","","","","null","stimuli/bleep.m4a","null","star","square","[""square"",""star""]","left-right","[""square"",""star""]","1","practice","1","right","audio_feedback","1"
"html-button-response","7","27114","0.0-6.0","CKN_104","104","","","","","","null","<button class=""jspsych-btn""><img src=""stimuli/white_square.png"" style=""width: 200px;height: 200px;""></button>","null","star","square","[""square"",""star""]","left-right","[""square"",""star""]","1","practice","1","right","iti",""
"html-button-response","8","29983","0.0-7.0","CKN_104","104","","","","","","2857","","0","triangle","pentagram","[""triangle"",""pentagram""]","left-right","[""triangle"",""pentagram""]","1","practice","1","left","trigger",""
"html-button-response","9","33962","0.0-8.0-0.0","CKN_104","104","","","","","","3970","<button class=""jspsych-btn""><img src=""stimuli/triangle.png"" style=""width: 200px;height: 200px;""></button>","0","triangle","pentagram","[""triangle"",""pentagram""]","left-right","[""triangle"",""pentagram""]","1","practice","1","left","response","1"
"html-audio-button-response","10","34176","0.0-8.0-1.0","CKN_104","104","","","","","","null","stimuli/bleep.m4a","null","triangle","pentagram","[""triangle"",""pentagram""]","left-right","[""triangle"",""pentagram""]","1","practice","1","left","audio_feedback","1"
"html-button-response","11","34690","0.0-9.0","CKN_104","104","","","","","","null","<button class=""jspsych-btn""><img src=""stimuli/white_square.png"" style=""width: 200px;height: 200px;""></button>","null","triangle","pentagram","[""triangle"",""pentagram""]","left-right","[""triangle"",""pentagram""]","1","practice","1","left","iti",""
"html-button-response","12","39328","0.0-10.0","CKN_104","104","","","","","","4624","","0","diamond","rectangle","[""rectangle"",""diamond""]","left-right","[""rectangle"",""diamond""]","1","practice","1","right","trigger",""
"html-button-response","13","43989","0.0-11.0-0.0","CKN_104","104","","","","","","4649","<button class=""jspsych-btn""><img src=""stimuli/diamond.png"" style=""width: 200px;height: 200px;""></button>","1","diamond","rectangle","[""rectangle"",""diamond""]","left-right","[""rectangle"",""diamond""]","1","practice","1","right","response","1"
"html-audio-button-response","14","44197","0.0-11.0-1.0","CKN_104","104","","","","","","null","stimuli/bleep.m4a","null","diamond","rectangle","[""rectangle"",""diamond""]","left-right","[""rectangle"",""diamond""]","1","practice","1","right","audio_feedback","1"
"html-button-response","15","44717","0.0-12.0","CKN_104","104","","","","","","null","<button class=""jspsych-btn""><img src=""stimuli/white_square.png"" style=""width: 200px;height: 200px;""></button>","null","diamond","rectangle","[""rectangle"",""diamond""]","left-right","[""rectangle"",""diamond""]","1","practice","1","right","iti",""
"html-button-response","16","47048","0.0-13.0","CKN_104","104","","","","","","2316","","0","pentagram","star","[""pentagram"",""star""]","left-right","[""pentagram"",""star""]","1","practice","1","left","trigger",""
"html-button-response","17","50089","0.0-14.0-0.0","CKN_104","104","","","","","","3033","<button class=""jspsych-btn""><img src=""stimuli/pentagram.png"" style=""width: 200px;height: 200px;""></button>","0","pentagram","star","[""pentagram"",""star""]","left-right","[""pentagram"",""star""]","1","practice","1","left","response","1"
"html-audio-button-response","18","50298","0.0-14.0-1.0","CKN_104","104","","","","","","null","stimuli/bleep.m4a","null","pentagram","star","[""pentagram"",""star""]","left-right","[""pentagram"",""star""]","1","practice","1","left","audio_feedback","1"
"html-button-response","19","50812","0.0-15.0","CKN_104","104","","","","","","null","<button class=""jspsych-btn""><img src=""stimuli/white_square.png"" style=""width: 200px;height: 200px;""></button>","null","pentagram","star","[""pentagram"",""star""]","left-right","[""pentagram"",""star""]","1","practice","1","left","iti",""
"html-button-response","20","57300","0.0-16.0","CKN_104","104","","","","","","6478","","0","","","","","","","","","","",""
"html-button-response","21","60329","0.0-17.0","CKN_104","104","","","","","","3021","","0","darkgreenblue","mustard","[""darkgreenblue"",""mustard"",""low nameability""]","left-right","[""darkgreenblue"",""mustard"",""low nameability""]","1","low nameability","1","left","trigger",""
"html-button-response","22","63009","0.0-18.0-0.0","CKN_104","104","","","","","","2671","<button class=""jspsych-btn""><img src=""stimuli/darkgreenblue.png"" style=""width: 200px;height: 200px;""></button>","0","darkgreenblue","mustard","[""darkgreenblue"",""mustard"",""low nameability""]","left-right","[""darkgreenblue"",""mustard"",""low nameability""]","1","low nameability","1","left","response","1"
"html-audio-button-response","23","63217","0.0-18.0-1.0","CKN_104","104","","","","","","null","stimuli/bleep.m4a","null","darkgreenblue","mustard","[""darkgreenblue"",""mustard"",""low nameability""]","left-right","[""darkgreenblue"",""mustard"",""low nameability""]","1","low nameability","1","left","audio_feedback","1"
"html-button-response","24","63733","0.0-19.0","CKN_104","104","","","","","","null","<button class=""jspsych-btn""><img src=""stimuli/white_square.png"" style=""width: 200px;height: 200px;""></button>","null","darkgreenblue","mustard","[""darkgreenblue"",""mustard"",""low nameability""]","left-right","[""darkgreenblue"",""mustard"",""low nameability""]","1","low nameability","1","left","iti",""
"html-button-response","25","66671","0.0-20.0","CKN_104","104","","","","","","2925","","0","lightred","pink","[""lightred"",""pink"",""low nameability""]","right-left","[""pink"",""lightred""]","1","low nameability","2","right","trigger",""
"html-button-response","26","72915","0.0-21.0-0.0","CKN_104","104","","","","","","6234","<button class=""jspsych-btn""><img src=""stimuli/lightred.png"" style=""width: 200px;height: 200px;""></button>","1","lightred","pink","[""lightred"",""pink"",""low nameability""]","right-left","[""pink"",""lightred""]","1","low nameability","2","right","response","1"
"html-audio-button-response","27","73118","0.0-21.0-1.0","CKN_104","104","","","","","","null","stimuli/bleep.m4a","null","lightred","pink","[""lightred"",""pink"",""low nameability""]","right-left","[""pink"",""lightred""]","1","low nameability","2","right","audio_feedback","1"
"html-button-response","28","73633","0.0-22.0","CKN_104","104","","","","","","null","<button class=""jspsych-btn""><img src=""stimuli/white_square.png"" style=""width: 200px;height: 200px;""></button>","null","lightred","pink","[""lightred"",""pink"",""low nameability""]","right-left","[""pink"",""lightred""]","1","low nameability","2","right","iti",""
"html-button-response","29","75311","0.0-23.0","CKN_104","104","","","","","","1661","","0","pink","turquoise","[""pink"",""turquoise"",""low nameability""]","left-right","[""pink"",""turquoise"",""low nameability""]","1","low nameability","3","left","trigger",""
"html-button-response","30","77385","0.0-24.0-0.0","CKN_104","104","","","","","","2064","<button class=""jspsych-btn""><img src=""stimuli/pink.png"" style=""width: 200px;height: 200px;""></button>","0","pink","turquoise","[""pink"",""turquoise"",""low nameability""]","left-right","[""pink"",""turquoise"",""low nameability""]","1","low nameability","3","left","response","1"
"html-audio-button-response","31","77588","0.0-24.0-1.0","CKN_104","104","","","","","","null","stimuli/bleep.m4a","null","pink","turquoise","[""pink"",""turquoise"",""low nameability""]","left-right","[""pink"",""turquoise"",""low nameability""]","1","low nameability","3","left","audio_feedback","1"
"html-button-response","32","78107","0.0-25.0","CKN_104","104","","","","","","null","<button class=""jspsych-btn""><img src=""stimuli/white_square.png"" style=""width: 200px;height: 200px;""></button>","null","pink","turquoise","[""pink"",""turquoise"",""low nameability""]","left-right","[""pink"",""turquoise"",""low nameability""]","1","low nameability","3","left","iti",""
"html-button-response","33","82999","0.0-26.0","CKN_104","104","","","","","","4878","","0","brown","red","[""brown"",""red"",""high nameability""]","left-right","[""brown"",""red"",""high nameability""]","1","high nameability","4","left","trigger",""
"html-button-response","34","85077","0.0-27.0-0.0","CKN_104","104","","","","","","2068","<button class=""jspsych-btn""><img src=""stimuli/brown.png"" style=""width: 200px;height: 200px;""></button>","0","brown","red","[""brown"",""red"",""high nameability""]","left-right","[""brown"",""red"",""high nameability""]","1","high nameability","4","left","response","1"
"html-audio-button-response","35","85280","0.0-27.0-1.0","CKN_104","104","","","","","","null","stimuli/bleep.m4a","null","brown","red","[""brown"",""red"",""high nameability""]","left-right","[""brown"",""red"",""high nameability""]","1","high nameability","4","left","audio_feedback","1"
"html-button-response","36","85805","0.0-28.0","CKN_104","104","","","","","","null","<button class=""jspsych-btn""><img src=""stimuli/white_square.png"" style=""width: 200px;height: 200px;""></button>","null","brown","red","[""brown"",""red"",""high nameability""]","left-right","[""brown"",""red"",""high nameability""]","1","high nameability","4","left","iti",""
"html-button-response","37","89724","0.0-29.0","CKN_104","104","","","","","","3904","","0","neonyellow","lightred","[""neonyellow"",""lightred"",""low nameability""]","right-left","[""lightred"",""neonyellow""]","1","low nameability","5","right","trigger",""
"html-button-response","38","92047","0.0-30.0-0.0","CKN_104","104","","","","","","2308","<button class=""jspsych-btn""><img src=""stimuli/neonyellow.png"" style=""width: 200px;height: 200px;""></button>","1","neonyellow","lightred","[""neonyellow"",""lightred"",""low nameability""]","right-left","[""lightred"",""neonyellow""]","1","low nameability","5","right","response","1"
"html-audio-button-response","39","92258","0.0-30.0-1.0","CKN_104","104","","","","","","null","stimuli/bleep.m4a","null","neonyellow","lightred","[""neonyellow"",""lightred"",""low nameability""]","right-left","[""lightred"",""neonyellow""]","1","low nameability","5","right","audio_feedback","1"
"html-button-response","40","92771","0.0-31.0","CKN_104","104","","","","","","null","<button class=""jspsych-btn""><img src=""stimuli/white_square.png"" style=""width: 200px;height: 200px;""></button>","null","neonyellow","lightred","[""neonyellow"",""lightred"",""low nameability""]","right-left","[""lightred"",""neonyellow""]","1","low nameability","5","right","iti",""
"html-button-response","41","94491","0.0-32.0","CKN_104","104","","","","","","1710","","0","turquoise","neonyellow","[""turquoise"",""neonyellow"",""low nameability""]","left-right","[""turquoise"",""neonyellow"",""low nameability""]","1","low nameability","6","left","trigger",""
"html-button-response","42","97854","0.0-33.0-0.0","CKN_104","104","","","","","","3351","<button class=""jspsych-btn""><img src=""stimuli/turquoise.png"" style=""width: 200px;height: 200px;""></button>","0","turquoise","neonyellow","[""turquoise"",""neonyellow"",""low nameability""]","left-right","[""turquoise"",""neonyellow"",""low nameability""]","1","low nameability","6","left","response","1"
"html-audio-button-response","43","98058","0.0-33.0-1.0","CKN_104","104","","","","","","null","stimuli/bleep.m4a","null","turquoise","neonyellow","[""turquoise"",""neonyellow"",""low nameability""]","left-right","[""turquoise"",""neonyellow"",""low nameability""]","1","low nameability","6","left","audio_feedback","1"
"html-button-response","44","98573","0.0-34.0","CKN_104","104","","","","","","null","<button class=""jspsych-btn""><img src=""stimuli/white_square.png"" style=""width: 200px;height: 200px;""></button>","null","turquoise","neonyellow","[""turquoise"",""neonyellow"",""low nameability""]","left-right","[""turquoise"",""neonyellow"",""low nameability""]","1","low nameability","6","left","iti",""
"html-button-response","45","101750","0.0-35.0","CKN_104","104","","","","","","3166","","0","orange","purple","[""orange"",""purple"",""high nameability""]","right-left","[""purple"",""orange""]","1","high nameability","7","right","trigger",""
"html-button-response","46","103280","0.0-36.0-0.0","CKN_104","104","","","","","","1522","<button class=""jspsych-btn""><img src=""stimuli/orange.png"" style=""width: 200px;height: 200px;""></button>","1","orange","purple","[""orange"",""purple"",""high nameability""]","right-left","[""purple"",""orange""]","1","high nameability","7","right","response","1"
"html-audio-button-response","47","103487","0.0-36.0-1.0","CKN_104","104","","","","","","null","stimuli/bleep.m4a","null","orange","purple","[""orange"",""purple"",""high nameability""]","right-left","[""purple"",""orange""]","1","high nameability","7","right","audio_feedback","1"
"html-button-response","48","104002","0.0-37.0","CKN_104","104","","","","","","null","<button class=""jspsych-btn""><img src=""stimuli/white_square.png"" style=""width: 200px;height: 200px;""></button>","null","orange","purple","[""orange"",""purple"",""high nameability""]","right-left","[""purple"",""orange""]","1","high nameability","7","right","iti",""
"html-button-response","49","107711","0.0-38.0","CKN_104","104","","","","","","3692","","0","red","orange","[""red"",""orange"",""high nameability""]","right-left","[""orange"",""red""]","1","high nameability","8","right","trigger",""
"html-button-response","50","110155","0.0-39.0-0.0","CKN_104","104","","","","","","2434","<button class=""jspsych-btn""><img src=""stimuli/red.png"" style=""width: 200px;height: 200px;""></button>","1","red","orange","[""red"",""orange"",""high nameability""]","right-left","[""orange"",""red""]","1","high nameability","8","right","response","1"
"html-audio-button-response","51","110358","0.0-39.0-1.0","CKN_104","104","","","","","","null","stimuli/bleep.m4a","null","red","orange","[""red"",""orange"",""high nameability""]","right-left","[""orange"",""red""]","1","high nameability","8","right","audio_feedback","1"
"html-button-response","52","110877","0.0-40.0","CKN_104","104","","","","","","null","<button class=""jspsych-btn""><img src=""stimuli/white_square.png"" style=""width: 200px;height: 200px;""></button>","null","red","orange","[""red"",""orange"",""high nameability""]","right-left","[""orange"",""red""]","1","high nameability","8","right","iti",""
"html-button-response","53","114819","0.0-41.0","CKN_104","104","","","","","","3926","","0","turquoise","pink","[""turquoise"",""pink"",""low nameability""]","right-left","[""pink"",""turquoise""]","1","low nameability","9","right","trigger",""
"html-button-response","54","116397","0.0-42.0-0.0","CKN_104","104","","","","","","1570","<button class=""jspsych-btn""><img src=""stimuli/turquoise.png"" style=""width: 200px;height: 200px;""></button>","1","turquoise","pink","[""turquoise"",""pink"",""low nameability""]","right-left","[""pink"",""turquoise""]","1","low nameability","9","right","response","1"
"html-audio-button-response","55","116603","0.0-42.0-1.0","CKN_104","104","","","","","","null","stimuli/bleep.m4a","null","turquoise","pink","[""turquoise"",""pink"",""low nameability""]","right-left","[""pink"",""turquoise""]","1","low nameability","9","right","audio_feedback","1"
"html-button-response","56","117117","0.0-43.0","CKN_104","104","","","","","","null","<button class=""jspsych-btn""><img src=""stimuli/white_square.png"" style=""width: 200px;height: 200px;""></button>","null","turquoise","pink","[""turquoise"",""pink"",""low nameability""]","right-left","[""pink"",""turquoise""]","1","low nameability","9","right","iti",""
"html-button-response","57","118723","0.0-44.0","CKN_104","104","","","","","","1595","","0","yellow","blue","[""yellow"",""blue"",""high nameability""]","left-right","[""yellow"",""blue"",""high nameability""]","1","high nameability","10","left","trigger",""
"html-button-response","58","123353","0.0-45.0-0.0","CKN_104","104","","","","","","4622","<button class=""jspsych-btn""><img src=""stimuli/yellow.png"" style=""width: 200px;height: 200px;""></button>","0","yellow","blue","[""yellow"",""blue"",""high nameability""]","left-right","[""yellow"",""blue"",""high nameability""]","1","high nameability","10","left","response","1"
"html-audio-button-response","59","123553","0.0-45.0-1.0","CKN_104","104","","","","","","null","stimuli/bleep.m4a","null","yellow","blue","[""yellow"",""blue"",""high nameability""]","left-right","[""yellow"",""blue"",""high nameability""]","1","high nameability","10","left","audio_feedback","1"
"html-button-response","60","124069","0.0-46.0","CKN_104","104","","","","","","null","<button class=""jspsych-btn""><img src=""stimuli/white_square.png"" style=""width: 200px;height: 200px;""></button>","null","yellow","blue","[""yellow"",""blue"",""high nameability""]","left-right","[""yellow"",""blue"",""high nameability""]","1","high nameability","10","left","iti",""
"pavlovia","61","124144","0.0-47.0","CKN_104","104","","","","","","","","","","","","","","","","","","",""
"pavlovia","62","124153","0.0-48.0","CKN_104","104","","","","","","","","","","","","","","","","","","",""
"html-audio-button-response","63","131407","0.0-49.0","CKN_104","104","","","","","","7328","stimuli/tada.m4a","0","","","","","","","","","","",""
"html-button-response","64","136214","0.0-50.0","CKN_104","104","","","","","","4801","","0","","","","","","","","","","",""
"html-button-response","65","139218","0.0-51.0","CKN_104","104","","","","","","2997","","0","yellow","brown","[""yellow"",""brown"",""high nameability""]","right-left","[""brown"",""yellow""]","2","high nameability","11","right","trigger",""
"html-button-response","66","143575","0.0-52.0-0.0","CKN_104","104","","","","","","4348","<button class=""jspsych-btn""><img src=""stimuli/yellow.png"" style=""width: 200px;height: 200px;""></button>","1","yellow","brown","[""yellow"",""brown"",""high nameability""]","right-left","[""brown"",""yellow""]","2","high nameability","11","right","response","1"
"html-audio-button-response","67","143779","0.0-52.0-1.0","CKN_104","104","","","","","","null","stimuli/bleep.m4a","null","yellow","brown","[""yellow"",""brown"",""high nameability""]","right-left","[""brown"",""yellow""]","2","high nameability","11","right","audio_feedback","1"
"html-button-response","68","144289","0.0-53.0","CKN_104","104","","","","","","null","<button class=""jspsych-btn""><img src=""stimuli/white_square.png"" style=""width: 200px;height: 200px;""></button>","null","yellow","brown","[""yellow"",""brown"",""high nameability""]","right-left","[""brown"",""yellow""]","2","high nameability","11","right","iti",""
"html-button-response","69","145496","0.0-54.0","CKN_104","104","","","","","","1192","","0","neonyellow","pink","[""neonyellow"",""pink"",""low nameability""]","right-left","[""pink"",""neonyellow""]","2","low nameability","12","right","trigger",""
"html-button-response","70","148652","0.0-55.0-0.0","CKN_104","104","","","","","","3146","<button class=""jspsych-btn""><img src=""stimuli/neonyellow.png"" style=""width: 200px;height: 200px;""></button>","1","neonyellow","pink","[""neonyellow"",""pink"",""low nameability""]","right-left","[""pink"",""neonyellow""]","2","low nameability","12","right","response","1"
"html-audio-button-response","71","148856","0.0-55.0-1.0","CKN_104","104","","","","","","null","stimuli/bleep.m4a","null","neonyellow","pink","[""neonyellow"",""pink"",""low nameability""]","right-left","[""pink"",""neonyellow""]","2","low nameability","12","right","audio_feedback","1"
"html-button-response","72","149371","0.0-56.0","CKN_104","104","","","","","","null","<button class=""jspsych-btn""><img src=""stimuli/white_square.png"" style=""width: 200px;height: 200px;""></button>","null","neonyellow","pink","[""neonyellow"",""pink"",""low nameability""]","right-left","[""pink"",""neonyellow""]","2","low nameability","12","right","iti",""
"html-button-response","73","150978","0.0-57.0","CKN_104","104","","","","","","1595","","0","purple","yellow","[""purple"",""yellow"",""high nameability""]","right-left","[""yellow"",""purple""]","2","high nameability","13","right","trigger",""
"html-button-response","74","152178","0.0-58.0-0.0","CKN_104","104","","","","","","1191","<button class=""jspsych-btn""><img src=""stimuli/purple.png"" style=""width: 200px;height: 200px;""></button>","1","purple","yellow","[""purple"",""yellow"",""high nameability""]","right-left","[""yellow"",""purple""]","2","high nameability","13","right","response","1"
"html-audio-button-response","75","152382","0.0-58.0-1.0","CKN_104","104","","","","","","null","stimuli/bleep.m4a","null","purple","yellow","[""purple"",""yellow"",""high nameability""]","right-left","[""yellow"",""purple""]","2","high nameability","13","right","audio_feedback","1"
"html-button-response","76","152900","0.0-59.0","CKN_104","104","","","","","","null","<button class=""jspsych-btn""><img src=""stimuli/white_square.png"" style=""width: 200px;height: 200px;""></button>","null","purple","yellow","[""purple"",""yellow"",""high nameability""]","right-left","[""yellow"",""purple""]","2","high nameability","13","right","iti",""
"html-button-response","77","157299","0.0-60.0","CKN_104","104","","","","","","4387","","0","red","yellow","[""red"",""yellow"",""high nameability""]","left-right","[""red"",""yellow"",""high nameability""]","2","high nameability","14","left","trigger",""
"html-button-response","78","159016","0.0-61.0-0.0","CKN_104","104","","","","","","1708","<button class=""jspsych-btn""><img src=""stimuli/red.png"" style=""width: 200px;height: 200px;""></button>","0","red","yellow","[""red"",""yellow"",""high nameability""]","left-right","[""red"",""yellow"",""high nameability""]","2","high nameability","14","left","response","1"
"html-audio-button-response","79","159220","0.0-61.0-1.0","CKN_104","104","","","","","","null","stimuli/bleep.m4a","null","red","yellow","[""red"",""yellow"",""high nameability""]","left-right","[""red"",""yellow"",""high nameability""]","2","high nameability","14","left","audio_feedback","1"
"html-button-response","80","159731","0.0-62.0","CKN_104","104","","","","","","null","<button class=""jspsych-btn""><img src=""stimuli/white_square.png"" style=""width: 200px;height: 200px;""></button>","null","red","yellow","[""red"",""yellow"",""high nameability""]","left-right","[""red"",""yellow"",""high nameability""]","2","high nameability","14","left","iti",""
"html-button-response","81","161631","0.0-63.0","CKN_104","104","","","","","","1887","","0","lightred","turquoise","[""lightred"",""turquoise"",""low nameability""]","right-left","[""turquoise"",""lightred""]","2","low nameability","15","right","trigger",""
"html-button-response","82","163133","0.0-64.0-0.0","CKN_104","104","","","","","","1492","<button class=""jspsych-btn""><img src=""stimuli/lightred.png"" style=""width: 200px;height: 200px;""></button>","1","lightred","turquoise","[""lightred"",""turquoise"",""low nameability""]","right-left","[""turquoise"",""lightred""]","2","low nameability","15","right","response","1"
"html-audio-button-response","83","163331","0.0-64.0-1.0","CKN_104","104","","","","","","null","stimuli/bleep.m4a","null","lightred","turquoise","[""lightred"",""turquoise"",""low nameability""]","right-left","[""turquoise"",""lightred""]","2","low nameability","15","right","audio_feedback","1"
"html-button-response","84","163843","0.0-65.0","CKN_104","104","","","","","","null","<button class=""jspsych-btn""><img src=""stimuli/white_square.png"" style=""width: 200px;height: 200px;""></button>","null","lightred","turquoise","[""lightred"",""turquoise"",""low nameability""]","right-left","[""turquoise"",""lightred""]","2","low nameability","15","right","iti",""
"html-button-response","85","164798","0.0-66.0","CKN_104","104","","","","","","942","","0","mustard","neonyellow","[""mustard"",""neonyellow"",""low nameability""]","right-left","[""neonyellow"",""mustard""]","2","low nameability","16","right","trigger",""
"html-button-response","86","166211","0.0-67.0-0.0","CKN_104","104","","","","","","1406","<button class=""jspsych-btn""><img src=""stimuli/mustard.png"" style=""width: 200px;height: 200px;""></button>","1","mustard","neonyellow","[""mustard"",""neonyellow"",""low nameability""]","right-left","[""neonyellow"",""mustard""]","2","low nameability","16","right","response","1"
"html-audio-button-response","87","166416","0.0-67.0-1.0","CKN_104","104","","","","","","null","stimuli/bleep.m4a","null","mustard","neonyellow","[""mustard"",""neonyellow"",""low nameability""]","right-left","[""neonyellow"",""mustard""]","2","low nameability","16","right","audio_feedback","1"
"html-button-response","88","166928","0.0-68.0","CKN_104","104","","","","","","null","<button class=""jspsych-btn""><img src=""stimuli/white_square.png"" style=""width: 200px;height: 200px;""></button>","null","mustard","neonyellow","[""mustard"",""neonyellow"",""low nameability""]","right-left","[""neonyellow"",""mustard""]","2","low nameability","16","right","iti",""
"html-button-response","89","168086","0.0-69.0","CKN_104","104","","","","","","1147","","0","neonyellow","mustard","[""neonyellow"",""mustard"",""low nameability""]","right-left","[""mustard"",""neonyellow""]","2","low nameability","17","right","trigger",""
"html-button-response","90","170510","0.0-70.0-0.0","CKN_104","104","","","","","","2417","<button class=""jspsych-btn""><img src=""stimuli/neonyellow.png"" style=""width: 200px;height: 200px;""></button>","1","neonyellow","mustard","[""neonyellow"",""mustard"",""low nameability""]","right-left","[""mustard"",""neonyellow""]","2","low nameability","17","right","response","1"
"html-audio-button-response","91","170717","0.0-70.0-1.0","CKN_104","104","","","","","","null","stimuli/bleep.m4a","null","neonyellow","mustard","[""neonyellow"",""mustard"",""low nameability""]","right-left","[""mustard"",""neonyellow""]","2","low nameability","17","right","audio_feedback","1"
"html-button-response","92","171230","0.0-71.0","CKN_104","104","","","","","","null","<button class=""jspsych-btn""><img src=""stimuli/white_square.png"" style=""width: 200px;height: 200px;""></button>","null","neonyellow","mustard","[""neonyellow"",""mustard"",""low nameability""]","right-left","[""mustard"",""neonyellow""]","2","low nameability","17","right","iti",""
"html-button-response","93","172163","0.0-72.0","CKN_104","104","","","","","","921","","0","mustard","darkgreenblue","[""mustard"",""darkgreenblue"",""low nameability""]","right-left","[""darkgreenblue"",""mustard""]","2","low nameability","18","right","trigger",""
"html-button-response","94","173155","0.0-73.0-0.0","CKN_104","104","","","","","","986","<button class=""jspsych-btn""><img src=""stimuli/mustard.png"" style=""width: 200px;height: 200px;""></button>","1","mustard","darkgreenblue","[""mustard"",""darkgreenblue"",""low nameability""]","right-left","[""darkgreenblue"",""mustard""]","2","low nameability","18","right","response","1"
"html-audio-button-response","95","173362","0.0-73.0-1.0","CKN_104","104","","","","","","null","stimuli/bleep.m4a","null","mustard","darkgreenblue","[""mustard"",""darkgreenblue"",""low nameability""]","right-left","[""darkgreenblue"",""mustard""]","2","low nameability","18","right","audio_feedback","1"
"html-button-response","96","173877","0.0-74.0","CKN_104","104","","","","","","null","<button class=""jspsych-btn""><img src=""stimuli/white_square.png"" style=""width: 200px;height: 200px;""></button>","null","mustard","darkgreenblue","[""mustard"",""darkgreenblue"",""low nameability""]","right-left","[""darkgreenblue"",""mustard""]","2","low nameability","18","right","iti",""
"html-button-response","97","174583","0.0-75.0","CKN_104","104","","","","","","699","","0","brown","purple","[""brown"",""purple"",""high nameability""]","right-left","[""purple"",""brown""]","2","high nameability","19","right","trigger",""
"html-button-response","98","175495","0.0-76.0-0.0","CKN_104","104","","","","","","903","<button class=""jspsych-btn""><img src=""stimuli/brown.png"" style=""width: 200px;height: 200px;""></button>","1","brown","purple","[""brown"",""purple"",""high nameability""]","right-left","[""purple"",""brown""]","2","high nameability","19","right","response","1"
"html-audio-button-response","99","175703","0.0-76.0-1.0","CKN_104","104","","","","","","null","stimuli/bleep.m4a","null","brown","purple","[""brown"",""purple"",""high nameability""]","right-left","[""purple"",""brown""]","2","high nameability","19","right","audio_feedback","1"
"html-button-response","100","176214","0.0-77.0","CKN_104","104","","","","","","null","<button class=""jspsych-btn""><img src=""stimuli/white_square.png"" style=""width: 200px;height: 200px;""></button>","null","brown","purple","[""brown"",""purple"",""high nameability""]","right-left","[""purple"",""brown""]","2","high nameability","19","right","iti",""
"html-button-response","101","177185","0.0-78.0","CKN_104","104","","","","","","961","","0","darkgreenblue","neonyellow","[""darkgreenblue"",""neonyellow"",""low nameability""]","left-right","[""darkgreenblue"",""neonyellow"",""low nameability""]","2","low nameability","20","left","trigger",""
"html-button-response","102","178990","0.0-79.0-0.0","CKN_104","104","","","","","","1798","<button class=""jspsych-btn""><img src=""stimuli/darkgreenblue.png"" style=""width: 200px;height: 200px;""></button>","0","darkgreenblue","neonyellow","[""darkgreenblue"",""neonyellow"",""low nameability""]","left-right","[""darkgreenblue"",""neonyellow"",""low nameability""]","2","low nameability","20","left","response","1"
"html-audio-button-response","103","179193","0.0-79.0-1.0","CKN_104","104","","","","","","null","stimuli/bleep.m4a","null","darkgreenblue","neonyellow","[""darkgreenblue"",""neonyellow"",""low nameability""]","left-right","[""darkgreenblue"",""neonyellow"",""low nameability""]","2","low nameability","20","left","audio_feedback","1"
"html-button-response","104","179710","0.0-80.0","CKN_104","104","","","","","","null","<button class=""jspsych-btn""><img src=""stimuli/white_square.png"" style=""width: 200px;height: 200px;""></button>","null","darkgreenblue","neonyellow","[""darkgreenblue"",""neonyellow"",""low nameability""]","left-right","[""darkgreenblue"",""neonyellow"",""low nameability""]","2","low nameability","20","left","iti",""
"pavlovia","105","179758","0.0-81.0","CKN_104","104","","","","","","","","","","","","","","","","","","",""
"pavlovia","106","179764","0.0-82.0","CKN_104","104","","","","","","","","","","","","","","","","","","",""
"html-audio-button-response","107","186510","0.0-83.0","CKN_104","104","","","","","","6792","stimuli/tada.m4a","0","","","","","","","","","","",""
"html-button-response","108","187423","0.0-84.0","CKN_104","104","","","","","","907","","0","","","","","","","","","","",""
"html-button-response","109","191270","0.0-85.0","CKN_104","104","","","","","","3841","","0","mustard","turquoise","[""mustard"",""turquoise"",""low nameability""]","left-right","[""mustard"",""turquoise"",""low nameability""]","3","low nameability","21","left","trigger",""
"html-button-response","110","192474","0.0-86.0-0.0","CKN_104","104","","","","","","1195","<button class=""jspsych-btn""><img src=""stimuli/mustard.png"" style=""width: 200px;height: 200px;""></button>","0","mustard","turquoise","[""mustard"",""turquoise"",""low nameability""]","left-right","[""mustard"",""turquoise"",""low nameability""]","3","low nameability","21","left","response","1"
"html-audio-button-response","111","192675","0.0-86.0-1.0","CKN_104","104","","","","","","null","stimuli/bleep.m4a","null","mustard","turquoise","[""mustard"",""turquoise"",""low nameability""]","left-right","[""mustard"",""turquoise"",""low nameability""]","3","low nameability","21","left","audio_feedback","1"
"html-button-response","112","193198","0.0-87.0","CKN_104","104","","","","","","null","<button class=""jspsych-btn""><img src=""stimuli/white_square.png"" style=""width: 200px;height: 200px;""></button>","null","mustard","turquoise","[""mustard"",""turquoise"",""low nameability""]","left-right","[""mustard"",""turquoise"",""low nameability""]","3","low nameability","21","left","iti",""
"html-button-response","113","194333","0.0-88.0","CKN_104","104","","","","","","1117","","0","purple","brown","[""purple"",""brown"",""high nameability""]","left-right","[""purple"",""brown"",""high nameability""]","3","high nameability","22","left","trigger",""
"html-button-response","114","195538","0.0-89.0-0.0","CKN_104","104","","","","","","1197","<button class=""jspsych-btn""><img src=""stimuli/purple.png"" style=""width: 200px;height: 200px;""></button>","0","purple","brown","[""purple"",""brown"",""high nameability""]","left-right","[""purple"",""brown"",""high nameability""]","3","high nameability","22","left","response","1"
"html-audio-button-response","115","195744","0.0-89.0-1.0","CKN_104","104","","","","","","null","stimuli/bleep.m4a","null","purple","brown","[""purple"",""brown"",""high nameability""]","left-right","[""purple"",""brown"",""high nameability""]","3","high nameability","22","left","audio_feedback","1"
"html-button-response","116","196256","0.0-90.0","CKN_104","104","","","","","","null","<button class=""jspsych-btn""><img src=""stimuli/white_square.png"" style=""width: 200px;height: 200px;""></button>","null","purple","brown","[""purple"",""brown"",""high nameability""]","left-right","[""purple"",""brown"",""high nameability""]","3","high nameability","22","left","iti",""
"html-button-response","117","196982","0.0-91.0","CKN_104","104","","","","","","716","","0","purple","red","[""purple"",""red"",""high nameability""]","left-right","[""purple"",""red"",""high nameability""]","3","high nameability","23","left","trigger",""
"html-button-response","118","197979","0.0-92.0-0.0","CKN_104","104","","","","","","989","<button class=""jspsych-btn""><img src=""stimuli/purple.png"" style=""width: 200px;height: 200px;""></button>","0","purple","red","[""purple"",""red"",""high nameability""]","left-right","[""purple"",""red"",""high nameability""]","3","high nameability","23","left","response","1"
"html-audio-button-response","119","198180","0.0-92.0-1.0","CKN_104","104","","","","","","null","stimuli/bleep.m4a","null","purple","red","[""purple"",""red"",""high nameability""]","left-right","[""purple"",""red"",""high nameability""]","3","high nameability","23","left","audio_feedback","1"
"html-button-response","120","198692","0.0-93.0","CKN_104","104","","","","","","null","<button class=""jspsych-btn""><img src=""stimuli/white_square.png"" style=""width: 200px;height: 200px;""></button>","null","purple","red","[""purple"",""red"",""high nameability""]","left-right","[""purple"",""red"",""high nameability""]","3","high nameability","23","left","iti",""
"html-button-response","121","199477","0.0-94.0","CKN_104","104","","","","","","773","","0","neonyellow","darkgreenblue","[""neonyellow"",""darkgreenblue"",""low nameability""]","right-left","[""darkgreenblue"",""neonyellow""]","3","low nameability","24","right","trigger",""
"html-button-response","122","201856","0.0-95.0-0.0","CKN_104","104","","","","","","2369","<button class=""jspsych-btn""><img src=""stimuli/neonyellow.png"" style=""width: 200px;height: 200px;""></button>","1","neonyellow","darkgreenblue","[""neonyellow"",""darkgreenblue"",""low nameability""]","right-left","[""darkgreenblue"",""neonyellow""]","3","low nameability","24","right","response","1"
"html-audio-button-response","123","202068","0.0-95.0-1.0","CKN_104","104","","","","","","null","stimuli/bleep.m4a","null","neonyellow","darkgreenblue","[""neonyellow"",""darkgreenblue"",""low nameability""]","right-left","[""darkgreenblue"",""neonyellow""]","3","low nameability","24","right","audio_feedback","1"
"html-button-response","124","202589","0.0-96.0","CKN_104","104","","","","","","null","<button class=""jspsych-btn""><img src=""stimuli/white_square.png"" style=""width: 200px;height: 200px;""></button>","null","neonyellow","darkgreenblue","[""neonyellow"",""darkgreenblue"",""low nameability""]","right-left","[""darkgreenblue"",""neonyellow""]","3","low nameability","24","right","iti",""
"html-button-response","125","203147","0.0-97.0","CKN_104","104","","","","","","537","","0","brown","orange","[""brown"",""orange"",""high nameability""]","left-right","[""brown"",""orange"",""high nameability""]","3","high nameability","25","left","trigger",""
"html-button-response","126","204560","0.0-98.0-0.0","CKN_104","104","","","","","","1402","<button class=""jspsych-btn""><img src=""stimuli/brown.png"" style=""width: 200px;height: 200px;""></button>","0","brown","orange","[""brown"",""orange"",""high nameability""]","left-right","[""brown"",""orange"",""high nameability""]","3","high nameability","25","left","response","1"
"html-audio-button-response","127","204771","0.0-98.0-1.0","CKN_104","104","","","","","","null","stimuli/bleep.m4a","null","brown","orange","[""brown"",""orange"",""high nameability""]","left-right","[""brown"",""orange"",""high nameability""]","3","high nameability","25","left","audio_feedback","1"
"html-button-response","128","205295","0.0-99.0","CKN_104","104","","","","","","null","<button class=""jspsych-btn""><img src=""stimuli/white_square.png"" style=""width: 200px;height: 200px;""></button>","null","brown","orange","[""brown"",""orange"",""high nameability""]","left-right","[""brown"",""orange"",""high nameability""]","3","high nameability","25","left","iti",""
"html-button-response","129","206081","0.0-100.0","CKN_104","104","","","","","","767","","0","yellow","orange","[""yellow"",""orange"",""high nameability""]","right-left","[""orange"",""yellow""]","3","high nameability","26","right","trigger",""
"html-button-response","130","207670","0.0-101.0-0.0","CKN_104","104","","","","","","1578","<button class=""jspsych-btn""><img src=""stimuli/yellow.png"" style=""width: 200px;height: 200px;""></button>","1","yellow","orange","[""yellow"",""orange"",""high nameability""]","right-left","[""orange"",""yellow""]","3","high nameability","26","right","response","1"
"html-audio-button-response","131","207878","0.0-101.0-1.0","CKN_104","104","","","","","","null","stimuli/bleep.m4a","null","yellow","orange","[""yellow"",""orange"",""high nameability""]","right-left","[""orange"",""yellow""]","3","high nameability","26","right","audio_feedback","1"
"html-button-response","132","208405","0.0-102.0","CKN_104","104","","","","","","null","<button class=""jspsych-btn""><img src=""stimuli/white_square.png"" style=""width: 200px;height: 200px;""></button>","null","yellow","orange","[""yellow"",""orange"",""high nameability""]","right-left","[""orange"",""yellow""]","3","high nameability","26","right","iti",""
"html-button-response","133","209435","0.0-103.0","CKN_104","104","","","","","","1008","","0","blue","orange","[""blue"",""orange"",""high nameability""]","left-right","[""blue"",""orange"",""high nameability""]","3","high nameability","27","left","trigger",""
"html-button-response","134","210669","0.0-104.0-0.0","CKN_104","104","","","","","","1221","<button class=""jspsych-btn""><img src=""stimuli/blue.png"" style=""width: 200px;height: 200px;""></button>","1","blue","orange","[""blue"",""orange"",""high nameability""]","left-right","[""blue"",""orange"",""high nameability""]","3","high nameability","27","left","response","0"
"html-audio-button-response","135","211296","0.0-104.0-1.0","CKN_104","104","","","","","","null","stimuli/boing.m4a","null","blue","orange","[""blue"",""orange"",""high nameability""]","left-right","[""blue"",""orange"",""high nameability""]","3","high nameability","27","left","audio_feedback","0"
"html-button-response","136","212092","0.0-104.1-0.1","CKN_104","104","","","","","","773","<button class=""jspsych-btn""><img src=""stimuli/blue.png"" style=""width: 200px;height: 200px;""></button>","0","blue","orange","[""blue"",""orange"",""high nameability""]","left-right","[""blue"",""orange"",""high nameability""]","3","high nameability","27","left","response","1"
"html-audio-button-response","137","212301","0.0-104.1-1.1","CKN_104","104","","","","","","null","stimuli/bleep.m4a","null","blue","orange","[""blue"",""orange"",""high nameability""]","left-right","[""blue"",""orange"",""high nameability""]","3","high nameability","27","left","audio_feedback","1"
"html-button-response","138","212820","0.0-105.0","CKN_104","104","","","","","","null","<button class=""jspsych-btn""><img src=""stimuli/white_square.png"" style=""width: 200px;height: 200px;""></button>","null","blue","orange","[""blue"",""orange"",""high nameability""]","left-right","[""blue"",""orange"",""high nameability""]","3","high nameability","27","left","iti",""
"html-button-response","139","214047","0.0-106.0","CKN_104","104","","","","","","1215","","0","lightred","darkgreenblue","[""lightred"",""darkgreenblue"",""low nameability""]","left-right","[""lightred"",""darkgreenblue"",""low nameability""]","3","low nameability","28","left","trigger",""
"html-button-response","140","215351","0.0-107.0-0.0","CKN_104","104","","","","","","1298","<button class=""jspsych-btn""><img src=""stimuli/lightred.png"" style=""width: 200px;height: 200px;""></button>","0","lightred","darkgreenblue","[""lightred"",""darkgreenblue"",""low nameability""]","left-right","[""lightred"",""darkgreenblue"",""low nameability""]","3","low nameability","28","left","response","1"
"html-audio-button-response","141","215553","0.0-107.0-1.0","CKN_104","104","","","","","","null","stimuli/bleep.m4a","null","lightred","darkgreenblue","[""lightred"",""darkgreenblue"",""low nameability""]","left-right","[""lightred"",""darkgreenblue"",""low nameability""]","3","low nameability","28","left","audio_feedback","1"
"html-button-response","142","216073","0.0-108.0","CKN_104","104","","","","","","null","<button class=""jspsych-btn""><img src=""stimuli/white_square.png"" style=""width: 200px;height: 200px;""></button>","null","lightred","darkgreenblue","[""lightred"",""darkgreenblue"",""low nameability""]","left-right","[""lightred"",""darkgreenblue"",""low nameability""]","3","low nameability","28","left","iti",""
"html-button-response","143","217469","0.0-109.0","CKN_104","104","","","","","","1382","","0","orange","brown","[""orange"",""brown"",""high nameability""]","right-left","[""brown"",""orange""]","3","high nameability","29","right","trigger",""
"html-button-response","144","219096","0.0-110.0-0.0","CKN_104","104","","","","","","1618","<button class=""jspsych-btn""><img src=""stimuli/orange.png"" style=""width: 200px;height: 200px;""></button>","1","orange","brown","[""orange"",""brown"",""high nameability""]","right-left","[""brown"",""orange""]","3","high nameability","29","right","response","1"
"html-audio-button-response","145","219306","0.0-110.0-1.0","CKN_104","104","","","","","","null","stimuli/bleep.m4a","null","orange","brown","[""orange"",""brown"",""high nameability""]","right-left","[""brown"",""orange""]","3","high nameability","29","right","audio_feedback","1"
"html-button-response","146","219818","0.0-111.0","CKN_104","104","","","","","","null","<button class=""jspsych-btn""><img src=""stimuli/white_square.png"" style=""width: 200px;height: 200px;""></button>","null","orange","brown","[""orange"",""brown"",""high nameability""]","right-left","[""brown"",""orange""]","3","high nameability","29","right","iti",""
"html-button-response","147","222136","0.0-112.0","CKN_104","104","","","","","","2306","","0","orange","red","[""orange"",""red"",""high nameability""]","right-left","[""red"",""orange""]","3","high nameability","30","right","trigger",""
"html-button-response","148","223284","0.0-113.0-0.0","CKN_104","104","","","","","","1141","<button class=""jspsych-btn""><img src=""stimuli/orange.png"" style=""width: 200px;height: 200px;""></button>","1","orange","red","[""orange"",""red"",""high nameability""]","right-left","[""red"",""orange""]","3","high nameability","30","right","response","1"
"html-audio-button-response","149","223485","0.0-113.0-1.0","CKN_104","104","","","","","","null","stimuli/bleep.m4a","null","orange","red","[""orange"",""red"",""high nameability""]","right-left","[""red"",""orange""]","3","high nameability","30","right","audio_feedback","1"
"html-button-response","150","223999","0.0-114.0","CKN_104","104","","","","","","null","<button class=""jspsych-btn""><img src=""stimuli/white_square.png"" style=""width: 200px;height: 200px;""></button>","null","orange","red","[""orange"",""red"",""high nameability""]","right-left","[""red"",""orange""]","3","high nameability","30","right","iti",""
"pavlovia","151","224092","0.0-115.0","CKN_104","104","","","","","","","","","","","","","","","","","","",""
"pavlovia","152","224104","0.0-116.0","CKN_104","104","","","","","","","","","","","","","","","","","","",""
"html-audio-button-response","153","230599","0.0-117.0","CKN_104","104","","","","","","6600","stimuli/tada.m4a","0","","","","","","","","","","",""
"html-button-response","154","231563","0.0-118.0","CKN_104","104","","","","","","957","","0","","","","","","","","","","",""
"html-button-response","155","233550","0.0-119.0","CKN_104","104","","","","","","1977","","0","purple","orange","[""purple"",""orange"",""high nameability""]","left-right","[""purple"",""orange"",""high nameability""]","4","high nameability","31","left","trigger",""
"html-button-response","156","234989","0.0-120.0-0.0","CKN_104","104","","","","","","1432","<button class=""jspsych-btn""><img src=""stimuli/purple.png"" style=""width: 200px;height: 200px;""></button>","0","purple","orange","[""purple"",""orange"",""high nameability""]","left-right","[""purple"",""orange"",""high nameability""]","4","high nameability","31","left","response","1"
"html-audio-button-response","157","235191","0.0-120.0-1.0","CKN_104","104","","","","","","null","stimuli/bleep.m4a","null","purple","orange","[""purple"",""orange"",""high nameability""]","left-right","[""purple"",""orange"",""high nameability""]","4","high nameability","31","left","audio_feedback","1"
"html-button-response","158","235707","0.0-121.0","CKN_104","104","","","","","","null","<button class=""jspsych-btn""><img src=""stimuli/white_square.png"" style=""width: 200px;height: 200px;""></button>","null","purple","orange","[""purple"",""orange"",""high nameability""]","left-right","[""purple"",""orange"",""high nameability""]","4","high nameability","31","left","iti",""
"html-button-response","159","238821","0.0-122.0","CKN_104","104","","","","","","3098","","0","brown","blue","[""brown"",""blue"",""high nameability""]","left-right","[""brown"",""blue"",""high nameability""]","4","high nameability","32","left","trigger",""
"html-button-response","160","240021","0.0-123.0-0.0","CKN_104","104","","","","","","1192","<button class=""jspsych-btn""><img src=""stimuli/brown.png"" style=""width: 200px;height: 200px;""></button>","0","brown","blue","[""brown"",""blue"",""high nameability""]","left-right","[""brown"",""blue"",""high nameability""]","4","high nameability","32","left","response","1"
"html-audio-button-response","161","240224","0.0-123.0-1.0","CKN_104","104","","","","","","null","stimuli/bleep.m4a","null","brown","blue","[""brown"",""blue"",""high nameability""]","left-right","[""brown"",""blue"",""high nameability""]","4","high nameability","32","left","audio_feedback","1"
"html-button-response","162","240740","0.0-124.0","CKN_104","104","","","","","","null","<button class=""jspsych-btn""><img src=""stimuli/white_square.png"" style=""width: 200px;height: 200px;""></button>","null","brown","blue","[""brown"",""blue"",""high nameability""]","left-right","[""brown"",""blue"",""high nameability""]","4","high nameability","32","left","iti",""
"html-button-response","163","245109","0.0-125.0","CKN_104","104","","","","","","4359","","0","pink","neonyellow","[""pink"",""neonyellow"",""low nameability""]","right-left","[""neonyellow"",""pink""]","4","low nameability","33","right","trigger",""
"html-button-response","164","247171","0.0-126.0-0.0","CKN_104","104","","","","","","2052","<button class=""jspsych-btn""><img src=""stimuli/pink.png"" style=""width: 200px;height: 200px;""></button>","1","pink","neonyellow","[""pink"",""neonyellow"",""low nameability""]","right-left","[""neonyellow"",""pink""]","4","low nameability","33","right","response","1"
"html-audio-button-response","165","247376","0.0-126.0-1.0","CKN_104","104","","","","","","null","stimuli/bleep.m4a","null","pink","neonyellow","[""pink"",""neonyellow"",""low nameability""]","right-left","[""neonyellow"",""pink""]","4","low nameability","33","right","audio_feedback","1"
"html-button-response","166","247890","0.0-127.0","CKN_104","104","","","","","","null","<button class=""jspsych-btn""><img src=""stimuli/white_square.png"" style=""width: 200px;height: 200px;""></button>","null","pink","neonyellow","[""pink"",""neonyellow"",""low nameability""]","right-left","[""neonyellow"",""pink""]","4","low nameability","33","right","iti",""
"html-button-response","167","248964","0.0-128.0","CKN_104","104","","","","","","1062","","0","lightred","neonyellow","[""lightred"",""neonyellow"",""low nameability""]","left-right","[""lightred"",""neonyellow"",""low nameability""]","4","low nameability","34","left","trigger",""
"html-button-response","168","251447","0.0-129.0-0.0","CKN_104","104","","","","","","2476","<button class=""jspsych-btn""><img src=""stimuli/lightred.png"" style=""width: 200px;height: 200px;""></button>","0","lightred","neonyellow","[""lightred"",""neonyellow"",""low nameability""]","left-right","[""lightred"",""neonyellow"",""low nameability""]","4","low nameability","34","left","response","1"
"html-audio-button-response","169","251653","0.0-129.0-1.0","CKN_104","104","","","","","","null","stimuli/bleep.m4a","null","lightred","neonyellow","[""lightred"",""neonyellow"",""low nameability""]","left-right","[""lightred"",""neonyellow"",""low nameability""]","4","low nameability","34","left","audio_feedback","1"
"html-button-response","170","252168","0.0-130.0","CKN_104","104","","","","","","null","<button class=""jspsych-btn""><img src=""stimuli/white_square.png"" style=""width: 200px;height: 200px;""></button>","null","lightred","neonyellow","[""lightred"",""neonyellow"",""low nameability""]","left-right","[""lightred"",""neonyellow"",""low nameability""]","4","low nameability","34","left","iti",""
"html-button-response","171","253837","0.0-131.0","CKN_104","104","","","","","","1657","","0","pink","lightred","[""pink"",""lightred"",""low nameability""]","right-left","[""lightred"",""pink""]","4","low nameability","35","right","trigger",""
"html-button-response","172","256908","0.0-132.0-0.0","CKN_104","104","","","","","","3063","<button class=""jspsych-btn""><img src=""stimuli/pink.png"" style=""width: 200px;height: 200px;""></button>","1","pink","lightred","[""pink"",""lightred"",""low nameability""]","right-left","[""lightred"",""pink""]","4","low nameability","35","right","response","1"
"html-audio-button-response","173","257119","0.0-132.0-1.0","CKN_104","104","","","","","","null","stimuli/bleep.m4a","null","pink","lightred","[""pink"",""lightred"",""low nameability""]","right-left","[""lightred"",""pink""]","4","low nameability","35","right","audio_feedback","1"
"html-button-response","174","257634","0.0-133.0","CKN_104","104","","","","","","null","<button class=""jspsych-btn""><img src=""stimuli/white_square.png"" style=""width: 200px;height: 200px;""></button>","null","pink","lightred","[""pink"",""lightred"",""low nameability""]","right-left","[""lightred"",""pink""]","4","low nameability","35","right","iti",""
"html-button-response","175","258367","0.0-134.0","CKN_104","104","","","","","","721","","0","purple","blue","[""purple"",""blue"",""high nameability""]","left-right","[""purple"",""blue"",""high nameability""]","4","high nameability","36","left","trigger",""
"html-button-response","176","261758","0.0-135.0-0.0","CKN_104","104","","","","","","3377","<button class=""jspsych-btn""><img src=""stimuli/purple.png"" style=""width: 200px;height: 200px;""></button>","0","purple","blue","[""purple"",""blue"",""high nameability""]","left-right","[""purple"",""blue"",""high nameability""]","4","high nameability","36","left","response","1"
"html-audio-button-response","177","261972","0.0-135.0-1.0","CKN_104","104","","","","","","null","stimuli/bleep.m4a","null","purple","blue","[""purple"",""blue"",""high nameability""]","left-right","[""purple"",""blue"",""high nameability""]","4","high nameability","36","left","audio_feedback","1"
"html-button-response","178","262493","0.0-136.0","CKN_104","104","","","","","","null","<button class=""jspsych-btn""><img src=""stimuli/white_square.png"" style=""width: 200px;height: 200px;""></button>","null","purple","blue","[""purple"",""blue"",""high nameability""]","left-right","[""purple"",""blue"",""high nameability""]","4","high nameability","36","left","iti",""
"html-button-response","179","263145","0.0-137.0","CKN_104","104","","","","","","626","","0","red","purple","[""red"",""purple"",""high nameability""]","right-left","[""purple"",""red""]","4","high nameability","37","right","trigger",""
"html-button-response","180","264787","0.0-138.0-0.0","CKN_104","104","","","","","","1634","<button class=""jspsych-btn""><img src=""stimuli/red.png"" style=""width: 200px;height: 200px;""></button>","1","red","purple","[""red"",""purple"",""high nameability""]","right-left","[""purple"",""red""]","4","high nameability","37","right","response","1"
"html-audio-button-response","181","265000","0.0-138.0-1.0","CKN_104","104","","","","","","null","stimuli/bleep.m4a","null","red","purple","[""red"",""purple"",""high nameability""]","right-left","[""purple"",""red""]","4","high nameability","37","right","audio_feedback","1"
"html-button-response","182","265518","0.0-139.0","CKN_104","104","","","","","","null","<button class=""jspsych-btn""><img src=""stimuli/white_square.png"" style=""width: 200px;height: 200px;""></button>","null","red","purple","[""red"",""purple"",""high nameability""]","right-left","[""purple"",""red""]","4","high nameability","37","right","iti",""
"html-button-response","183","267202","0.0-140.0","CKN_104","104","","","","","","1662","","0","orange","blue","[""orange"",""blue"",""high nameability""]","right-left","[""blue"",""orange""]","4","high nameability","38","right","trigger",""
"html-button-response","184","269083","0.0-141.0-0.0","CKN_104","104","","","","","","1865","<button class=""jspsych-btn""><img src=""stimuli/orange.png"" style=""width: 200px;height: 200px;""></button>","1","orange","blue","[""orange"",""blue"",""high nameability""]","right-left","[""blue"",""orange""]","4","high nameability","38","right","response","1"
"html-audio-button-response","185","269298","0.0-141.0-1.0","CKN_104","104","","","","","","null","stimuli/bleep.m4a","null","orange","blue","[""orange"",""blue"",""high nameability""]","right-left","[""blue"",""orange""]","4","high nameability","38","right","audio_feedback","1"
"html-button-response","186","269819","0.0-142.0","CKN_104","104","","","","","","null","<button class=""jspsych-btn""><img src=""stimuli/white_square.png"" style=""width: 200px;height: 200px;""></button>","null","orange","blue","[""orange"",""blue"",""high nameability""]","right-left","[""blue"",""orange""]","4","high nameability","38","right","iti",""
"html-button-response","187","270896","0.0-143.0","CKN_104","104","","","","","","1060","","0","turquoise","lightred","[""turquoise"",""lightred"",""low nameability""]","right-left","[""lightred"",""turquoise""]","4","low nameability","39","right","trigger",""
"html-button-response","188","273865","0.0-144.0-0.0","CKN_104","104","","","","","","2959","<button class=""jspsych-btn""><img src=""stimuli/turquoise.png"" style=""width: 200px;height: 200px;""></button>","1","turquoise","lightred","[""turquoise"",""lightred"",""low nameability""]","right-left","[""lightred"",""turquoise""]","4","low nameability","39","right","response","1"
"html-audio-button-response","189","274067","0.0-144.0-1.0","CKN_104","104","","","","","","null","stimuli/bleep.m4a","null","turquoise","lightred","[""turquoise"",""lightred"",""low nameability""]","right-left","[""lightred"",""turquoise""]","4","low nameability","39","right","audio_feedback","1"
"html-button-response","190","274587","0.0-145.0","CKN_104","104","","","","","","null","<button class=""jspsych-btn""><img src=""stimuli/white_square.png"" style=""width: 200px;height: 200px;""></button>","null","turquoise","lightred","[""turquoise"",""lightred"",""low nameability""]","right-left","[""lightred"",""turquoise""]","4","low nameability","39","right","iti",""
"html-button-response","191","276059","0.0-146.0","CKN_104","104","","","","","","1459","","0","red","brown","[""red"",""brown"",""high nameability""]","left-right","[""red"",""brown"",""high nameability""]","4","high nameability","40","left","trigger",""
"html-button-response","192","278993","0.0-147.0-0.0","CKN_104","104","","","","","","2928","<button class=""jspsych-btn""><img src=""stimuli/red.png"" style=""width: 200px;height: 200px;""></button>","0","red","brown","[""red"",""brown"",""high nameability""]","left-right","[""red"",""brown"",""high nameability""]","4","high nameability","40","left","response","1"
"html-audio-button-response","193","279204","0.0-147.0-1.0","CKN_104","104","","","","","","null","stimuli/bleep.m4a","null","red","brown","[""red"",""brown"",""high nameability""]","left-right","[""red"",""brown"",""high nameability""]","4","high nameability","40","left","audio_feedback","1"
"html-button-response","194","279726","0.0-148.0","CKN_104","104","","","","","","null","<button class=""jspsych-btn""><img src=""stimuli/white_square.png"" style=""width: 200px;height: 200px;""></button>","null","red","brown","[""red"",""brown"",""high nameability""]","left-right","[""red"",""brown"",""high nameability""]","4","high nameability","40","left","iti",""
"pavlovia","195","279820","0.0-149.0","CKN_104","104","","","","","","","","","","","","","","","","","","",""
"pavlovia","196","279828","0.0-150.0","CKN_104","104","","","","","","","","","","","","","","","","","","",""
"html-audio-button-response","197","285442","0.0-151.0","CKN_104","104","","","","","","5712","stimuli/tada.m4a","0","","","","","","","","","","",""
"html-button-response","198","286194","0.0-152.0","CKN_104","104","","","","","","745","","0","","","","","","","","","","",""
"html-button-response","199","288011","0.0-153.0","CKN_104","104","","","","","","1811","","0","blue","purple","[""blue"",""purple"",""high nameability""]","left-right","[""blue"",""purple"",""high nameability""]","5","high nameability","41","left","trigger",""
"html-button-response","200","289599","0.0-154.0-0.0","CKN_104","104","","","","","","1580","<button class=""jspsych-btn""><img src=""stimuli/blue.png"" style=""width: 200px;height: 200px;""></button>","0","blue","purple","[""blue"",""purple"",""high nameability""]","left-right","[""blue"",""purple"",""high nameability""]","5","high nameability","41","left","response","1"
"html-audio-button-response","201","289804","0.0-154.0-1.0","CKN_104","104","","","","","","null","stimuli/bleep.m4a","null","blue","purple","[""blue"",""purple"",""high nameability""]","left-right","[""blue"",""purple"",""high nameability""]","5","high nameability","41","left","audio_feedback","1"
"html-button-response","202","290318","0.0-155.0","CKN_104","104","","","","","","null","<button class=""jspsych-btn""><img src=""stimuli/white_square.png"" style=""width: 200px;height: 200px;""></button>","null","blue","purple","[""blue"",""purple"",""high nameability""]","left-right","[""blue"",""purple"",""high nameability""]","5","high nameability","41","left","iti",""
"html-button-response","203","291272","0.0-156.0","CKN_104","104","","","","","","941","","0","mustard","lightred","[""mustard"",""lightred"",""low nameability""]","left-right","[""mustard"",""lightred"",""low nameability""]","5","low nameability","42","left","trigger",""
"html-button-response","204","293412","0.0-157.0-0.0","CKN_104","104","","","","","","2132","<button class=""jspsych-btn""><img src=""stimuli/mustard.png"" style=""width: 200px;height: 200px;""></button>","0","mustard","lightred","[""mustard"",""lightred"",""low nameability""]","left-right","[""mustard"",""lightred"",""low nameability""]","5","low nameability","42","left","response","1"
"html-audio-button-response","205","293617","0.0-157.0-1.0","CKN_104","104","","","","","","null","stimuli/bleep.m4a","null","mustard","lightred","[""mustard"",""lightred"",""low nameability""]","left-right","[""mustard"",""lightred"",""low nameability""]","5","low nameability","42","left","audio_feedback","1"
"html-button-response","206","294136","0.0-158.0","CKN_104","104","","","","","","null","<button class=""jspsych-btn""><img src=""stimuli/white_square.png"" style=""width: 200px;height: 200px;""></button>","null","mustard","lightred","[""mustard"",""lightred"",""low nameability""]","left-right","[""mustard"",""lightred"",""low nameability""]","5","low nameability","42","left","iti",""
"html-button-response","207","295387","0.0-159.0","CKN_104","104","","","","","","1244","","0","brown","yellow","[""brown"",""yellow"",""high nameability""]","left-right","[""brown"",""yellow"",""high nameability""]","5","high nameability","43","left","trigger",""
"html-button-response","208","296935","0.0-160.0-0.0","CKN_104","104","","","","","","1538","<button class=""jspsych-btn""><img src=""stimuli/brown.png"" style=""width: 200px;height: 200px;""></button>","0","brown","yellow","[""brown"",""yellow"",""high nameability""]","left-right","[""brown"",""yellow"",""high nameability""]","5","high nameability","43","left","response","1"
"html-audio-button-response","209","297140","0.0-160.0-1.0","CKN_104","104","","","","","","null","stimuli/bleep.m4a","null","brown","yellow","[""brown"",""yellow"",""high nameability""]","left-right","[""brown"",""yellow"",""high nameability""]","5","high nameability","43","left","audio_feedback","1"
"html-button-response","210","297658","0.0-161.0","CKN_104","104","","","","","","null","<button class=""jspsych-btn""><img src=""stimuli/white_square.png"" style=""width: 200px;height: 200px;""></button>","null","brown","yellow","[""brown"",""yellow"",""high nameability""]","left-right","[""brown"",""yellow"",""high nameability""]","5","high nameability","43","left","iti",""
"html-button-response","211","299874","0.0-162.0","CKN_104","104","","","","","","2204","","0","neonyellow","turquoise","[""neonyellow"",""turquoise"",""low nameability""]","right-left","[""turquoise"",""neonyellow""]","5","low nameability","44","right","trigger",""
"html-button-response","212","301436","0.0-163.0-0.0","CKN_104","104","","","","","","1555","<button class=""jspsych-btn""><img src=""stimuli/neonyellow.png"" style=""width: 200px;height: 200px;""></button>","1","neonyellow","turquoise","[""neonyellow"",""turquoise"",""low nameability""]","right-left","[""turquoise"",""neonyellow""]","5","low nameability","44","right","response","1"
"html-audio-button-response","213","301644","0.0-163.0-1.0","CKN_104","104","","","","","","null","stimuli/bleep.m4a","null","neonyellow","turquoise","[""neonyellow"",""turquoise"",""low nameability""]","right-left","[""turquoise"",""neonyellow""]","5","low nameability","44","right","audio_feedback","1"
"html-button-response","214","302159","0.0-164.0","CKN_104","104","","","","","","null","<button class=""jspsych-btn""><img src=""stimuli/white_square.png"" style=""width: 200px;height: 200px;""></button>","null","neonyellow","turquoise","[""neonyellow"",""turquoise"",""low nameability""]","right-left","[""turquoise"",""neonyellow""]","5","low nameability","44","right","iti",""
"html-button-response","215","303047","0.0-165.0","CKN_104","104","","","","","","876","","0","blue","yellow","[""blue"",""yellow"",""high nameability""]","left-right","[""blue"",""yellow"",""high nameability""]","5","high nameability","45","left","trigger",""
"html-button-response","216","304629","0.0-166.0-0.0","CKN_104","104","","","","","","1575","<button class=""jspsych-btn""><img src=""stimuli/blue.png"" style=""width: 200px;height: 200px;""></button>","0","blue","yellow","[""blue"",""yellow"",""high nameability""]","left-right","[""blue"",""yellow"",""high nameability""]","5","high nameability","45","left","response","1"
"html-audio-button-response","217","304839","0.0-166.0-1.0","CKN_104","104","","","","","","null","stimuli/bleep.m4a","null","blue","yellow","[""blue"",""yellow"",""high nameability""]","left-right","[""blue"",""yellow"",""high nameability""]","5","high nameability","45","left","audio_feedback","1"
"html-button-response","218","305358","0.0-167.0","CKN_104","104","","","","","","null","<button class=""jspsych-btn""><img src=""stimuli/white_square.png"" style=""width: 200px;height: 200px;""></button>","null","blue","yellow","[""blue"",""yellow"",""high nameability""]","left-right","[""blue"",""yellow"",""high nameability""]","5","high nameability","45","left","iti",""
"html-button-response","219","306669","0.0-168.0","CKN_104","104","","","","","","1297","","0","yellow","red","[""yellow"",""red"",""high nameability""]","right-left","[""red"",""yellow""]","5","high nameability","46","right","trigger",""
"html-button-response","220","308117","0.0-169.0-0.0","CKN_104","104","","","","","","1440","<button class=""jspsych-btn""><img src=""stimuli/yellow.png"" style=""width: 200px;height: 200px;""></button>","1","yellow","red","[""yellow"",""red"",""high nameability""]","right-left","[""red"",""yellow""]","5","high nameability","46","right","response","1"
"html-audio-button-response","221","308318","0.0-169.0-1.0","CKN_104","104","","","","","","null","stimuli/bleep.m4a","null","yellow","red","[""yellow"",""red"",""high nameability""]","right-left","[""red"",""yellow""]","5","high nameability","46","right","audio_feedback","1"
"html-button-response","222","308833","0.0-170.0","CKN_104","104","","","","","","null","<button class=""jspsych-btn""><img src=""stimuli/white_square.png"" style=""width: 200px;height: 200px;""></button>","null","yellow","red","[""yellow"",""red"",""high nameability""]","right-left","[""red"",""yellow""]","5","high nameability","46","right","iti",""
"html-button-response","223","309711","0.0-171.0","CKN_104","104","","","","","","869","","0","lightred","mustard","[""lightred"",""mustard"",""low nameability""]","left-right","[""lightred"",""mustard"",""low nameability""]","5","low nameability","47","left","trigger",""
"html-button-response","224","312062","0.0-172.0-0.0","CKN_104","104","","","","","","2342","<button class=""jspsych-btn""><img src=""stimuli/lightred.png"" style=""width: 200px;height: 200px;""></button>","0","lightred","mustard","[""lightred"",""mustard"",""low nameability""]","left-right","[""lightred"",""mustard"",""low nameability""]","5","low nameability","47","left","response","1"
"html-audio-button-response","225","312262","0.0-172.0-1.0","CKN_104","104","","","","","","null","stimuli/bleep.m4a","null","lightred","mustard","[""lightred"",""mustard"",""low nameability""]","left-right","[""lightred"",""mustard"",""low nameability""]","5","low nameability","47","left","audio_feedback","1"
"html-button-response","226","312784","0.0-173.0","CKN_104","104","","","","","","null","<button class=""jspsych-btn""><img src=""stimuli/white_square.png"" style=""width: 200px;height: 200px;""></button>","null","lightred","mustard","[""lightred"",""mustard"",""low nameability""]","left-right","[""lightred"",""mustard"",""low nameability""]","5","low nameability","47","left","iti",""
"html-button-response","227","313571","0.0-174.0","CKN_104","104","","","","","","765","","0","blue","brown","[""blue"",""brown"",""high nameability""]","left-right","[""blue"",""brown"",""high nameability""]","5","high nameability","48","left","trigger",""
"html-button-response","228","314933","0.0-175.0-0.0","CKN_104","104","","","","","","1354","<button class=""jspsych-btn""><img src=""stimuli/blue.png"" style=""width: 200px;height: 200px;""></button>","0","blue","brown","[""blue"",""brown"",""high nameability""]","left-right","[""blue"",""brown"",""high nameability""]","5","high nameability","48","left","response","1"
"html-audio-button-response","229","315137","0.0-175.0-1.0","CKN_104","104","","","","","","null","stimuli/bleep.m4a","null","blue","brown","[""blue"",""brown"",""high nameability""]","left-right","[""blue"",""brown"",""high nameability""]","5","high nameability","48","left","audio_feedback","1"
"html-button-response","230","315651","0.0-176.0","CKN_104","104","","","","","","null","<button class=""jspsych-btn""><img src=""stimuli/white_square.png"" style=""width: 200px;height: 200px;""></button>","null","blue","brown","[""blue"",""brown"",""high nameability""]","left-right","[""blue"",""brown"",""high nameability""]","5","high nameability","48","left","iti",""
"html-button-response","231","316434","0.0-177.0","CKN_104","104","","","","","","769","","0","blue","red","[""blue"",""red"",""high nameability""]","right-left","[""red"",""blue""]","5","high nameability","49","right","trigger",""
"html-button-response","232","317630","0.0-178.0-0.0","CKN_104","104","","","","","","1187","<button class=""jspsych-btn""><img src=""stimuli/blue.png"" style=""width: 200px;height: 200px;""></button>","1","blue","red","[""blue"",""red"",""high nameability""]","right-left","[""red"",""blue""]","5","high nameability","49","right","response","1"
"html-audio-button-response","233","317838","0.0-178.0-1.0","CKN_104","104","","","","","","null","stimuli/bleep.m4a","null","blue","red","[""blue"",""red"",""high nameability""]","right-left","[""red"",""blue""]","5","high nameability","49","right","audio_feedback","1"
"html-button-response","234","318350","0.0-179.0","CKN_104","104","","","","","","null","<button class=""jspsych-btn""><img src=""stimuli/white_square.png"" style=""width: 200px;height: 200px;""></button>","null","blue","red","[""blue"",""red"",""high nameability""]","right-left","[""red"",""blue""]","5","high nameability","49","right","iti",""
"html-button-response","235","320443","0.0-180.0","CKN_104","104","","","","","","2080","","0","pink","darkgreenblue","[""pink"",""darkgreenblue"",""low nameability""]","right-left","[""darkgreenblue"",""pink""]","5","low nameability","50","right","trigger",""
"html-button-response","236","321953","0.0-181.0-0.0","CKN_104","104","","","","","","1503","<button class=""jspsych-btn""><img src=""stimuli/pink.png"" style=""width: 200px;height: 200px;""></button>","1","pink","darkgreenblue","[""pink"",""darkgreenblue"",""low nameability""]","right-left","[""darkgreenblue"",""pink""]","5","low nameability","50","right","response","1"
"html-audio-button-response","237","322157","0.0-181.0-1.0","CKN_104","104","","","","","","null","stimuli/bleep.m4a","null","pink","darkgreenblue","[""pink"",""darkgreenblue"",""low nameability""]","right-left","[""darkgreenblue"",""pink""]","5","low nameability","50","right","audio_feedback","1"
"html-button-response","238","322669","0.0-182.0","CKN_104","104","","","","","","null","<button class=""jspsych-btn""><img src=""stimuli/white_square.png"" style=""width: 200px;height: 200px;""></button>","null","pink","darkgreenblue","[""pink"",""darkgreenblue"",""low nameability""]","right-left","[""darkgreenblue"",""pink""]","5","low nameability","50","right","iti",""
"pavlovia","239","322732","0.0-183.0","CKN_104","104","","","","","","","","","","","","","","","","","","",""
"pavlovia","240","322739","0.0-184.0","CKN_104","104","","","","","","","","","","","","","","","","","","",""
"html-audio-button-response","241","328046","0.0-185.0","CKN_104","104","","","","","","5363","stimuli/tada.m4a","0","","","","","","","","","","",""
"html-button-response","242","328710","0.0-186.0","CKN_104","104","","","","","","656","","0","","","","","","","","","","",""
"html-button-response","243","330709","0.0-187.0","CKN_104","104","","","","","","1981","","0","darkgreenblue","lightred","[""darkgreenblue"",""lightred"",""low nameability""]","left-right","[""darkgreenblue"",""lightred"",""low nameability""]","6","low nameability","51","left","trigger",""
"html-button-response","244","332134","0.0-188.0-0.0","CKN_104","104","","","","","","1408","<button class=""jspsych-btn""><img src=""stimuli/darkgreenblue.png"" style=""width: 200px;height: 200px;""></button>","0","darkgreenblue","lightred","[""darkgreenblue"",""lightred"",""low nameability""]","left-right","[""darkgreenblue"",""lightred"",""low nameability""]","6","low nameability","51","left","response","1"
"html-audio-button-response","245","332350","0.0-188.0-1.0","CKN_104","104","","","","","","null","stimuli/bleep.m4a","null","darkgreenblue","lightred","[""darkgreenblue"",""lightred"",""low nameability""]","left-right","[""darkgreenblue"",""lightred"",""low nameability""]","6","low nameability","51","left","audio_feedback","1"
"html-button-response","246","332877","0.0-189.0","CKN_104","104","","","","","","null","<button class=""jspsych-btn""><img src=""stimuli/white_square.png"" style=""width: 200px;height: 200px;""></button>","null","darkgreenblue","lightred","[""darkgreenblue"",""lightred"",""low nameability""]","left-right","[""darkgreenblue"",""lightred"",""low nameability""]","6","low nameability","51","left","iti",""
"html-button-response","247","334920","0.0-190.0","CKN_104","104","","","","","","2029","","0","red","blue","[""red"",""blue"",""high nameability""]","right-left","[""blue"",""red""]","6","high nameability","52","right","trigger",""
"html-button-response","248","336051","0.0-191.0-0.0","CKN_104","104","","","","","","1123","<button class=""jspsych-btn""><img src=""stimuli/red.png"" style=""width: 200px;height: 200px;""></button>","1","red","blue","[""red"",""blue"",""high nameability""]","right-left","[""blue"",""red""]","6","high nameability","52","right","response","1"
"html-audio-button-response","249","336259","0.0-191.0-1.0","CKN_104","104","","","","","","null","stimuli/bleep.m4a","null","red","blue","[""red"",""blue"",""high nameability""]","right-left","[""blue"",""red""]","6","high nameability","52","right","audio_feedback","1"
"html-button-response","250","336772","0.0-192.0","CKN_104","104","","","","","","null","<button class=""jspsych-btn""><img src=""stimuli/white_square.png"" style=""width: 200px;height: 200px;""></button>","null","red","blue","[""red"",""blue"",""high nameability""]","right-left","[""blue"",""red""]","6","high nameability","52","right","iti",""
"html-button-response","251","337178","0.0-193.0","CKN_104","104","","","","","","391","","0","darkgreenblue","pink","[""darkgreenblue"",""pink"",""low nameability""]","left-right","[""darkgreenblue"",""pink"",""low nameability""]","6","low nameability","53","left","trigger",""
"html-button-response","252","338474","0.0-194.0-0.0","CKN_104","104","","","","","","1282","<button class=""jspsych-btn""><img src=""stimuli/darkgreenblue.png"" style=""width: 200px;height: 200px;""></button>","0","darkgreenblue","pink","[""darkgreenblue"",""pink"",""low nameability""]","left-right","[""darkgreenblue"",""pink"",""low nameability""]","6","low nameability","53","left","response","1"
"html-audio-button-response","253","338681","0.0-194.0-1.0","CKN_104","104","","","","","","null","stimuli/bleep.m4a","null","darkgreenblue","pink","[""darkgreenblue"",""pink"",""low nameability""]","left-right","[""darkgreenblue"",""pink"",""low nameability""]","6","low nameability","53","left","audio_feedback","1"
"html-button-response","254","339199","0.0-195.0","CKN_104","104","","","","","","null","<button class=""jspsych-btn""><img src=""stimuli/white_square.png"" style=""width: 200px;height: 200px;""></button>","null","darkgreenblue","pink","[""darkgreenblue"",""pink"",""low nameability""]","left-right","[""darkgreenblue"",""pink"",""low nameability""]","6","low nameability","53","left","iti",""
"html-button-response","255","339990","0.0-196.0","CKN_104","104","","","","","","779","","0","turquoise","darkgreenblue","[""turquoise"",""darkgreenblue"",""low nameability""]","right-left","[""darkgreenblue"",""turquoise""]","6","low nameability","54","right","trigger",""
"html-button-response","256","341063","0.0-197.0-0.0","CKN_104","104","","","","","","1063","<button class=""jspsych-btn""><img src=""stimuli/turquoise.png"" style=""width: 200px;height: 200px;""></button>","0","turquoise","darkgreenblue","[""turquoise"",""darkgreenblue"",""low nameability""]","right-left","[""darkgreenblue"",""turquoise""]","6","low nameability","54","right","response","0"
"html-audio-button-response","257","341697","0.0-197.0-1.0","CKN_104","104","","","","","","null","stimuli/boing.m4a","null","turquoise","darkgreenblue","[""turquoise"",""darkgreenblue"",""low nameability""]","right-left","[""darkgreenblue"",""turquoise""]","6","low nameability","54","right","audio_feedback","0"
"html-button-response","258","342715","0.0-197.1-0.1","CKN_104","104","","","","","","993","<button class=""jspsych-btn""><img src=""stimuli/turquoise.png"" style=""width: 200px;height: 200px;""></button>","1","turquoise","darkgreenblue","[""turquoise"",""darkgreenblue"",""low nameability""]","right-left","[""darkgreenblue"",""turquoise""]","6","low nameability","54","right","response","1"
"html-audio-button-response","259","342918","0.0-197.1-1.1","CKN_104","104","","","","","","null","stimuli/bleep.m4a","null","turquoise","darkgreenblue","[""turquoise"",""darkgreenblue"",""low nameability""]","right-left","[""darkgreenblue"",""turquoise""]","6","low nameability","54","right","audio_feedback","1"
"html-button-response","260","343434","0.0-198.0","CKN_104","104","","","","","","null","<button class=""jspsych-btn""><img src=""stimuli/white_square.png"" style=""width: 200px;height: 200px;""></button>","null","turquoise","darkgreenblue","[""turquoise"",""darkgreenblue"",""low nameability""]","right-left","[""darkgreenblue"",""turquoise""]","6","low nameability","54","right","iti",""
"html-button-response","261","344507","0.0-199.0","CKN_104","104","","","","","","1062","","0","yellow","purple","[""yellow"",""purple"",""high nameability""]","left-right","[""yellow"",""purple"",""high nameability""]","6","high nameability","55","left","trigger",""
"html-button-response","262","347235","0.0-200.0-0.0","CKN_104","104","","","","","","2719","<button class=""jspsych-btn""><img src=""stimuli/yellow.png"" style=""width: 200px;height: 200px;""></button>","0","yellow","purple","[""yellow"",""purple"",""high nameability""]","left-right","[""yellow"",""purple"",""high nameability""]","6","high nameability","55","left","response","1"
"html-audio-button-response","263","347443","0.0-200.0-1.0","CKN_104","104","","","","","","null","stimuli/bleep.m4a","null","yellow","purple","[""yellow"",""purple"",""high nameability""]","left-right","[""yellow"",""purple"",""high nameability""]","6","high nameability","55","left","audio_feedback","1"
"html-button-response","264","347961","0.0-201.0","CKN_104","104","","","","","","null","<button class=""jspsych-btn""><img src=""stimuli/white_square.png"" style=""width: 200px;height: 200px;""></button>","null","yellow","purple","[""yellow"",""purple"",""high nameability""]","left-right","[""yellow"",""purple"",""high nameability""]","6","high nameability","55","left","iti",""
"html-button-response","265","349510","0.0-202.0","CKN_104","104","","","","","","1538","","0","turquoise","mustard","[""turquoise"",""mustard"",""low nameability""]","right-left","[""mustard"",""turquoise""]","6","low nameability","56","right","trigger",""
"html-button-response","266","350733","0.0-203.0-0.0","CKN_104","104","","","","","","1214","<button class=""jspsych-btn""><img src=""stimuli/turquoise.png"" style=""width: 200px;height: 200px;""></button>","1","turquoise","mustard","[""turquoise"",""mustard"",""low nameability""]","right-left","[""mustard"",""turquoise""]","6","low nameability","56","right","response","1"
"html-audio-button-response","267","350940","0.0-203.0-1.0","CKN_104","104","","","","","","null","stimuli/bleep.m4a","null","turquoise","mustard","[""turquoise"",""mustard"",""low nameability""]","right-left","[""mustard"",""turquoise""]","6","low nameability","56","right","audio_feedback","1"
"html-button-response","268","351460","0.0-204.0","CKN_104","104","","","","","","null","<button class=""jspsych-btn""><img src=""stimuli/white_square.png"" style=""width: 200px;height: 200px;""></button>","null","turquoise","mustard","[""turquoise"",""mustard"",""low nameability""]","right-left","[""mustard"",""turquoise""]","6","low nameability","56","right","iti",""
"html-button-response","269","352606","0.0-205.0","CKN_104","104","","","","","","1134","","0","orange","yellow","[""orange"",""yellow"",""high nameability""]","left-right","[""orange"",""yellow"",""high nameability""]","6","high nameability","57","left","trigger",""
"html-button-response","270","353755","0.0-206.0-0.0","CKN_104","104","","","","","","1142","<button class=""jspsych-btn""><img src=""stimuli/orange.png"" style=""width: 200px;height: 200px;""></button>","0","orange","yellow","[""orange"",""yellow"",""high nameability""]","left-right","[""orange"",""yellow"",""high nameability""]","6","high nameability","57","left","response","1"
"html-audio-button-response","271","353958","0.0-206.0-1.0","CKN_104","104","","","","","","null","stimuli/bleep.m4a","null","orange","yellow","[""orange"",""yellow"",""high nameability""]","left-right","[""orange"",""yellow"",""high nameability""]","6","high nameability","57","left","audio_feedback","1"
"html-button-response","272","354476","0.0-207.0","CKN_104","104","","","","","","null","<button class=""jspsych-btn""><img src=""stimuli/white_square.png"" style=""width: 200px;height: 200px;""></button>","null","orange","yellow","[""orange"",""yellow"",""high nameability""]","left-right","[""orange"",""yellow"",""high nameability""]","6","high nameability","57","left","iti",""
"html-button-response","273","355342","0.0-208.0","CKN_104","104","","","","","","855","","0","darkgreenblue","turquoise","[""darkgreenblue"",""turquoise"",""low nameability""]","left-right","[""darkgreenblue"",""turquoise"",""low nameability""]","6","low nameability","58","left","trigger",""
"html-button-response","274","356157","0.0-209.0-0.0","CKN_104","104","","","","","","805","<button class=""jspsych-btn""><img src=""stimuli/darkgreenblue.png"" style=""width: 200px;height: 200px;""></button>","0","darkgreenblue","turquoise","[""darkgreenblue"",""turquoise"",""low nameability""]","left-right","[""darkgreenblue"",""turquoise"",""low nameability""]","6","low nameability","58","left","response","1"
"html-audio-button-response","275","356364","0.0-209.0-1.0","CKN_104","104","","","","","","null","stimuli/bleep.m4a","null","darkgreenblue","turquoise","[""darkgreenblue"",""turquoise"",""low nameability""]","left-right","[""darkgreenblue"",""turquoise"",""low nameability""]","6","low nameability","58","left","audio_feedback","1"
"html-button-response","276","356881","0.0-210.0","CKN_104","104","","","","","","null","<button class=""jspsych-btn""><img src=""stimuli/white_square.png"" style=""width: 200px;height: 200px;""></button>","null","darkgreenblue","turquoise","[""darkgreenblue"",""turquoise"",""low nameability""]","left-right","[""darkgreenblue"",""turquoise"",""low nameability""]","6","low nameability","58","left","iti",""
"html-button-response","277","357987","0.0-211.0","CKN_104","104","","","","","","1093","","0","mustard","pink","[""mustard"",""pink"",""low nameability""]","right-left","[""pink"",""mustard""]","6","low nameability","59","right","trigger",""
"html-button-response","278","359222","0.0-212.0-0.0","CKN_104","104","","","","","","1228","<button class=""jspsych-btn""><img src=""stimuli/mustard.png"" style=""width: 200px;height: 200px;""></button>","1","mustard","pink","[""mustard"",""pink"",""low nameability""]","right-left","[""pink"",""mustard""]","6","low nameability","59","right","response","1"
"html-audio-button-response","279","359429","0.0-212.0-1.0","CKN_104","104","","","","","","null","stimuli/bleep.m4a","null","mustard","pink","[""mustard"",""pink"",""low nameability""]","right-left","[""pink"",""mustard""]","6","low nameability","59","right","audio_feedback","1"
"html-button-response","280","359942","0.0-213.0","CKN_104","104","","","","","","null","<button class=""jspsych-btn""><img src=""stimuli/white_square.png"" style=""width: 200px;height: 200px;""></button>","null","mustard","pink","[""mustard"",""pink"",""low nameability""]","right-left","[""pink"",""mustard""]","6","low nameability","59","right","iti",""
"html-button-response","281","360944","0.0-214.0","CKN_104","104","","","","","","981","","0","pink","mustard","[""pink"",""mustard"",""low nameability""]","left-right","[""pink"",""mustard"",""low nameability""]","6","low nameability","60","left","trigger",""
"html-button-response","282","362652","0.0-215.0-0.0","CKN_104","104","","","","","","1700","<button class=""jspsych-btn""><img src=""stimuli/pink.png"" style=""width: 200px;height: 200px;""></button>","0","pink","mustard","[""pink"",""mustard"",""low nameability""]","left-right","[""pink"",""mustard"",""low nameability""]","6","low nameability","60","left","response","1"
"html-audio-button-response","283","362858","0.0-215.0-1.0","CKN_104","104","","","","","","null","stimuli/bleep.m4a","null","pink","mustard","[""pink"",""mustard"",""low nameability""]","left-right","[""pink"",""mustard"",""low nameability""]","6","low nameability","60","left","audio_feedback","1"
"html-button-response","284","363375","0.0-216.0","CKN_104","104","","","","","","null","<button class=""jspsych-btn""><img src=""stimuli/white_square.png"" style=""width: 200px;height: 200px;""></button>","null","pink","mustard","[""pink"",""mustard"",""low nameability""]","left-right","[""pink"",""mustard"",""low nameability""]","6","low nameability","60","left","iti",""
