"trial_type","trial_index","time_elapsed","internal_node_id","subject_id","seed","success","timeout","failed_images","failed_audio","failed_video","rt","stimulus","response","target","foil","choices","combination_order","choices_in_order","round","condition","trial_counter","target_location","trial_kind","correct"
"pavlovia","0","20","0.0-0.0","CKN_124","124","","","","","","","","","","","","","","","","","","",""
"preload","1","1078","0.0-1.0","CKN_124","124","true","false","[]","[]","[]","","","","","","","","","","","","","",""
"fullscreen","2","3860","0.0-2.0","CKN_124","124","true","","","","","","","","","","","","","","","","","",""
"html-button-response","3","14627","0.0-3.0","CKN_124","124","","","","","","10751","","0","","","","","","","","","","",""
"html-button-response","4","19764","0.0-4.0","CKN_124","124","","","","","","5123","","0","star","square","[""square"",""star""]","left-right","[""square"",""star""]","1","practice","1","right","trigger",""
"html-button-response","5","23052","0.0-5.0-0.0","CKN_124","124","","","","","","3278","<button class=""jspsych-btn""><img src=""stimuli/star.png"" style=""width: 200px;height: 200px;""></button>","1","star","square","[""square"",""star""]","left-right","[""square"",""star""]","1","practice","1","right","response","1"
"html-audio-button-response","6","23267","0.0-5.0-1.0","CKN_124","124","","","","","","null","stimuli/bleep.m4a","null","star","square","[""square"",""star""]","left-right","[""square"",""star""]","1","practice","1","right","audio_feedback","1"
"html-button-response","7","23791","0.0-6.0","CKN_124","124","","","","","","null","<button class=""jspsych-btn""><img src=""stimuli/white_square.png"" style=""width: 200px;height: 200px;""></button>","null","star","square","[""square"",""star""]","left-right","[""square"",""star""]","1","practice","1","right","iti",""
"html-button-response","8","26112","0.0-7.0","CKN_124","124","","","","","","2312","","0","triangle","pentagram","[""triangle"",""pentagram""]","left-right","[""triangle"",""pentagram""]","1","practice","1","left","trigger",""
"html-button-response","9","28571","0.0-8.0-0.0","CKN_124","124","","","","","","2448","<button class=""jspsych-btn""><img src=""stimuli/triangle.png"" style=""width: 200px;height: 200px;""></button>","0","triangle","pentagram","[""triangle"",""pentagram""]","left-right","[""triangle"",""pentagram""]","1","practice","1","left","response","1"
"html-audio-button-response","10","28800","0.0-8.0-1.0","CKN_124","124","","","","","","null","stimuli/bleep.m4a","null","triangle","pentagram","[""triangle"",""pentagram""]","left-right","[""triangle"",""pentagram""]","1","practice","1","left","audio_feedback","1"
"html-button-response","11","29325","0.0-9.0","CKN_124","124","","","","","","null","<button class=""jspsych-btn""><img src=""stimuli/white_square.png"" style=""width: 200px;height: 200px;""></button>","null","triangle","pentagram","[""triangle"",""pentagram""]","left-right","[""triangle"",""pentagram""]","1","practice","1","left","iti",""
"html-button-response","12","33454","0.0-10.0","CKN_124","124","","","","","","4117","","0","diamond","rectangle","[""rectangle"",""diamond""]","left-right","[""rectangle"",""diamond""]","1","practice","1","right","trigger",""
"html-button-response","13","38258","0.0-11.0-0.0","CKN_124","124","","","","","","4795","<button class=""jspsych-btn""><img src=""stimuli/diamond.png"" style=""width: 200px;height: 200px;""></button>","1","diamond","rectangle","[""rectangle"",""diamond""]","left-right","[""rectangle"",""diamond""]","1","practice","1","right","response","1"
"html-audio-button-response","14","38463","0.0-11.0-1.0","CKN_124","124","","","","","","null","stimuli/bleep.m4a","null","diamond","rectangle","[""rectangle"",""diamond""]","left-right","[""rectangle"",""diamond""]","1","practice","1","right","audio_feedback","1"
"html-button-response","15","38981","0.0-12.0","CKN_124","124","","","","","","null","<button class=""jspsych-btn""><img src=""stimuli/white_square.png"" style=""width: 200px;height: 200px;""></button>","null","diamond","rectangle","[""rectangle"",""diamond""]","left-right","[""rectangle"",""diamond""]","1","practice","1","right","iti",""
"html-button-response","16","41074","0.0-13.0","CKN_124","124","","","","","","2074","","0","pentagram","star","[""pentagram"",""star""]","left-right","[""pentagram"",""star""]","1","practice","1","left","trigger",""
"html-button-response","17","45034","0.0-14.0-0.0","CKN_124","124","","","","","","3945","<button class=""jspsych-btn""><img src=""stimuli/pentagram.png"" style=""width: 200px;height: 200px;""></button>","0","pentagram","star","[""pentagram"",""star""]","left-right","[""pentagram"",""star""]","1","practice","1","left","response","1"
"html-audio-button-response","18","45260","0.0-14.0-1.0","CKN_124","124","","","","","","null","stimuli/bleep.m4a","null","pentagram","star","[""pentagram"",""star""]","left-right","[""pentagram"",""star""]","1","practice","1","left","audio_feedback","1"
"html-button-response","19","45772","0.0-15.0","CKN_124","124","","","","","","null","<button class=""jspsych-btn""><img src=""stimuli/white_square.png"" style=""width: 200px;height: 200px;""></button>","null","pentagram","star","[""pentagram"",""star""]","left-right","[""pentagram"",""star""]","1","practice","1","left","iti",""
"html-button-response","20","50890","0.0-16.0","CKN_124","124","","","","","","5102","","0","","","","","","","","","","",""
"html-button-response","21","52855","0.0-17.0","CKN_124","124","","","","","","1957","","0","blue","orange","[""blue"",""orange"",""high nameability""]","left-right","[""blue"",""orange"",""high nameability""]","1","high nameability","1","left","trigger",""
"html-button-response","22","54769","0.0-18.0-0.0","CKN_124","124","","","","","","1898","<button class=""jspsych-btn""><img src=""stimuli/blue.png"" style=""width: 200px;height: 200px;""></button>","0","blue","orange","[""blue"",""orange"",""high nameability""]","left-right","[""blue"",""orange"",""high nameability""]","1","high nameability","1","left","response","1"
"html-audio-button-response","23","54975","0.0-18.0-1.0","CKN_124","124","","","","","","null","stimuli/bleep.m4a","null","blue","orange","[""blue"",""orange"",""high nameability""]","left-right","[""blue"",""orange"",""high nameability""]","1","high nameability","1","left","audio_feedback","1"
"html-button-response","24","55504","0.0-19.0","CKN_124","124","","","","","","null","<button class=""jspsych-btn""><img src=""stimuli/white_square.png"" style=""width: 200px;height: 200px;""></button>","null","blue","orange","[""blue"",""orange"",""high nameability""]","left-right","[""blue"",""orange"",""high nameability""]","1","high nameability","1","left","iti",""
"html-button-response","25","57211","0.0-20.0","CKN_124","124","","","","","","1685","","0","brown","yellow","[""brown"",""yellow"",""high nameability""]","right-left","[""yellow"",""brown""]","1","high nameability","2","right","trigger",""
"html-button-response","26","66824","0.0-21.0-0.0","CKN_124","124","","","","","","9606","<button class=""jspsych-btn""><img src=""stimuli/brown.png"" style=""width: 200px;height: 200px;""></button>","1","brown","yellow","[""brown"",""yellow"",""high nameability""]","right-left","[""yellow"",""brown""]","1","high nameability","2","right","response","1"
"html-audio-button-response","27","67031","0.0-21.0-1.0","CKN_124","124","","","","","","null","stimuli/bleep.m4a","null","brown","yellow","[""brown"",""yellow"",""high nameability""]","right-left","[""yellow"",""brown""]","1","high nameability","2","right","audio_feedback","1"
"html-button-response","28","67548","0.0-22.0","CKN_124","124","","","","","","null","<button class=""jspsych-btn""><img src=""stimuli/white_square.png"" style=""width: 200px;height: 200px;""></button>","null","brown","yellow","[""brown"",""yellow"",""high nameability""]","right-left","[""yellow"",""brown""]","1","high nameability","2","right","iti",""
"html-button-response","29","71112","0.0-23.0","CKN_124","124","","","","","","3540","","0","darkgreenblue","turquoise","[""darkgreenblue"",""turquoise"",""low nameability""]","left-right","[""darkgreenblue"",""turquoise"",""low nameability""]","1","low nameability","3","left","trigger",""
"html-button-response","30","73615","0.0-24.0-0.0","CKN_124","124","","","","","","2487","<button class=""jspsych-btn""><img src=""stimuli/darkgreenblue.png"" style=""width: 200px;height: 200px;""></button>","0","darkgreenblue","turquoise","[""darkgreenblue"",""turquoise"",""low nameability""]","left-right","[""darkgreenblue"",""turquoise"",""low nameability""]","1","low nameability","3","left","response","1"
"html-audio-button-response","31","73824","0.0-24.0-1.0","CKN_124","124","","","","","","null","stimuli/bleep.m4a","null","darkgreenblue","turquoise","[""darkgreenblue"",""turquoise"",""low nameability""]","left-right","[""darkgreenblue"",""turquoise"",""low nameability""]","1","low nameability","3","left","audio_feedback","1"
"html-button-response","32","74340","0.0-25.0","CKN_124","124","","","","","","null","<button class=""jspsych-btn""><img src=""stimuli/white_square.png"" style=""width: 200px;height: 200px;""></button>","null","darkgreenblue","turquoise","[""darkgreenblue"",""turquoise"",""low nameability""]","left-right","[""darkgreenblue"",""turquoise"",""low nameability""]","1","low nameability","3","left","iti",""
"html-button-response","33","81503","0.0-26.0","CKN_124","124","","","","","","7154","","0","brown","blue","[""brown"",""blue"",""high nameability""]","right-left","[""blue"",""brown""]","1","high nameability","4","right","trigger",""
"html-button-response","34","83207","0.0-27.0-0.0","CKN_124","124","","","","","","1698","<button class=""jspsych-btn""><img src=""stimuli/brown.png"" style=""width: 200px;height: 200px;""></button>","1","brown","blue","[""brown"",""blue"",""high nameability""]","right-left","[""blue"",""brown""]","1","high nameability","4","right","response","1"
"html-audio-button-response","35","83405","0.0-27.0-1.0","CKN_124","124","","","","","","null","stimuli/bleep.m4a","null","brown","blue","[""brown"",""blue"",""high nameability""]","right-left","[""blue"",""brown""]","1","high nameability","4","right","audio_feedback","1"
"html-button-response","36","83926","0.0-28.0","CKN_124","124","","","","","","null","<button class=""jspsych-btn""><img src=""stimuli/white_square.png"" style=""width: 200px;height: 200px;""></button>","null","brown","blue","[""brown"",""blue"",""high nameability""]","right-left","[""blue"",""brown""]","1","high nameability","4","right","iti",""
"html-button-response","37","87482","0.0-29.0","CKN_124","124","","","","","","3532","","0","blue","purple","[""blue"",""purple"",""high nameability""]","left-right","[""blue"",""purple"",""high nameability""]","1","high nameability","5","left","trigger",""
"html-button-response","38","89033","0.0-30.0-0.0","CKN_124","124","","","","","","1543","<button class=""jspsych-btn""><img src=""stimuli/blue.png"" style=""width: 200px;height: 200px;""></button>","0","blue","purple","[""blue"",""purple"",""high nameability""]","left-right","[""blue"",""purple"",""high nameability""]","1","high nameability","5","left","response","1"
"html-audio-button-response","39","89246","0.0-30.0-1.0","CKN_124","124","","","","","","null","stimuli/bleep.m4a","null","blue","purple","[""blue"",""purple"",""high nameability""]","left-right","[""blue"",""purple"",""high nameability""]","1","high nameability","5","left","audio_feedback","1"
"html-button-response","40","89761","0.0-31.0","CKN_124","124","","","","","","null","<button class=""jspsych-btn""><img src=""stimuli/white_square.png"" style=""width: 200px;height: 200px;""></button>","null","blue","purple","[""blue"",""purple"",""high nameability""]","left-right","[""blue"",""purple"",""high nameability""]","1","high nameability","5","left","iti",""
"html-button-response","41","92075","0.0-32.0","CKN_124","124","","","","","","2305","","0","lightred","turquoise","[""lightred"",""turquoise"",""low nameability""]","left-right","[""lightred"",""turquoise"",""low nameability""]","1","low nameability","6","left","trigger",""
"html-button-response","42","94880","0.0-33.0-0.0","CKN_124","124","","","","","","2797","<button class=""jspsych-btn""><img src=""stimuli/lightred.png"" style=""width: 200px;height: 200px;""></button>","0","lightred","turquoise","[""lightred"",""turquoise"",""low nameability""]","left-right","[""lightred"",""turquoise"",""low nameability""]","1","low nameability","6","left","response","1"
"html-audio-button-response","43","95086","0.0-33.0-1.0","CKN_124","124","","","","","","null","stimuli/bleep.m4a","null","lightred","turquoise","[""lightred"",""turquoise"",""low nameability""]","left-right","[""lightred"",""turquoise"",""low nameability""]","1","low nameability","6","left","audio_feedback","1"
"html-button-response","44","95597","0.0-34.0","CKN_124","124","","","","","","null","<button class=""jspsych-btn""><img src=""stimuli/white_square.png"" style=""width: 200px;height: 200px;""></button>","null","lightred","turquoise","[""lightred"",""turquoise"",""low nameability""]","left-right","[""lightred"",""turquoise"",""low nameability""]","1","low nameability","6","left","iti",""
"html-button-response","45","99955","0.0-35.0","CKN_124","124","","","","","","4344","","0","orange","blue","[""orange"",""blue"",""high nameability""]","left-right","[""orange"",""blue"",""high nameability""]","1","high nameability","7","left","trigger",""
"html-button-response","46","101291","0.0-36.0-0.0","CKN_124","124","","","","","","1329","<button class=""jspsych-btn""><img src=""stimuli/orange.png"" style=""width: 200px;height: 200px;""></button>","0","orange","blue","[""orange"",""blue"",""high nameability""]","left-right","[""orange"",""blue"",""high nameability""]","1","high nameability","7","left","response","1"
"html-audio-button-response","47","101502","0.0-36.0-1.0","CKN_124","124","","","","","","null","stimuli/bleep.m4a","null","orange","blue","[""orange"",""blue"",""high nameability""]","left-right","[""orange"",""blue"",""high nameability""]","1","high nameability","7","left","audio_feedback","1"
"html-button-response","48","102023","0.0-37.0","CKN_124","124","","","","","","null","<button class=""jspsych-btn""><img src=""stimuli/white_square.png"" style=""width: 200px;height: 200px;""></button>","null","orange","blue","[""orange"",""blue"",""high nameability""]","left-right","[""orange"",""blue"",""high nameability""]","1","high nameability","7","left","iti",""
"html-button-response","49","105361","0.0-38.0","CKN_124","124","","","","","","3311","","0","neonyellow","turquoise","[""neonyellow"",""turquoise"",""low nameability""]","left-right","[""neonyellow"",""turquoise"",""low nameability""]","1","low nameability","8","left","trigger",""
"html-button-response","50","106990","0.0-39.0-0.0","CKN_124","124","","","","","","1623","<button class=""jspsych-btn""><img src=""stimuli/neonyellow.png"" style=""width: 200px;height: 200px;""></button>","0","neonyellow","turquoise","[""neonyellow"",""turquoise"",""low nameability""]","left-right","[""neonyellow"",""turquoise"",""low nameability""]","1","low nameability","8","left","response","1"
"html-audio-button-response","51","107207","0.0-39.0-1.0","CKN_124","124","","","","","","null","stimuli/bleep.m4a","null","neonyellow","turquoise","[""neonyellow"",""turquoise"",""low nameability""]","left-right","[""neonyellow"",""turquoise"",""low nameability""]","1","low nameability","8","left","audio_feedback","1"
"html-button-response","52","107742","0.0-40.0","CKN_124","124","","","","","","null","<button class=""jspsych-btn""><img src=""stimuli/white_square.png"" style=""width: 200px;height: 200px;""></button>","null","neonyellow","turquoise","[""neonyellow"",""turquoise"",""low nameability""]","left-right","[""neonyellow"",""turquoise"",""low nameability""]","1","low nameability","8","left","iti",""
"html-button-response","53","109182","0.0-41.0","CKN_124","124","","","","","","1427","","0","neonyellow","darkgreenblue","[""neonyellow"",""darkgreenblue"",""low nameability""]","right-left","[""darkgreenblue"",""neonyellow""]","1","low nameability","9","right","trigger",""
"html-button-response","54","110486","0.0-42.0-0.0","CKN_124","124","","","","","","1290","<button class=""jspsych-btn""><img src=""stimuli/neonyellow.png"" style=""width: 200px;height: 200px;""></button>","1","neonyellow","darkgreenblue","[""neonyellow"",""darkgreenblue"",""low nameability""]","right-left","[""darkgreenblue"",""neonyellow""]","1","low nameability","9","right","response","1"
"html-audio-button-response","55","110693","0.0-42.0-1.0","CKN_124","124","","","","","","null","stimuli/bleep.m4a","null","neonyellow","darkgreenblue","[""neonyellow"",""darkgreenblue"",""low nameability""]","right-left","[""darkgreenblue"",""neonyellow""]","1","low nameability","9","right","audio_feedback","1"
"html-button-response","56","111214","0.0-43.0","CKN_124","124","","","","","","null","<button class=""jspsych-btn""><img src=""stimuli/white_square.png"" style=""width: 200px;height: 200px;""></button>","null","neonyellow","darkgreenblue","[""neonyellow"",""darkgreenblue"",""low nameability""]","right-left","[""darkgreenblue"",""neonyellow""]","1","low nameability","9","right","iti",""
"html-button-response","57","112398","0.0-44.0","CKN_124","124","","","","","","1144","","0","mustard","lightred","[""mustard"",""lightred"",""low nameability""]","right-left","[""lightred"",""mustard""]","1","low nameability","10","right","trigger",""
"html-button-response","58","113961","0.0-45.0-0.0","CKN_124","124","","","","","","1550","<button class=""jspsych-btn""><img src=""stimuli/mustard.png"" style=""width: 200px;height: 200px;""></button>","1","mustard","lightred","[""mustard"",""lightred"",""low nameability""]","right-left","[""lightred"",""mustard""]","1","low nameability","10","right","response","1"
"html-audio-button-response","59","114179","0.0-45.0-1.0","CKN_124","124","","","","","","null","stimuli/bleep.m4a","null","mustard","lightred","[""mustard"",""lightred"",""low nameability""]","right-left","[""lightred"",""mustard""]","1","low nameability","10","right","audio_feedback","1"
"html-button-response","60","114700","0.0-46.0","CKN_124","124","","","","","","null","<button class=""jspsych-btn""><img src=""stimuli/white_square.png"" style=""width: 200px;height: 200px;""></button>","null","mustard","lightred","[""mustard"",""lightred"",""low nameability""]","right-left","[""lightred"",""mustard""]","1","low nameability","10","right","iti",""
"pavlovia","61","114807","0.0-47.0","CKN_124","124","","","","","","","","","","","","","","","","","","",""
"pavlovia","62","114825","0.0-48.0","CKN_124","124","","","","","","","","","","","","","","","","","","",""
"html-audio-button-response","63","120017","0.0-49.0","CKN_124","124","","","","","","5312","stimuli/tada.m4a","0","","","","","","","","","","",""
"html-button-response","64","120552","0.0-50.0","CKN_124","124","","","","","","528","","0","","","","","","","","","","",""
"html-button-response","65","124612","0.0-51.0","CKN_124","124","","","","","","4056","","0","mustard","turquoise","[""mustard"",""turquoise"",""low nameability""]","right-left","[""turquoise"",""mustard""]","2","low nameability","11","right","trigger",""
"html-button-response","66","126029","0.0-52.0-0.0","CKN_124","124","","","","","","1410","<button class=""jspsych-btn""><img src=""stimuli/mustard.png"" style=""width: 200px;height: 200px;""></button>","1","mustard","turquoise","[""mustard"",""turquoise"",""low nameability""]","right-left","[""turquoise"",""mustard""]","2","low nameability","11","right","response","1"
"html-audio-button-response","67","126237","0.0-52.0-1.0","CKN_124","124","","","","","","null","stimuli/bleep.m4a","null","mustard","turquoise","[""mustard"",""turquoise"",""low nameability""]","right-left","[""turquoise"",""mustard""]","2","low nameability","11","right","audio_feedback","1"
"html-button-response","68","126758","0.0-53.0","CKN_124","124","","","","","","null","<button class=""jspsych-btn""><img src=""stimuli/white_square.png"" style=""width: 200px;height: 200px;""></button>","null","mustard","turquoise","[""mustard"",""turquoise"",""low nameability""]","right-left","[""turquoise"",""mustard""]","2","low nameability","11","right","iti",""
"html-button-response","69","129610","0.0-54.0","CKN_124","124","","","","","","2838","","0","neonyellow","pink","[""neonyellow"",""pink"",""low nameability""]","right-left","[""pink"",""neonyellow""]","2","low nameability","12","right","trigger",""
"html-button-response","70","132482","0.0-55.0-0.0","CKN_124","124","","","","","","2865","<button class=""jspsych-btn""><img src=""stimuli/neonyellow.png"" style=""width: 200px;height: 200px;""></button>","1","neonyellow","pink","[""neonyellow"",""pink"",""low nameability""]","right-left","[""pink"",""neonyellow""]","2","low nameability","12","right","response","1"
"html-audio-button-response","71","132687","0.0-55.0-1.0","CKN_124","124","","","","","","null","stimuli/bleep.m4a","null","neonyellow","pink","[""neonyellow"",""pink"",""low nameability""]","right-left","[""pink"",""neonyellow""]","2","low nameability","12","right","audio_feedback","1"
"html-button-response","72","133212","0.0-56.0","CKN_124","124","","","","","","null","<button class=""jspsych-btn""><img src=""stimuli/white_square.png"" style=""width: 200px;height: 200px;""></button>","null","neonyellow","pink","[""neonyellow"",""pink"",""low nameability""]","right-left","[""pink"",""neonyellow""]","2","low nameability","12","right","iti",""
"html-button-response","73","134226","0.0-57.0","CKN_124","124","","","","","","1003","","0","purple","brown","[""purple"",""brown"",""high nameability""]","right-left","[""brown"",""purple""]","2","high nameability","13","right","trigger",""
"html-button-response","74","138742","0.0-58.0-0.0","CKN_124","124","","","","","","4508","<button class=""jspsych-btn""><img src=""stimuli/purple.png"" style=""width: 200px;height: 200px;""></button>","1","purple","brown","[""purple"",""brown"",""high nameability""]","right-left","[""brown"",""purple""]","2","high nameability","13","right","response","1"
"html-audio-button-response","75","138950","0.0-58.0-1.0","CKN_124","124","","","","","","null","stimuli/bleep.m4a","null","purple","brown","[""purple"",""brown"",""high nameability""]","right-left","[""brown"",""purple""]","2","high nameability","13","right","audio_feedback","1"
"html-button-response","76","139462","0.0-59.0","CKN_124","124","","","","","","null","<button class=""jspsych-btn""><img src=""stimuli/white_square.png"" style=""width: 200px;height: 200px;""></button>","null","purple","brown","[""purple"",""brown"",""high nameability""]","right-left","[""brown"",""purple""]","2","high nameability","13","right","iti",""
"html-button-response","77","141210","0.0-60.0","CKN_124","124","","","","","","1735","","0","yellow","purple","[""yellow"",""purple"",""high nameability""]","left-right","[""yellow"",""purple"",""high nameability""]","2","high nameability","14","left","trigger",""
"html-button-response","78","143063","0.0-61.0-0.0","CKN_124","124","","","","","","1845","<button class=""jspsych-btn""><img src=""stimuli/yellow.png"" style=""width: 200px;height: 200px;""></button>","0","yellow","purple","[""yellow"",""purple"",""high nameability""]","left-right","[""yellow"",""purple"",""high nameability""]","2","high nameability","14","left","response","1"
"html-audio-button-response","79","143270","0.0-61.0-1.0","CKN_124","124","","","","","","null","stimuli/bleep.m4a","null","yellow","purple","[""yellow"",""purple"",""high nameability""]","left-right","[""yellow"",""purple"",""high nameability""]","2","high nameability","14","left","audio_feedback","1"
"html-button-response","80","143789","0.0-62.0","CKN_124","124","","","","","","null","<button class=""jspsych-btn""><img src=""stimuli/white_square.png"" style=""width: 200px;height: 200px;""></button>","null","yellow","purple","[""yellow"",""purple"",""high nameability""]","left-right","[""yellow"",""purple"",""high nameability""]","2","high nameability","14","left","iti",""
"html-button-response","81","145101","0.0-63.0","CKN_124","124","","","","","","1299","","0","orange","yellow","[""orange"",""yellow"",""high nameability""]","right-left","[""yellow"",""orange""]","2","high nameability","15","right","trigger",""
"html-button-response","82","149131","0.0-64.0-0.0","CKN_124","124","","","","","","4023","<button class=""jspsych-btn""><img src=""stimuli/orange.png"" style=""width: 200px;height: 200px;""></button>","1","orange","yellow","[""orange"",""yellow"",""high nameability""]","right-left","[""yellow"",""orange""]","2","high nameability","15","right","response","1"
"html-audio-button-response","83","149365","0.0-64.0-1.0","CKN_124","124","","","","","","null","stimuli/bleep.m4a","null","orange","yellow","[""orange"",""yellow"",""high nameability""]","right-left","[""yellow"",""orange""]","2","high nameability","15","right","audio_feedback","1"
"html-button-response","84","149886","0.0-65.0","CKN_124","124","","","","","","null","<button class=""jspsych-btn""><img src=""stimuli/white_square.png"" style=""width: 200px;height: 200px;""></button>","null","orange","yellow","[""orange"",""yellow"",""high nameability""]","right-left","[""yellow"",""orange""]","2","high nameability","15","right","iti",""
"html-button-response","85","151126","0.0-66.0","CKN_124","124","","","","","","1216","","0","red","orange","[""red"",""orange"",""high nameability""]","left-right","[""red"",""orange"",""high nameability""]","2","high nameability","16","left","trigger",""
"html-button-response","86","153359","0.0-67.0-0.0","CKN_124","124","","","","","","2228","<button class=""jspsych-btn""><img src=""stimuli/red.png"" style=""width: 200px;height: 200px;""></button>","0","red","orange","[""red"",""orange"",""high nameability""]","left-right","[""red"",""orange"",""high nameability""]","2","high nameability","16","left","response","1"
"html-audio-button-response","87","153564","0.0-67.0-1.0","CKN_124","124","","","","","","null","stimuli/bleep.m4a","null","red","orange","[""red"",""orange"",""high nameability""]","left-right","[""red"",""orange"",""high nameability""]","2","high nameability","16","left","audio_feedback","1"
"html-button-response","88","154085","0.0-68.0","CKN_124","124","","","","","","null","<button class=""jspsych-btn""><img src=""stimuli/white_square.png"" style=""width: 200px;height: 200px;""></button>","null","red","orange","[""red"",""orange"",""high nameability""]","left-right","[""red"",""orange"",""high nameability""]","2","high nameability","16","left","iti",""
"html-button-response","89","158055","0.0-69.0","CKN_124","124","","","","","","3956","","0","turquoise","lightred","[""turquoise"",""lightred"",""low nameability""]","right-left","[""lightred"",""turquoise""]","2","low nameability","17","right","trigger",""
"html-button-response","90","162485","0.0-70.0-0.0","CKN_124","124","","","","","","4423","<button class=""jspsych-btn""><img src=""stimuli/turquoise.png"" style=""width: 200px;height: 200px;""></button>","1","turquoise","lightred","[""turquoise"",""lightred"",""low nameability""]","right-left","[""lightred"",""turquoise""]","2","low nameability","17","right","response","1"
"html-audio-button-response","91","162695","0.0-70.0-1.0","CKN_124","124","","","","","","null","stimuli/bleep.m4a","null","turquoise","lightred","[""turquoise"",""lightred"",""low nameability""]","right-left","[""lightred"",""turquoise""]","2","low nameability","17","right","audio_feedback","1"
"html-button-response","92","163214","0.0-71.0","CKN_124","124","","","","","","50","<button class=""jspsych-btn""><img src=""stimuli/white_square.png"" style=""width: 200px;height: 200px;""></button>","1","turquoise","lightred","[""turquoise"",""lightred"",""low nameability""]","right-left","[""lightred"",""turquoise""]","2","low nameability","17","right","iti",""
"html-button-response","93","164461","0.0-72.0","CKN_124","124","","","","","","1238","","0","purple","blue","[""purple"",""blue"",""high nameability""]","right-left","[""blue"",""purple""]","2","high nameability","18","right","trigger",""
"html-button-response","94","165499","0.0-73.0-0.0","CKN_124","124","","","","","","1031","<button class=""jspsych-btn""><img src=""stimuli/purple.png"" style=""width: 200px;height: 200px;""></button>","1","purple","blue","[""purple"",""blue"",""high nameability""]","right-left","[""blue"",""purple""]","2","high nameability","18","right","response","1"
"html-audio-button-response","95","165711","0.0-73.0-1.0","CKN_124","124","","","","","","null","stimuli/bleep.m4a","null","purple","blue","[""purple"",""blue"",""high nameability""]","right-left","[""blue"",""purple""]","2","high nameability","18","right","audio_feedback","1"
"html-button-response","96","166239","0.0-74.0","CKN_124","124","","","","","","null","<button class=""jspsych-btn""><img src=""stimuli/white_square.png"" style=""width: 200px;height: 200px;""></button>","null","purple","blue","[""purple"",""blue"",""high nameability""]","right-left","[""blue"",""purple""]","2","high nameability","18","right","iti",""
"html-button-response","97","167653","0.0-75.0","CKN_124","124","","","","","","1397","","0","lightred","darkgreenblue","[""lightred"",""darkgreenblue"",""low nameability""]","left-right","[""lightred"",""darkgreenblue"",""low nameability""]","2","low nameability","19","left","trigger",""
"html-button-response","98","168471","0.0-76.0-0.0","CKN_124","124","","","","","","812","<button class=""jspsych-btn""><img src=""stimuli/lightred.png"" style=""width: 200px;height: 200px;""></button>","1","lightred","darkgreenblue","[""lightred"",""darkgreenblue"",""low nameability""]","left-right","[""lightred"",""darkgreenblue"",""low nameability""]","2","low nameability","19","left","response","0"
"html-audio-button-response","99","169100","0.0-76.0-1.0","CKN_124","124","","","","","","null","stimuli/boing.m4a","null","lightred","darkgreenblue","[""lightred"",""darkgreenblue"",""low nameability""]","left-right","[""lightred"",""darkgreenblue"",""low nameability""]","2","low nameability","19","left","audio_feedback","0"
"html-button-response","100","171987","0.0-76.1-0.1","CKN_124","124","","","","","","2857","<button class=""jspsych-btn""><img src=""stimuli/lightred.png"" style=""width: 200px;height: 200px;""></button>","0","lightred","darkgreenblue","[""lightred"",""darkgreenblue"",""low nameability""]","left-right","[""lightred"",""darkgreenblue"",""low nameability""]","2","low nameability","19","left","response","1"
"html-audio-button-response","101","172190","0.0-76.1-1.1","CKN_124","124","","","","","","null","stimuli/bleep.m4a","null","lightred","darkgreenblue","[""lightred"",""darkgreenblue"",""low nameability""]","left-right","[""lightred"",""darkgreenblue"",""low nameability""]","2","low nameability","19","left","audio_feedback","1"
"html-button-response","102","172708","0.0-77.0","CKN_124","124","","","","","","null","<button class=""jspsych-btn""><img src=""stimuli/white_square.png"" style=""width: 200px;height: 200px;""></button>","null","lightred","darkgreenblue","[""lightred"",""darkgreenblue"",""low nameability""]","left-right","[""lightred"",""darkgreenblue"",""low nameability""]","2","low nameability","19","left","iti",""
"html-button-response","103","175033","0.0-78.0","CKN_124","124","","","","","","2312","","0","neonyellow","mustard","[""neonyellow"",""mustard"",""low nameability""]","right-left","[""mustard"",""neonyellow""]","2","low nameability","20","right","trigger",""
"html-button-response","104","177476","0.0-79.0-0.0","CKN_124","124","","","","","","2437","<button class=""jspsych-btn""><img src=""stimuli/neonyellow.png"" style=""width: 200px;height: 200px;""></button>","1","neonyellow","mustard","[""neonyellow"",""mustard"",""low nameability""]","right-left","[""mustard"",""neonyellow""]","2","low nameability","20","right","response","1"
"html-audio-button-response","105","177679","0.0-79.0-1.0","CKN_124","124","","","","","","null","stimuli/bleep.m4a","null","neonyellow","mustard","[""neonyellow"",""mustard"",""low nameability""]","right-left","[""mustard"",""neonyellow""]","2","low nameability","20","right","audio_feedback","1"
"html-button-response","106","178200","0.0-80.0","CKN_124","124","","","","","","null","<button class=""jspsych-btn""><img src=""stimuli/white_square.png"" style=""width: 200px;height: 200px;""></button>","null","neonyellow","mustard","[""neonyellow"",""mustard"",""low nameability""]","right-left","[""mustard"",""neonyellow""]","2","low nameability","20","right","iti",""
"pavlovia","107","178268","0.0-81.0","CKN_124","124","","","","","","","","","","","","","","","","","","",""
"pavlovia","108","178280","0.0-82.0","CKN_124","124","","","","","","","","","","","","","","","","","","",""
"html-audio-button-response","109","181623","0.0-83.0","CKN_124","124","","","","","","3419","stimuli/tada.m4a","0","","","","","","","","","","",""
"html-button-response","110","182202","0.0-84.0","CKN_124","124","","","","","","573","","0","","","","","","","","","","",""
"html-button-response","111","186869","0.0-85.0","CKN_124","124","","","","","","4658","","0","yellow","brown","[""yellow"",""brown"",""high nameability""]","left-right","[""yellow"",""brown"",""high nameability""]","3","high nameability","21","left","trigger",""
"html-button-response","112","189193","0.0-86.0-0.0","CKN_124","124","","","","","","2318","<button class=""jspsych-btn""><img src=""stimuli/yellow.png"" style=""width: 200px;height: 200px;""></button>","0","yellow","brown","[""yellow"",""brown"",""high nameability""]","left-right","[""yellow"",""brown"",""high nameability""]","3","high nameability","21","left","response","1"
"html-audio-button-response","113","189398","0.0-86.0-1.0","CKN_124","124","","","","","","null","stimuli/bleep.m4a","null","yellow","brown","[""yellow"",""brown"",""high nameability""]","left-right","[""yellow"",""brown"",""high nameability""]","3","high nameability","21","left","audio_feedback","1"
"html-button-response","114","189909","0.0-87.0","CKN_124","124","","","","","","null","<button class=""jspsych-btn""><img src=""stimuli/white_square.png"" style=""width: 200px;height: 200px;""></button>","null","yellow","brown","[""yellow"",""brown"",""high nameability""]","left-right","[""yellow"",""brown"",""high nameability""]","3","high nameability","21","left","iti",""
"html-button-response","115","190989","0.0-88.0","CKN_124","124","","","","","","1061","","0","blue","yellow","[""blue"",""yellow"",""high nameability""]","left-right","[""blue"",""yellow"",""high nameability""]","3","high nameability","22","left","trigger",""
"html-button-response","116","193116","0.0-89.0-0.0","CKN_124","124","","","","","","2122","<button class=""jspsych-btn""><img src=""stimuli/blue.png"" style=""width: 200px;height: 200px;""></button>","0","blue","yellow","[""blue"",""yellow"",""high nameability""]","left-right","[""blue"",""yellow"",""high nameability""]","3","high nameability","22","left","response","1"
"html-audio-button-response","117","193318","0.0-89.0-1.0","CKN_124","124","","","","","","null","stimuli/bleep.m4a","null","blue","yellow","[""blue"",""yellow"",""high nameability""]","left-right","[""blue"",""yellow"",""high nameability""]","3","high nameability","22","left","audio_feedback","1"
"html-button-response","118","193838","0.0-90.0","CKN_124","124","","","","","","null","<button class=""jspsych-btn""><img src=""stimuli/white_square.png"" style=""width: 200px;height: 200px;""></button>","null","blue","yellow","[""blue"",""yellow"",""high nameability""]","left-right","[""blue"",""yellow"",""high nameability""]","3","high nameability","22","left","iti",""
"html-button-response","119","194800","0.0-91.0","CKN_124","124","","","","","","947","","0","turquoise","pink","[""turquoise"",""pink"",""low nameability""]","left-right","[""turquoise"",""pink"",""low nameability""]","3","low nameability","23","left","trigger",""
"html-button-response","120","197207","0.0-92.0-0.0","CKN_124","124","","","","","","2402","<button class=""jspsych-btn""><img src=""stimuli/turquoise.png"" style=""width: 200px;height: 200px;""></button>","0","turquoise","pink","[""turquoise"",""pink"",""low nameability""]","left-right","[""turquoise"",""pink"",""low nameability""]","3","low nameability","23","left","response","1"
"html-audio-button-response","121","197418","0.0-92.0-1.0","CKN_124","124","","","","","","null","stimuli/bleep.m4a","null","turquoise","pink","[""turquoise"",""pink"",""low nameability""]","left-right","[""turquoise"",""pink"",""low nameability""]","3","low nameability","23","left","audio_feedback","1"
"html-button-response","122","197937","0.0-93.0","CKN_124","124","","","","","","null","<button class=""jspsych-btn""><img src=""stimuli/white_square.png"" style=""width: 200px;height: 200px;""></button>","null","turquoise","pink","[""turquoise"",""pink"",""low nameability""]","left-right","[""turquoise"",""pink"",""low nameability""]","3","low nameability","23","left","iti",""
"html-button-response","123","198686","0.0-94.0","CKN_124","124","","","","","","738","","0","purple","orange","[""purple"",""orange"",""high nameability""]","right-left","[""orange"",""purple""]","3","high nameability","24","right","trigger",""
"html-button-response","124","200964","0.0-95.0-0.0","CKN_124","124","","","","","","2272","<button class=""jspsych-btn""><img src=""stimuli/purple.png"" style=""width: 200px;height: 200px;""></button>","1","purple","orange","[""purple"",""orange"",""high nameability""]","right-left","[""orange"",""purple""]","3","high nameability","24","right","response","1"
"html-audio-button-response","125","201166","0.0-95.0-1.0","CKN_124","124","","","","","","null","stimuli/bleep.m4a","null","purple","orange","[""purple"",""orange"",""high nameability""]","right-left","[""orange"",""purple""]","3","high nameability","24","right","audio_feedback","1"
"html-button-response","126","201685","0.0-96.0","CKN_124","124","","","","","","null","<button class=""jspsych-btn""><img src=""stimuli/white_square.png"" style=""width: 200px;height: 200px;""></button>","null","purple","orange","[""purple"",""orange"",""high nameability""]","right-left","[""orange"",""purple""]","3","high nameability","24","right","iti",""
"html-button-response","127","204738","0.0-97.0","CKN_124","124","","","","","","3038","","0","lightred","pink","[""lightred"",""pink"",""low nameability""]","right-left","[""pink"",""lightred""]","3","low nameability","25","right","trigger",""
"html-button-response","128","208202","0.0-98.0-0.0","CKN_124","124","","","","","","3458","<button class=""jspsych-btn""><img src=""stimuli/lightred.png"" style=""width: 200px;height: 200px;""></button>","1","lightred","pink","[""lightred"",""pink"",""low nameability""]","right-left","[""pink"",""lightred""]","3","low nameability","25","right","response","1"
"html-audio-button-response","129","208405","0.0-98.0-1.0","CKN_124","124","","","","","","null","stimuli/bleep.m4a","null","lightred","pink","[""lightred"",""pink"",""low nameability""]","right-left","[""pink"",""lightred""]","3","low nameability","25","right","audio_feedback","1"
"html-button-response","130","208932","0.0-99.0","CKN_124","124","","","","","","null","<button class=""jspsych-btn""><img src=""stimuli/white_square.png"" style=""width: 200px;height: 200px;""></button>","null","lightred","pink","[""lightred"",""pink"",""low nameability""]","right-left","[""pink"",""lightred""]","3","low nameability","25","right","iti",""
"html-button-response","131","210480","0.0-100.0","CKN_124","124","","","","","","1532","","0","brown","orange","[""brown"",""orange"",""high nameability""]","right-left","[""orange"",""brown""]","3","high nameability","26","right","trigger",""
"html-button-response","132","212330","0.0-101.0-0.0","CKN_124","124","","","","","","1845","<button class=""jspsych-btn""><img src=""stimuli/brown.png"" style=""width: 200px;height: 200px;""></button>","1","brown","orange","[""brown"",""orange"",""high nameability""]","right-left","[""orange"",""brown""]","3","high nameability","26","right","response","1"
"html-audio-button-response","133","212531","0.0-101.0-1.0","CKN_124","124","","","","","","null","stimuli/bleep.m4a","null","brown","orange","[""brown"",""orange"",""high nameability""]","right-left","[""orange"",""brown""]","3","high nameability","26","right","audio_feedback","1"
"html-button-response","134","213042","0.0-102.0","CKN_124","124","","","","","","null","<button class=""jspsych-btn""><img src=""stimuli/white_square.png"" style=""width: 200px;height: 200px;""></button>","null","brown","orange","[""brown"",""orange"",""high nameability""]","right-left","[""orange"",""brown""]","3","high nameability","26","right","iti",""
"html-button-response","135","216367","0.0-103.0","CKN_124","124","","","","","","3317","","0","blue","brown","[""blue"",""brown"",""high nameability""]","right-left","[""brown"",""blue""]","3","high nameability","27","right","trigger",""
"html-button-response","136","220802","0.0-104.0-0.0","CKN_124","124","","","","","","4429","<button class=""jspsych-btn""><img src=""stimuli/blue.png"" style=""width: 200px;height: 200px;""></button>","1","blue","brown","[""blue"",""brown"",""high nameability""]","right-left","[""brown"",""blue""]","3","high nameability","27","right","response","1"
"html-audio-button-response","137","221007","0.0-104.0-1.0","CKN_124","124","","","","","","null","stimuli/bleep.m4a","null","blue","brown","[""blue"",""brown"",""high nameability""]","right-left","[""brown"",""blue""]","3","high nameability","27","right","audio_feedback","1"
"html-button-response","138","221520","0.0-105.0","CKN_124","124","","","","","","null","<button class=""jspsych-btn""><img src=""stimuli/white_square.png"" style=""width: 200px;height: 200px;""></button>","null","blue","brown","[""blue"",""brown"",""high nameability""]","right-left","[""brown"",""blue""]","3","high nameability","27","right","iti",""
"html-button-response","139","222625","0.0-106.0","CKN_124","124","","","","","","1093","","0","yellow","red","[""yellow"",""red"",""high nameability""]","left-right","[""yellow"",""red"",""high nameability""]","3","high nameability","28","left","trigger",""
"html-button-response","140","227536","0.0-107.0-0.0","CKN_124","124","","","","","","4905","<button class=""jspsych-btn""><img src=""stimuli/yellow.png"" style=""width: 200px;height: 200px;""></button>","0","yellow","red","[""yellow"",""red"",""high nameability""]","left-right","[""yellow"",""red"",""high nameability""]","3","high nameability","28","left","response","1"
"html-audio-button-response","141","227741","0.0-107.0-1.0","CKN_124","124","","","","","","null","stimuli/bleep.m4a","null","yellow","red","[""yellow"",""red"",""high nameability""]","left-right","[""yellow"",""red"",""high nameability""]","3","high nameability","28","left","audio_feedback","1"
"html-button-response","142","228250","0.0-108.0","CKN_124","124","","","","","","null","<button class=""jspsych-btn""><img src=""stimuli/white_square.png"" style=""width: 200px;height: 200px;""></button>","null","yellow","red","[""yellow"",""red"",""high nameability""]","left-right","[""yellow"",""red"",""high nameability""]","3","high nameability","28","left","iti",""
"html-button-response","143","233291","0.0-109.0","CKN_124","124","","","","","","5008","","0","lightred","neonyellow","[""lightred"",""neonyellow"",""low nameability""]","left-right","[""lightred"",""neonyellow"",""low nameability""]","3","low nameability","29","left","trigger",""
"html-button-response","144","234977","0.0-110.0-0.0","CKN_124","124","","","","","","1678","<button class=""jspsych-btn""><img src=""stimuli/lightred.png"" style=""width: 200px;height: 200px;""></button>","0","lightred","neonyellow","[""lightred"",""neonyellow"",""low nameability""]","left-right","[""lightred"",""neonyellow"",""low nameability""]","3","low nameability","29","left","response","1"
"html-audio-button-response","145","235182","0.0-110.0-1.0","CKN_124","124","","","","","","null","stimuli/bleep.m4a","null","lightred","neonyellow","[""lightred"",""neonyellow"",""low nameability""]","left-right","[""lightred"",""neonyellow"",""low nameability""]","3","low nameability","29","left","audio_feedback","1"
"html-button-response","146","235707","0.0-111.0","CKN_124","124","","","","","","null","<button class=""jspsych-btn""><img src=""stimuli/white_square.png"" style=""width: 200px;height: 200px;""></button>","null","lightred","neonyellow","[""lightred"",""neonyellow"",""low nameability""]","left-right","[""lightred"",""neonyellow"",""low nameability""]","3","low nameability","29","left","iti",""
"html-button-response","147","236364","0.0-112.0","CKN_124","124","","","","","","644","","0","neonyellow","lightred","[""neonyellow"",""lightred"",""low nameability""]","left-right","[""neonyellow"",""lightred"",""low nameability""]","3","low nameability","30","left","trigger",""
"html-button-response","148","237441","0.0-113.0-0.0","CKN_124","124","","","","","","1071","<button class=""jspsych-btn""><img src=""stimuli/neonyellow.png"" style=""width: 200px;height: 200px;""></button>","0","neonyellow","lightred","[""neonyellow"",""lightred"",""low nameability""]","left-right","[""neonyellow"",""lightred"",""low nameability""]","3","low nameability","30","left","response","1"
"html-audio-button-response","149","237639","0.0-113.0-1.0","CKN_124","124","","","","","","null","stimuli/bleep.m4a","null","neonyellow","lightred","[""neonyellow"",""lightred"",""low nameability""]","left-right","[""neonyellow"",""lightred"",""low nameability""]","3","low nameability","30","left","audio_feedback","1"
"html-button-response","150","238154","0.0-114.0","CKN_124","124","","","","","","null","<button class=""jspsych-btn""><img src=""stimuli/white_square.png"" style=""width: 200px;height: 200px;""></button>","null","neonyellow","lightred","[""neonyellow"",""lightred"",""low nameability""]","left-right","[""neonyellow"",""lightred"",""low nameability""]","3","low nameability","30","left","iti",""
"pavlovia","151","238217","0.0-115.0","CKN_124","124","","","","","","","","","","","","","","","","","","",""
"pavlovia","152","238225","0.0-116.0","CKN_124","124","","","","","","","","","","","","","","","","","","",""
"html-audio-button-response","153","242039","0.0-117.0","CKN_124","124","","","","","","3880","stimuli/tada.m4a","0","","","","","","","","","","",""
"html-button-response","154","242555","0.0-118.0","CKN_124","124","","","","","","512","","0","","","","","","","","","","",""
"html-button-response","155","246044","0.0-119.0","CKN_124","124","","","","","","3484","","0","mustard","darkgreenblue","[""mustard"",""darkgreenblue"",""low nameability""]","right-left","[""darkgreenblue"",""mustard""]","4","low nameability","31","right","trigger",""
"html-button-response","156","247639","0.0-120.0-0.0","CKN_124","124","","","","","","1588","<button class=""jspsych-btn""><img src=""stimuli/mustard.png"" style=""width: 200px;height: 200px;""></button>","1","mustard","darkgreenblue","[""mustard"",""darkgreenblue"",""low nameability""]","right-left","[""darkgreenblue"",""mustard""]","4","low nameability","31","right","response","1"
"html-audio-button-response","157","247839","0.0-120.0-1.0","CKN_124","124","","","","","","null","stimuli/bleep.m4a","null","mustard","darkgreenblue","[""mustard"",""darkgreenblue"",""low nameability""]","right-left","[""darkgreenblue"",""mustard""]","4","low nameability","31","right","audio_feedback","1"
"html-button-response","158","248357","0.0-121.0","CKN_124","124","","","","","","null","<button class=""jspsych-btn""><img src=""stimuli/white_square.png"" style=""width: 200px;height: 200px;""></button>","null","mustard","darkgreenblue","[""mustard"",""darkgreenblue"",""low nameability""]","right-left","[""darkgreenblue"",""mustard""]","4","low nameability","31","right","iti",""
"html-button-response","159","249960","0.0-122.0","CKN_124","124","","","","","","1589","","0","blue","red","[""blue"",""red"",""high nameability""]","left-right","[""blue"",""red"",""high nameability""]","4","high nameability","32","left","trigger",""
"html-button-response","160","252066","0.0-123.0-0.0","CKN_124","124","","","","","","2100","<button class=""jspsych-btn""><img src=""stimuli/blue.png"" style=""width: 200px;height: 200px;""></button>","0","blue","red","[""blue"",""red"",""high nameability""]","left-right","[""blue"",""red"",""high nameability""]","4","high nameability","32","left","response","1"
"html-audio-button-response","161","252270","0.0-123.0-1.0","CKN_124","124","","","","","","null","stimuli/bleep.m4a","null","blue","red","[""blue"",""red"",""high nameability""]","left-right","[""blue"",""red"",""high nameability""]","4","high nameability","32","left","audio_feedback","1"
"html-button-response","162","252783","0.0-124.0","CKN_124","124","","","","","","null","<button class=""jspsych-btn""><img src=""stimuli/white_square.png"" style=""width: 200px;height: 200px;""></button>","null","blue","red","[""blue"",""red"",""high nameability""]","left-right","[""blue"",""red"",""high nameability""]","4","high nameability","32","left","iti",""
"html-button-response","163","254958","0.0-125.0","CKN_124","124","","","","","","2167","","0","mustard","neonyellow","[""mustard"",""neonyellow"",""low nameability""]","right-left","[""neonyellow"",""mustard""]","4","low nameability","33","right","trigger",""
"html-button-response","164","258269","0.0-126.0-0.0","CKN_124","124","","","","","","3303","<button class=""jspsych-btn""><img src=""stimuli/mustard.png"" style=""width: 200px;height: 200px;""></button>","1","mustard","neonyellow","[""mustard"",""neonyellow"",""low nameability""]","right-left","[""neonyellow"",""mustard""]","4","low nameability","33","right","response","1"
"html-audio-button-response","165","258480","0.0-126.0-1.0","CKN_124","124","","","","","","null","stimuli/bleep.m4a","null","mustard","neonyellow","[""mustard"",""neonyellow"",""low nameability""]","right-left","[""neonyellow"",""mustard""]","4","low nameability","33","right","audio_feedback","1"
"html-button-response","166","258992","0.0-127.0","CKN_124","124","","","","","","null","<button class=""jspsych-btn""><img src=""stimuli/white_square.png"" style=""width: 200px;height: 200px;""></button>","null","mustard","neonyellow","[""mustard"",""neonyellow"",""low nameability""]","right-left","[""neonyellow"",""mustard""]","4","low nameability","33","right","iti",""
"html-button-response","167","261462","0.0-128.0","CKN_124","124","","","","","","2460","","0","red","purple","[""red"",""purple"",""high nameability""]","right-left","[""purple"",""red""]","4","high nameability","34","right","trigger",""
"html-button-response","168","263917","0.0-129.0-0.0","CKN_124","124","","","","","","2448","<button class=""jspsych-btn""><img src=""stimuli/red.png"" style=""width: 200px;height: 200px;""></button>","1","red","purple","[""red"",""purple"",""high nameability""]","right-left","[""purple"",""red""]","4","high nameability","34","right","response","1"
"html-audio-button-response","169","264119","0.0-129.0-1.0","CKN_124","124","","","","","","null","stimuli/bleep.m4a","null","red","purple","[""red"",""purple"",""high nameability""]","right-left","[""purple"",""red""]","4","high nameability","34","right","audio_feedback","1"
"html-button-response","170","264632","0.0-130.0","CKN_124","124","","","","","","146","<button class=""jspsych-btn""><img src=""stimuli/white_square.png"" style=""width: 200px;height: 200px;""></button>","1","red","purple","[""red"",""purple"",""high nameability""]","right-left","[""purple"",""red""]","4","high nameability","34","right","iti",""
"html-button-response","171","266616","0.0-131.0","CKN_124","124","","","","","","1974","","0","red","blue","[""red"",""blue"",""high nameability""]","right-left","[""blue"",""red""]","4","high nameability","35","right","trigger",""
"html-button-response","172","269447","0.0-132.0-0.0","CKN_124","124","","","","","","2824","<button class=""jspsych-btn""><img src=""stimuli/red.png"" style=""width: 200px;height: 200px;""></button>","1","red","blue","[""red"",""blue"",""high nameability""]","right-left","[""blue"",""red""]","4","high nameability","35","right","response","1"
"html-audio-button-response","173","269663","0.0-132.0-1.0","CKN_124","124","","","","","","null","stimuli/bleep.m4a","null","red","blue","[""red"",""blue"",""high nameability""]","right-left","[""blue"",""red""]","4","high nameability","35","right","audio_feedback","1"
"html-button-response","174","270173","0.0-133.0","CKN_124","124","","","","","","null","<button class=""jspsych-btn""><img src=""stimuli/white_square.png"" style=""width: 200px;height: 200px;""></button>","null","red","blue","[""red"",""blue"",""high nameability""]","right-left","[""blue"",""red""]","4","high nameability","35","right","iti",""
"html-button-response","175","271461","0.0-134.0","CKN_124","124","","","","","","1282","","0","yellow","blue","[""yellow"",""blue"",""high nameability""]","left-right","[""yellow"",""blue"",""high nameability""]","4","high nameability","36","left","trigger",""
"html-button-response","176","273794","0.0-135.0-0.0","CKN_124","124","","","","","","2328","<button class=""jspsych-btn""><img src=""stimuli/yellow.png"" style=""width: 200px;height: 200px;""></button>","0","yellow","blue","[""yellow"",""blue"",""high nameability""]","left-right","[""yellow"",""blue"",""high nameability""]","4","high nameability","36","left","response","1"
"html-audio-button-response","177","273997","0.0-135.0-1.0","CKN_124","124","","","","","","null","stimuli/bleep.m4a","null","yellow","blue","[""yellow"",""blue"",""high nameability""]","left-right","[""yellow"",""blue"",""high nameability""]","4","high nameability","36","left","audio_feedback","1"
"html-button-response","178","274504","0.0-136.0","CKN_124","124","","","","","","139","<button class=""jspsych-btn""><img src=""stimuli/white_square.png"" style=""width: 200px;height: 200px;""></button>","0","yellow","blue","[""yellow"",""blue"",""high nameability""]","left-right","[""yellow"",""blue"",""high nameability""]","4","high nameability","36","left","iti",""
"html-button-response","179","276194","0.0-137.0","CKN_124","124","","","","","","1681","","0","purple","red","[""purple"",""red"",""high nameability""]","left-right","[""purple"",""red"",""high nameability""]","4","high nameability","37","left","trigger",""
"html-button-response","180","278597","0.0-138.0-0.0","CKN_124","124","","","","","","2396","<button class=""jspsych-btn""><img src=""stimuli/purple.png"" style=""width: 200px;height: 200px;""></button>","0","purple","red","[""purple"",""red"",""high nameability""]","left-right","[""purple"",""red"",""high nameability""]","4","high nameability","37","left","response","1"
"html-audio-button-response","181","278803","0.0-138.0-1.0","CKN_124","124","","","","","","null","stimuli/bleep.m4a","null","purple","red","[""purple"",""red"",""high nameability""]","left-right","[""purple"",""red"",""high nameability""]","4","high nameability","37","left","audio_feedback","1"
"html-button-response","182","279322","0.0-139.0","CKN_124","124","","","","","","null","<button class=""jspsych-btn""><img src=""stimuli/white_square.png"" style=""width: 200px;height: 200px;""></button>","null","purple","red","[""purple"",""red"",""high nameability""]","left-right","[""purple"",""red"",""high nameability""]","4","high nameability","37","left","iti",""
"html-button-response","183","281505","0.0-140.0","CKN_124","124","","","","","","2170","","0","darkgreenblue","pink","[""darkgreenblue"",""pink"",""low nameability""]","right-left","[""pink"",""darkgreenblue""]","4","low nameability","38","right","trigger",""
"html-button-response","184","283392","0.0-141.0-0.0","CKN_124","124","","","","","","1880","<button class=""jspsych-btn""><img src=""stimuli/darkgreenblue.png"" style=""width: 200px;height: 200px;""></button>","1","darkgreenblue","pink","[""darkgreenblue"",""pink"",""low nameability""]","right-left","[""pink"",""darkgreenblue""]","4","low nameability","38","right","response","1"
"html-audio-button-response","185","283598","0.0-141.0-1.0","CKN_124","124","","","","","","null","stimuli/bleep.m4a","null","darkgreenblue","pink","[""darkgreenblue"",""pink"",""low nameability""]","right-left","[""pink"",""darkgreenblue""]","4","low nameability","38","right","audio_feedback","1"
"html-button-response","186","284105","0.0-142.0","CKN_124","124","","","","","","null","<button class=""jspsych-btn""><img src=""stimuli/white_square.png"" style=""width: 200px;height: 200px;""></button>","null","darkgreenblue","pink","[""darkgreenblue"",""pink"",""low nameability""]","right-left","[""pink"",""darkgreenblue""]","4","low nameability","38","right","iti",""
"html-button-response","187","285191","0.0-143.0","CKN_124","124","","","","","","1079","","0","pink","darkgreenblue","[""pink"",""darkgreenblue"",""low nameability""]","left-right","[""pink"",""darkgreenblue"",""low nameability""]","4","low nameability","39","left","trigger",""
"html-button-response","188","287527","0.0-144.0-0.0","CKN_124","124","","","","","","2329","<button class=""jspsych-btn""><img src=""stimuli/pink.png"" style=""width: 200px;height: 200px;""></button>","0","pink","darkgreenblue","[""pink"",""darkgreenblue"",""low nameability""]","left-right","[""pink"",""darkgreenblue"",""low nameability""]","4","low nameability","39","left","response","1"
"html-audio-button-response","189","287739","0.0-144.0-1.0","CKN_124","124","","","","","","null","stimuli/bleep.m4a","null","pink","darkgreenblue","[""pink"",""darkgreenblue"",""low nameability""]","left-right","[""pink"",""darkgreenblue"",""low nameability""]","4","low nameability","39","left","audio_feedback","1"
"html-button-response","190","288260","0.0-145.0","CKN_124","124","","","","","","null","<button class=""jspsych-btn""><img src=""stimuli/white_square.png"" style=""width: 200px;height: 200px;""></button>","null","pink","darkgreenblue","[""pink"",""darkgreenblue"",""low nameability""]","left-right","[""pink"",""darkgreenblue"",""low nameability""]","4","low nameability","39","left","iti",""
"html-button-response","191","289475","0.0-146.0","CKN_124","124","","","","","","1204","","0","red","yellow","[""red"",""yellow"",""high nameability""]","left-right","[""red"",""yellow"",""high nameability""]","4","high nameability","40","left","trigger",""
"html-button-response","192","292533","0.0-147.0-0.0","CKN_124","124","","","","","","3051","<button class=""jspsych-btn""><img src=""stimuli/red.png"" style=""width: 200px;height: 200px;""></button>","0","red","yellow","[""red"",""yellow"",""high nameability""]","left-right","[""red"",""yellow"",""high nameability""]","4","high nameability","40","left","response","1"
"html-audio-button-response","193","292735","0.0-147.0-1.0","CKN_124","124","","","","","","null","stimuli/bleep.m4a","null","red","yellow","[""red"",""yellow"",""high nameability""]","left-right","[""red"",""yellow"",""high nameability""]","4","high nameability","40","left","audio_feedback","1"
"html-button-response","194","293248","0.0-148.0","CKN_124","124","","","","","","null","<button class=""jspsych-btn""><img src=""stimuli/white_square.png"" style=""width: 200px;height: 200px;""></button>","null","red","yellow","[""red"",""yellow"",""high nameability""]","left-right","[""red"",""yellow"",""high nameability""]","4","high nameability","40","left","iti",""
"pavlovia","195","293320","0.0-149.0","CKN_124","124","","","","","","","","","","","","","","","","","","",""
"pavlovia","196","293332","0.0-150.0","CKN_124","124","","","","","","","","","","","","","","","","","","",""
"html-audio-button-response","197","300184","0.0-151.0","CKN_124","124","","","","","","6936","stimuli/tada.m4a","0","","","","","","","","","","",""
"html-button-response","198","300708","0.0-152.0","CKN_124","124","","","","","","519","","0","","","","","","","","","","",""
"html-button-response","199","303453","0.0-153.0","CKN_124","124","","","","","","2739","","0","pink","lightred","[""pink"",""lightred"",""low nameability""]","right-left","[""lightred"",""pink""]","5","low nameability","41","right","trigger",""
"html-button-response","200","306846","0.0-154.0-0.0","CKN_124","124","","","","","","3386","<button class=""jspsych-btn""><img src=""stimuli/pink.png"" style=""width: 200px;height: 200px;""></button>","1","pink","lightred","[""pink"",""lightred"",""low nameability""]","right-left","[""lightred"",""pink""]","5","low nameability","41","right","response","1"
"html-audio-button-response","201","307047","0.0-154.0-1.0","CKN_124","124","","","","","","null","stimuli/bleep.m4a","null","pink","lightred","[""pink"",""lightred"",""low nameability""]","right-left","[""lightred"",""pink""]","5","low nameability","41","right","audio_feedback","1"
"html-button-response","202","307558","0.0-155.0","CKN_124","124","","","","","","null","<button class=""jspsych-btn""><img src=""stimuli/white_square.png"" style=""width: 200px;height: 200px;""></button>","null","pink","lightred","[""pink"",""lightred"",""low nameability""]","right-left","[""lightred"",""pink""]","5","low nameability","41","right","iti",""
"html-button-response","203","309806","0.0-156.0","CKN_124","124","","","","","","2235","","0","darkgreenblue","lightred","[""darkgreenblue"",""lightred"",""low nameability""]","left-right","[""darkgreenblue"",""lightred"",""low nameability""]","5","low nameability","42","left","trigger",""
"html-button-response","204","310823","0.0-157.0-0.0","CKN_124","124","","","","","","1012","<button class=""jspsych-btn""><img src=""stimuli/darkgreenblue.png"" style=""width: 200px;height: 200px;""></button>","0","darkgreenblue","lightred","[""darkgreenblue"",""lightred"",""low nameability""]","left-right","[""darkgreenblue"",""lightred"",""low nameability""]","5","low nameability","42","left","response","1"
"html-audio-button-response","205","311022","0.0-157.0-1.0","CKN_124","124","","","","","","null","stimuli/bleep.m4a","null","darkgreenblue","lightred","[""darkgreenblue"",""lightred"",""low nameability""]","left-right","[""darkgreenblue"",""lightred"",""low nameability""]","5","low nameability","42","left","audio_feedback","1"
"html-button-response","206","311542","0.0-158.0","CKN_124","124","","","","","","null","<button class=""jspsych-btn""><img src=""stimuli/white_square.png"" style=""width: 200px;height: 200px;""></button>","null","darkgreenblue","lightred","[""darkgreenblue"",""lightred"",""low nameability""]","left-right","[""darkgreenblue"",""lightred"",""low nameability""]","5","low nameability","42","left","iti",""
"html-button-response","207","314013","0.0-159.0","CKN_124","124","","","","","","2460","","0","pink","neonyellow","[""pink"",""neonyellow"",""low nameability""]","right-left","[""neonyellow"",""pink""]","5","low nameability","43","right","trigger",""
"html-button-response","208","315831","0.0-160.0-0.0","CKN_124","124","","","","","","1811","<button class=""jspsych-btn""><img src=""stimuli/pink.png"" style=""width: 200px;height: 200px;""></button>","1","pink","neonyellow","[""pink"",""neonyellow"",""low nameability""]","right-left","[""neonyellow"",""pink""]","5","low nameability","43","right","response","1"
"html-audio-button-response","209","316039","0.0-160.0-1.0","CKN_124","124","","","","","","null","stimuli/bleep.m4a","null","pink","neonyellow","[""pink"",""neonyellow"",""low nameability""]","right-left","[""neonyellow"",""pink""]","5","low nameability","43","right","audio_feedback","1"
"html-button-response","210","316566","0.0-161.0","CKN_124","124","","","","","","null","<button class=""jspsych-btn""><img src=""stimuli/white_square.png"" style=""width: 200px;height: 200px;""></button>","null","pink","neonyellow","[""pink"",""neonyellow"",""low nameability""]","right-left","[""neonyellow"",""pink""]","5","low nameability","43","right","iti",""
"html-button-response","211","317304","0.0-162.0","CKN_124","124","","","","","","724","","0","pink","turquoise","[""pink"",""turquoise"",""low nameability""]","right-left","[""turquoise"",""pink""]","5","low nameability","44","right","trigger",""
"html-button-response","212","319923","0.0-163.0-0.0","CKN_124","124","","","","","","2613","<button class=""jspsych-btn""><img src=""stimuli/pink.png"" style=""width: 200px;height: 200px;""></button>","1","pink","turquoise","[""pink"",""turquoise"",""low nameability""]","right-left","[""turquoise"",""pink""]","5","low nameability","44","right","response","1"
"html-audio-button-response","213","320126","0.0-163.0-1.0","CKN_124","124","","","","","","null","stimuli/bleep.m4a","null","pink","turquoise","[""pink"",""turquoise"",""low nameability""]","right-left","[""turquoise"",""pink""]","5","low nameability","44","right","audio_feedback","1"
"html-button-response","214","320641","0.0-164.0","CKN_124","124","","","","","","null","<button class=""jspsych-btn""><img src=""stimuli/white_square.png"" style=""width: 200px;height: 200px;""></button>","null","pink","turquoise","[""pink"",""turquoise"",""low nameability""]","right-left","[""turquoise"",""pink""]","5","low nameability","44","right","iti",""
"html-button-response","215","322782","0.0-165.0","CKN_124","124","","","","","","2115","","0","brown","purple","[""brown"",""purple"",""high nameability""]","right-left","[""purple"",""brown""]","5","high nameability","45","right","trigger",""
"html-button-response","216","325722","0.0-166.0-0.0","CKN_124","124","","","","","","2932","<button class=""jspsych-btn""><img src=""stimuli/brown.png"" style=""width: 200px;height: 200px;""></button>","1","brown","purple","[""brown"",""purple"",""high nameability""]","right-left","[""purple"",""brown""]","5","high nameability","45","right","response","1"
"html-audio-button-response","217","325926","0.0-166.0-1.0","CKN_124","124","","","","","","null","stimuli/bleep.m4a","null","brown","purple","[""brown"",""purple"",""high nameability""]","right-left","[""purple"",""brown""]","5","high nameability","45","right","audio_feedback","1"
"html-button-response","218","326446","0.0-167.0","CKN_124","124","","","","","","null","<button class=""jspsych-btn""><img src=""stimuli/white_square.png"" style=""width: 200px;height: 200px;""></button>","null","brown","purple","[""brown"",""purple"",""high nameability""]","right-left","[""purple"",""brown""]","5","high nameability","45","right","iti",""
"html-button-response","219","327752","0.0-168.0","CKN_124","124","","","","","","1297","","0","mustard","pink","[""mustard"",""pink"",""low nameability""]","left-right","[""mustard"",""pink"",""low nameability""]","5","low nameability","46","left","trigger",""
"html-button-response","220","329729","0.0-169.0-0.0","CKN_124","124","","","","","","1970","<button class=""jspsych-btn""><img src=""stimuli/mustard.png"" style=""width: 200px;height: 200px;""></button>","0","mustard","pink","[""mustard"",""pink"",""low nameability""]","left-right","[""mustard"",""pink"",""low nameability""]","5","low nameability","46","left","response","1"
"html-audio-button-response","221","329934","0.0-169.0-1.0","CKN_124","124","","","","","","null","stimuli/bleep.m4a","null","mustard","pink","[""mustard"",""pink"",""low nameability""]","left-right","[""mustard"",""pink"",""low nameability""]","5","low nameability","46","left","audio_feedback","1"
"html-button-response","222","330448","0.0-170.0","CKN_124","124","","","","","","null","<button class=""jspsych-btn""><img src=""stimuli/white_square.png"" style=""width: 200px;height: 200px;""></button>","null","mustard","pink","[""mustard"",""pink"",""low nameability""]","left-right","[""mustard"",""pink"",""low nameability""]","5","low nameability","46","left","iti",""
"html-button-response","223","331453","0.0-171.0","CKN_124","124","","","","","","997","","0","darkgreenblue","neonyellow","[""darkgreenblue"",""neonyellow"",""low nameability""]","right-left","[""neonyellow"",""darkgreenblue""]","5","low nameability","47","right","trigger",""
"html-button-response","224","332626","0.0-172.0-0.0","CKN_124","124","","","","","","1165","<button class=""jspsych-btn""><img src=""stimuli/darkgreenblue.png"" style=""width: 200px;height: 200px;""></button>","1","darkgreenblue","neonyellow","[""darkgreenblue"",""neonyellow"",""low nameability""]","right-left","[""neonyellow"",""darkgreenblue""]","5","low nameability","47","right","response","1"
"html-audio-button-response","225","332830","0.0-172.0-1.0","CKN_124","124","","","","","","null","stimuli/bleep.m4a","null","darkgreenblue","neonyellow","[""darkgreenblue"",""neonyellow"",""low nameability""]","right-left","[""neonyellow"",""darkgreenblue""]","5","low nameability","47","right","audio_feedback","1"
"html-button-response","226","333339","0.0-173.0","CKN_124","124","","","","","","null","<button class=""jspsych-btn""><img src=""stimuli/white_square.png"" style=""width: 200px;height: 200px;""></button>","null","darkgreenblue","neonyellow","[""darkgreenblue"",""neonyellow"",""low nameability""]","right-left","[""neonyellow"",""darkgreenblue""]","5","low nameability","47","right","iti",""
"html-button-response","227","335056","0.0-174.0","CKN_124","124","","","","","","1710","","0","brown","red","[""brown"",""red"",""high nameability""]","left-right","[""brown"",""red"",""high nameability""]","5","high nameability","48","left","trigger",""
"html-button-response","228","338335","0.0-175.0-0.0","CKN_124","124","","","","","","3274","<button class=""jspsych-btn""><img src=""stimuli/brown.png"" style=""width: 200px;height: 200px;""></button>","0","brown","red","[""brown"",""red"",""high nameability""]","left-right","[""brown"",""red"",""high nameability""]","5","high nameability","48","left","response","1"
"html-audio-button-response","229","338545","0.0-175.0-1.0","CKN_124","124","","","","","","null","stimuli/bleep.m4a","null","brown","red","[""brown"",""red"",""high nameability""]","left-right","[""brown"",""red"",""high nameability""]","5","high nameability","48","left","audio_feedback","1"
"html-button-response","230","339055","0.0-176.0","CKN_124","124","","","","","","null","<button class=""jspsych-btn""><img src=""stimuli/white_square.png"" style=""width: 200px;height: 200px;""></button>","null","brown","red","[""brown"",""red"",""high nameability""]","left-right","[""brown"",""red"",""high nameability""]","5","high nameability","48","left","iti",""
"html-button-response","231","339838","0.0-177.0","CKN_124","124","","","","","","776","","0","red","brown","[""red"",""brown"",""high nameability""]","right-left","[""brown"",""red""]","5","high nameability","49","right","trigger",""
"html-button-response","232","341816","0.0-178.0-0.0","CKN_124","124","","","","","","1972","<button class=""jspsych-btn""><img src=""stimuli/red.png"" style=""width: 200px;height: 200px;""></button>","1","red","brown","[""red"",""brown"",""high nameability""]","right-left","[""brown"",""red""]","5","high nameability","49","right","response","1"
"html-audio-button-response","233","342025","0.0-178.0-1.0","CKN_124","124","","","","","","null","stimuli/bleep.m4a","null","red","brown","[""red"",""brown"",""high nameability""]","right-left","[""brown"",""red""]","5","high nameability","49","right","audio_feedback","1"
"html-button-response","234","342563","0.0-179.0","CKN_124","124","","","","","","null","<button class=""jspsych-btn""><img src=""stimuli/white_square.png"" style=""width: 200px;height: 200px;""></button>","null","red","brown","[""red"",""brown"",""high nameability""]","right-left","[""brown"",""red""]","5","high nameability","49","right","iti",""
"html-button-response","235","344402","0.0-180.0","CKN_124","124","","","","","","1792","","0","yellow","orange","[""yellow"",""orange"",""high nameability""]","right-left","[""orange"",""yellow""]","5","high nameability","50","right","trigger",""
"html-button-response","236","347574","0.0-181.0-0.0","CKN_124","124","","","","","","3157","<button class=""jspsych-btn""><img src=""stimuli/yellow.png"" style=""width: 200px;height: 200px;""></button>","1","yellow","orange","[""yellow"",""orange"",""high nameability""]","right-left","[""orange"",""yellow""]","5","high nameability","50","right","response","1"
"html-audio-button-response","237","347786","0.0-181.0-1.0","CKN_124","124","","","","","","null","stimuli/bleep.m4a","null","yellow","orange","[""yellow"",""orange"",""high nameability""]","right-left","[""orange"",""yellow""]","5","high nameability","50","right","audio_feedback","1"
"html-button-response","238","348306","0.0-182.0","CKN_124","124","","","","","","193","<button class=""jspsych-btn""><img src=""stimuli/white_square.png"" style=""width: 200px;height: 200px;""></button>","1","yellow","orange","[""yellow"",""orange"",""high nameability""]","right-left","[""orange"",""yellow""]","5","high nameability","50","right","iti",""
"pavlovia","239","348348","0.0-183.0","CKN_124","124","","","","","","","","","","","","","","","","","","",""
"pavlovia","240","348357","0.0-184.0","CKN_124","124","","","","","","","","","","","","","","","","","","",""
"html-audio-button-response","241","351679","0.0-185.0","CKN_124","124","","","","","","3368","stimuli/tada.m4a","0","","","","","","","","","","",""
"html-button-response","242","352312","0.0-186.0","CKN_124","124","","","","","","629","","0","","","","","","","","","","",""
"html-button-response","243","357729","0.0-187.0","CKN_124","124","","","","","","5411","","0","pink","mustard","[""pink"",""mustard"",""low nameability""]","left-right","[""pink"",""mustard"",""low nameability""]","6","low nameability","51","left","trigger",""
"html-button-response","244","359345","0.0-188.0-0.0","CKN_124","124","","","","","","1608","<button class=""jspsych-btn""><img src=""stimuli/pink.png"" style=""width: 200px;height: 200px;""></button>","0","pink","mustard","[""pink"",""mustard"",""low nameability""]","left-right","[""pink"",""mustard"",""low nameability""]","6","low nameability","51","left","response","1"
"html-audio-button-response","245","359555","0.0-188.0-1.0","CKN_124","124","","","","","","null","stimuli/bleep.m4a","null","pink","mustard","[""pink"",""mustard"",""low nameability""]","left-right","[""pink"",""mustard"",""low nameability""]","6","low nameability","51","left","audio_feedback","1"
"html-button-response","246","360070","0.0-189.0","CKN_124","124","","","","","","null","<button class=""jspsych-btn""><img src=""stimuli/white_square.png"" style=""width: 200px;height: 200px;""></button>","null","pink","mustard","[""pink"",""mustard"",""low nameability""]","left-right","[""pink"",""mustard"",""low nameability""]","6","low nameability","51","left","iti",""
"html-button-response","247","361436","0.0-190.0","CKN_124","124","","","","","","1359","","0","lightred","mustard","[""lightred"",""mustard"",""low nameability""]","left-right","[""lightred"",""mustard"",""low nameability""]","6","low nameability","52","left","trigger",""
"html-button-response","248","363147","0.0-191.0-0.0","CKN_124","124","","","","","","1705","<button class=""jspsych-btn""><img src=""stimuli/lightred.png"" style=""width: 200px;height: 200px;""></button>","0","lightred","mustard","[""lightred"",""mustard"",""low nameability""]","left-right","[""lightred"",""mustard"",""low nameability""]","6","low nameability","52","left","response","1"
"html-audio-button-response","249","363350","0.0-191.0-1.0","CKN_124","124","","","","","","null","stimuli/bleep.m4a","null","lightred","mustard","[""lightred"",""mustard"",""low nameability""]","left-right","[""lightred"",""mustard"",""low nameability""]","6","low nameability","52","left","audio_feedback","1"
"html-button-response","250","363867","0.0-192.0","CKN_124","124","","","","","","null","<button class=""jspsych-btn""><img src=""stimuli/white_square.png"" style=""width: 200px;height: 200px;""></button>","null","lightred","mustard","[""lightred"",""mustard"",""low nameability""]","left-right","[""lightred"",""mustard"",""low nameability""]","6","low nameability","52","left","iti",""
"html-button-response","251","366637","0.0-193.0","CKN_124","124","","","","","","2760","","0","darkgreenblue","mustard","[""darkgreenblue"",""mustard"",""low nameability""]","right-left","[""mustard"",""darkgreenblue""]","6","low nameability","53","right","trigger",""
"html-button-response","252","368452","0.0-194.0-0.0","CKN_124","124","","","","","","1809","<button class=""jspsych-btn""><img src=""stimuli/darkgreenblue.png"" style=""width: 200px;height: 200px;""></button>","1","darkgreenblue","mustard","[""darkgreenblue"",""mustard"",""low nameability""]","right-left","[""mustard"",""darkgreenblue""]","6","low nameability","53","right","response","1"
"html-audio-button-response","253","368656","0.0-194.0-1.0","CKN_124","124","","","","","","null","stimuli/bleep.m4a","null","darkgreenblue","mustard","[""darkgreenblue"",""mustard"",""low nameability""]","right-left","[""mustard"",""darkgreenblue""]","6","low nameability","53","right","audio_feedback","1"
"html-button-response","254","369170","0.0-195.0","CKN_124","124","","","","","","194","<button class=""jspsych-btn""><img src=""stimuli/white_square.png"" style=""width: 200px;height: 200px;""></button>","1","darkgreenblue","mustard","[""darkgreenblue"",""mustard"",""low nameability""]","right-left","[""mustard"",""darkgreenblue""]","6","low nameability","53","right","iti",""
"html-button-response","255","371903","0.0-196.0","CKN_124","124","","","","","","2723","","0","orange","brown","[""orange"",""brown"",""high nameability""]","left-right","[""orange"",""brown"",""high nameability""]","6","high nameability","54","left","trigger",""
"html-button-response","256","378187","0.0-197.0-0.0","CKN_124","124","","","","","","6277","<button class=""jspsych-btn""><img src=""stimuli/orange.png"" style=""width: 200px;height: 200px;""></button>","0","orange","brown","[""orange"",""brown"",""high nameability""]","left-right","[""orange"",""brown"",""high nameability""]","6","high nameability","54","left","response","1"
"html-audio-button-response","257","378390","0.0-197.0-1.0","CKN_124","124","","","","","","null","stimuli/bleep.m4a","null","orange","brown","[""orange"",""brown"",""high nameability""]","left-right","[""orange"",""brown"",""high nameability""]","6","high nameability","54","left","audio_feedback","1"
"html-button-response","258","378898","0.0-198.0","CKN_124","124","","","","","","null","<button class=""jspsych-btn""><img src=""stimuli/white_square.png"" style=""width: 200px;height: 200px;""></button>","null","orange","brown","[""orange"",""brown"",""high nameability""]","left-right","[""orange"",""brown"",""high nameability""]","6","high nameability","54","left","iti",""
"html-button-response","259","381298","0.0-199.0","CKN_124","124","","","","","","2392","","0","turquoise","mustard","[""turquoise"",""mustard"",""low nameability""]","right-left","[""mustard"",""turquoise""]","6","low nameability","55","right","trigger",""
"html-button-response","260","382764","0.0-200.0-0.0","CKN_124","124","","","","","","1459","<button class=""jspsych-btn""><img src=""stimuli/turquoise.png"" style=""width: 200px;height: 200px;""></button>","1","turquoise","mustard","[""turquoise"",""mustard"",""low nameability""]","right-left","[""mustard"",""turquoise""]","6","low nameability","55","right","response","1"
"html-audio-button-response","261","382967","0.0-200.0-1.0","CKN_124","124","","","","","","null","stimuli/bleep.m4a","null","turquoise","mustard","[""turquoise"",""mustard"",""low nameability""]","right-left","[""mustard"",""turquoise""]","6","low nameability","55","right","audio_feedback","1"
"html-button-response","262","383481","0.0-201.0","CKN_124","124","","","","","","null","<button class=""jspsych-btn""><img src=""stimuli/white_square.png"" style=""width: 200px;height: 200px;""></button>","null","turquoise","mustard","[""turquoise"",""mustard"",""low nameability""]","right-left","[""mustard"",""turquoise""]","6","low nameability","55","right","iti",""
"html-button-response","263","384358","0.0-202.0","CKN_124","124","","","","","","865","","0","purple","yellow","[""purple"",""yellow"",""high nameability""]","left-right","[""purple"",""yellow"",""high nameability""]","6","high nameability","56","left","trigger",""
"html-button-response","264","385505","0.0-203.0-0.0","CKN_124","124","","","","","","1141","<button class=""jspsych-btn""><img src=""stimuli/purple.png"" style=""width: 200px;height: 200px;""></button>","0","purple","yellow","[""purple"",""yellow"",""high nameability""]","left-right","[""purple"",""yellow"",""high nameability""]","6","high nameability","56","left","response","1"
"html-audio-button-response","265","385711","0.0-203.0-1.0","CKN_124","124","","","","","","null","stimuli/bleep.m4a","null","purple","yellow","[""purple"",""yellow"",""high nameability""]","left-right","[""purple"",""yellow"",""high nameability""]","6","high nameability","56","left","audio_feedback","1"
"html-button-response","266","386246","0.0-204.0","CKN_124","124","","","","","","null","<button class=""jspsych-btn""><img src=""stimuli/white_square.png"" style=""width: 200px;height: 200px;""></button>","null","purple","yellow","[""purple"",""yellow"",""high nameability""]","left-right","[""purple"",""yellow"",""high nameability""]","6","high nameability","56","left","iti",""
"html-button-response","267","389904","0.0-205.0","CKN_124","124","","","","","","3644","","0","turquoise","darkgreenblue","[""turquoise"",""darkgreenblue"",""low nameability""]","left-right","[""turquoise"",""darkgreenblue"",""low nameability""]","6","low nameability","57","left","trigger",""
"html-button-response","268","392850","0.0-206.0-0.0","CKN_124","124","","","","","","2938","<button class=""jspsych-btn""><img src=""stimuli/turquoise.png"" style=""width: 200px;height: 200px;""></button>","0","turquoise","darkgreenblue","[""turquoise"",""darkgreenblue"",""low nameability""]","left-right","[""turquoise"",""darkgreenblue"",""low nameability""]","6","low nameability","57","left","response","1"
"html-audio-button-response","269","393057","0.0-206.0-1.0","CKN_124","124","","","","","","null","stimuli/bleep.m4a","null","turquoise","darkgreenblue","[""turquoise"",""darkgreenblue"",""low nameability""]","left-right","[""turquoise"",""darkgreenblue"",""low nameability""]","6","low nameability","57","left","audio_feedback","1"
"html-button-response","270","393574","0.0-207.0","CKN_124","124","","","","","","null","<button class=""jspsych-btn""><img src=""stimuli/white_square.png"" style=""width: 200px;height: 200px;""></button>","null","turquoise","darkgreenblue","[""turquoise"",""darkgreenblue"",""low nameability""]","left-right","[""turquoise"",""darkgreenblue"",""low nameability""]","6","low nameability","57","left","iti",""
"html-button-response","271","394360","0.0-208.0","CKN_124","124","","","","","","781","","0","turquoise","neonyellow","[""turquoise"",""neonyellow"",""low nameability""]","left-right","[""turquoise"",""neonyellow"",""low nameability""]","6","low nameability","58","left","trigger",""
"html-button-response","272","396959","0.0-209.0-0.0","CKN_124","124","","","","","","2595","<button class=""jspsych-btn""><img src=""stimuli/turquoise.png"" style=""width: 200px;height: 200px;""></button>","0","turquoise","neonyellow","[""turquoise"",""neonyellow"",""low nameability""]","left-right","[""turquoise"",""neonyellow"",""low nameability""]","6","low nameability","58","left","response","1"
"html-audio-button-response","273","397167","0.0-209.0-1.0","CKN_124","124","","","","","","null","stimuli/bleep.m4a","null","turquoise","neonyellow","[""turquoise"",""neonyellow"",""low nameability""]","left-right","[""turquoise"",""neonyellow"",""low nameability""]","6","low nameability","58","left","audio_feedback","1"
"html-button-response","274","397684","0.0-210.0","CKN_124","124","","","","","","null","<button class=""jspsych-btn""><img src=""stimuli/white_square.png"" style=""width: 200px;height: 200px;""></button>","null","turquoise","neonyellow","[""turquoise"",""neonyellow"",""low nameability""]","left-right","[""turquoise"",""neonyellow"",""low nameability""]","6","low nameability","58","left","iti",""
"html-button-response","275","399479","0.0-211.0","CKN_124","124","","","","","","1781","","0","orange","purple","[""orange"",""purple"",""high nameability""]","right-left","[""purple"",""orange""]","6","high nameability","59","right","trigger",""
"html-button-response","276","401785","0.0-212.0-0.0","CKN_124","124","","","","","","2301","<button class=""jspsych-btn""><img src=""stimuli/orange.png"" style=""width: 200px;height: 200px;""></button>","1","orange","purple","[""orange"",""purple"",""high nameability""]","right-left","[""purple"",""orange""]","6","high nameability","59","right","response","1"
"html-audio-button-response","277","401998","0.0-212.0-1.0","CKN_124","124","","","","","","null","stimuli/bleep.m4a","null","orange","purple","[""orange"",""purple"",""high nameability""]","right-left","[""purple"",""orange""]","6","high nameability","59","right","audio_feedback","1"
"html-button-response","278","402513","0.0-213.0","CKN_124","124","","","","","","75","<button class=""jspsych-btn""><img src=""stimuli/white_square.png"" style=""width: 200px;height: 200px;""></button>","1","orange","purple","[""orange"",""purple"",""high nameability""]","right-left","[""purple"",""orange""]","6","high nameability","59","right","iti",""
"html-button-response","279","404089","0.0-214.0","CKN_124","124","","","","","","1567","","0","orange","red","[""orange"",""red"",""high nameability""]","left-right","[""orange"",""red"",""high nameability""]","6","high nameability","60","left","trigger",""
"html-button-response","280","406201","0.0-215.0-0.0","CKN_124","124","","","","","","2105","<button class=""jspsych-btn""><img src=""stimuli/orange.png"" style=""width: 200px;height: 200px;""></button>","0","orange","red","[""orange"",""red"",""high nameability""]","left-right","[""orange"",""red"",""high nameability""]","6","high nameability","60","left","response","1"
"html-audio-button-response","281","406404","0.0-215.0-1.0","CKN_124","124","","","","","","null","stimuli/bleep.m4a","null","orange","red","[""orange"",""red"",""high nameability""]","left-right","[""orange"",""red"",""high nameability""]","6","high nameability","60","left","audio_feedback","1"
"html-button-response","282","406914","0.0-216.0","CKN_124","124","","","","","","null","<button class=""jspsych-btn""><img src=""stimuli/white_square.png"" style=""width: 200px;height: 200px;""></button>","null","orange","red","[""orange"",""red"",""high nameability""]","left-right","[""orange"",""red"",""high nameability""]","6","high nameability","60","left","iti",""
