"trial_type","trial_index","time_elapsed","internal_node_id","subject_id","seed","success","timeout","failed_images","failed_audio","failed_video","rt","stimulus","response","target","foil","choices","combination_order","choices_in_order","round","condition","trial_counter","target_location","trial_kind","correct"
"pavlovia","0","18","0.0-0.0","CKN_101","101","","","","","","","","","","","","","","","","","","",""
"preload","1","3148","0.0-1.0","CKN_101","101","true","false","[]","[]","[]","","","","","","","","","","","","","",""
"fullscreen","2","6118","0.0-2.0","CKN_101","101","true","","","","","","","","","","","","","","","","","",""
"html-button-response","3","46225","0.0-3.0","CKN_101","101","","","","","","40081","","0","","","","","","","","","","",""
"html-button-response","4","51781","0.0-4.0","CKN_101","101","","","","","","5541","","0","star","square","[""square"",""star""]","left-right","[""square"",""star""]","1","practice","1","right","trigger",""
"html-button-response","5","64004","0.0-5.0-0.0","CKN_101","101","","","","","","12209","<button class=""jspsych-btn""><img src=""stimuli/star.png"" style=""width: 200px;height: 200px;""></button>","0","star","square","[""square"",""star""]","left-right","[""square"",""star""]","1","practice","1","right","response","0"
"html-audio-button-response","6","64636","0.0-5.0-1.0","CKN_101","101","","","","","","null","stimuli/boing.m4a","null","star","square","[""square"",""star""]","left-right","[""square"",""star""]","1","practice","1","right","audio_feedback","0"
"html-button-response","7","75549","0.0-5.1-0.1","CKN_101","101","","","","","","10890","<button class=""jspsych-btn""><img src=""stimuli/star.png"" style=""width: 200px;height: 200px;""></button>","1","star","square","[""square"",""star""]","left-right","[""square"",""star""]","1","practice","1","right","response","1"
"html-audio-button-response","8","75757","0.0-5.1-1.1","CKN_101","101","","","","","","null","stimuli/bleep.m4a","null","star","square","[""square"",""star""]","left-right","[""square"",""star""]","1","practice","1","right","audio_feedback","1"
"html-button-response","9","76282","0.0-6.0","CKN_101","101","","","","","","null","<button class=""jspsych-btn""><img src=""stimuli/white_square.png"" style=""width: 200px;height: 200px;""></button>","null","star","square","[""square"",""star""]","left-right","[""square"",""star""]","1","practice","1","right","iti",""
"html-button-response","10","79490","0.0-7.0","CKN_101","101","","","","","","3195","","0","triangle","pentagram","[""triangle"",""pentagram""]","left-right","[""triangle"",""pentagram""]","1","practice","1","left","trigger",""
"html-button-response","11","84739","0.0-8.0-0.0","CKN_101","101","","","","","","5239","<button class=""jspsych-btn""><img src=""stimuli/triangle.png"" style=""width: 200px;height: 200px;""></button>","1","triangle","pentagram","[""triangle"",""pentagram""]","left-right","[""triangle"",""pentagram""]","1","practice","1","left","response","0"
"html-audio-button-response","12","85373","0.0-8.0-1.0","CKN_101","101","","","","","","null","stimuli/boing.m4a","null","triangle","pentagram","[""triangle"",""pentagram""]","left-right","[""triangle"",""pentagram""]","1","practice","1","left","audio_feedback","0"
"html-button-response","13","92606","0.0-8.1-0.1","CKN_101","101","","","","","","7218","<button class=""jspsych-btn""><img src=""stimuli/triangle.png"" style=""width: 200px;height: 200px;""></button>","0","triangle","pentagram","[""triangle"",""pentagram""]","left-right","[""triangle"",""pentagram""]","1","practice","1","left","response","1"
"html-audio-button-response","14","92814","0.0-8.1-1.1","CKN_101","101","","","","","","null","stimuli/bleep.m4a","null","triangle","pentagram","[""triangle"",""pentagram""]","left-right","[""triangle"",""pentagram""]","1","practice","1","left","audio_feedback","1"
"html-button-response","15","93328","0.0-9.0","CKN_101","101","","","","","","null","<button class=""jspsych-btn""><img src=""stimuli/white_square.png"" style=""width: 200px;height: 200px;""></button>","null","triangle","pentagram","[""triangle"",""pentagram""]","left-right","[""triangle"",""pentagram""]","1","practice","1","left","iti",""
"html-button-response","16","95238","0.0-10.0","CKN_101","101","","","","","","1898","","0","diamond","rectangle","[""rectangle"",""diamond""]","left-right","[""rectangle"",""diamond""]","1","practice","1","right","trigger",""
"html-button-response","17","98289","0.0-11.0-0.0","CKN_101","101","","","","","","3043","<button class=""jspsych-btn""><img src=""stimuli/diamond.png"" style=""width: 200px;height: 200px;""></button>","0","diamond","rectangle","[""rectangle"",""diamond""]","left-right","[""rectangle"",""diamond""]","1","practice","1","right","response","0"
"html-audio-button-response","18","98926","0.0-11.0-1.0","CKN_101","101","","","","","","null","stimuli/boing.m4a","null","diamond","rectangle","[""rectangle"",""diamond""]","left-right","[""rectangle"",""diamond""]","1","practice","1","right","audio_feedback","0"
"html-button-response","19","100803","0.0-11.1-0.1","CKN_101","101","","","","","","1855","<button class=""jspsych-btn""><img src=""stimuli/diamond.png"" style=""width: 200px;height: 200px;""></button>","1","diamond","rectangle","[""rectangle"",""diamond""]","left-right","[""rectangle"",""diamond""]","1","practice","1","right","response","1"
"html-audio-button-response","20","101011","0.0-11.1-1.1","CKN_101","101","","","","","","null","stimuli/bleep.m4a","null","diamond","rectangle","[""rectangle"",""diamond""]","left-right","[""rectangle"",""diamond""]","1","practice","1","right","audio_feedback","1"
"html-button-response","21","101526","0.0-12.0","CKN_101","101","","","","","","null","<button class=""jspsych-btn""><img src=""stimuli/white_square.png"" style=""width: 200px;height: 200px;""></button>","null","diamond","rectangle","[""rectangle"",""diamond""]","left-right","[""rectangle"",""diamond""]","1","practice","1","right","iti",""
"html-button-response","22","103609","0.0-13.0","CKN_101","101","","","","","","2071","","0","pentagram","star","[""pentagram"",""star""]","left-right","[""pentagram"",""star""]","1","practice","1","left","trigger",""
"html-button-response","23","109122","0.0-14.0-0.0","CKN_101","101","","","","","","5504","<button class=""jspsych-btn""><img src=""stimuli/pentagram.png"" style=""width: 200px;height: 200px;""></button>","1","pentagram","star","[""pentagram"",""star""]","left-right","[""pentagram"",""star""]","1","practice","1","left","response","0"
"html-audio-button-response","24","109745","0.0-14.0-1.0","CKN_101","101","","","","","","null","stimuli/boing.m4a","null","pentagram","star","[""pentagram"",""star""]","left-right","[""pentagram"",""star""]","1","practice","1","left","audio_feedback","0"
"html-button-response","25","111852","0.0-14.1-0.1","CKN_101","101","","","","","","2094","<button class=""jspsych-btn""><img src=""stimuli/pentagram.png"" style=""width: 200px;height: 200px;""></button>","0","pentagram","star","[""pentagram"",""star""]","left-right","[""pentagram"",""star""]","1","practice","1","left","response","1"
"html-audio-button-response","26","112052","0.0-14.1-1.1","CKN_101","101","","","","","","null","stimuli/bleep.m4a","null","pentagram","star","[""pentagram"",""star""]","left-right","[""pentagram"",""star""]","1","practice","1","left","audio_feedback","1"
"html-button-response","27","112568","0.0-15.0","CKN_101","101","","","","","","null","<button class=""jspsych-btn""><img src=""stimuli/white_square.png"" style=""width: 200px;height: 200px;""></button>","null","pentagram","star","[""pentagram"",""star""]","left-right","[""pentagram"",""star""]","1","practice","1","left","iti",""
"html-button-response","28","125216","0.0-16.0","CKN_101","101","","","","","","12630","","0","","","","","","","","","","",""
"html-button-response","29","127283","0.0-17.0","CKN_101","101","","","","","","2058","","0","pink","darkgreenblue","[""pink"",""darkgreenblue"",""low nameability""]","left-right","[""pink"",""darkgreenblue"",""low nameability""]","1","low nameability","1","left","trigger",""
"html-button-response","30","130106","0.0-18.0-0.0","CKN_101","101","","","","","","2816","<button class=""jspsych-btn""><img src=""stimuli/pink.png"" style=""width: 200px;height: 200px;""></button>","1","pink","darkgreenblue","[""pink"",""darkgreenblue"",""low nameability""]","left-right","[""pink"",""darkgreenblue"",""low nameability""]","1","low nameability","1","left","response","0"
"html-audio-button-response","31","130739","0.0-18.0-1.0","CKN_101","101","","","","","","null","stimuli/boing.m4a","null","pink","darkgreenblue","[""pink"",""darkgreenblue"",""low nameability""]","left-right","[""pink"",""darkgreenblue"",""low nameability""]","1","low nameability","1","left","audio_feedback","0"
"html-button-response","32","131173","0.0-18.1-0.1","CKN_101","101","","","","","","418","<button class=""jspsych-btn""><img src=""stimuli/pink.png"" style=""width: 200px;height: 200px;""></button>","0","pink","darkgreenblue","[""pink"",""darkgreenblue"",""low nameability""]","left-right","[""pink"",""darkgreenblue"",""low nameability""]","1","low nameability","1","left","response","1"
"html-audio-button-response","33","131371","0.0-18.1-1.1","CKN_101","101","","","","","","null","stimuli/bleep.m4a","null","pink","darkgreenblue","[""pink"",""darkgreenblue"",""low nameability""]","left-right","[""pink"",""darkgreenblue"",""low nameability""]","1","low nameability","1","left","audio_feedback","1"
"html-button-response","34","131882","0.0-19.0","CKN_101","101","","","","","","null","<button class=""jspsych-btn""><img src=""stimuli/white_square.png"" style=""width: 200px;height: 200px;""></button>","null","pink","darkgreenblue","[""pink"",""darkgreenblue"",""low nameability""]","left-right","[""pink"",""darkgreenblue"",""low nameability""]","1","low nameability","1","left","iti",""
"html-button-response","35","134226","0.0-20.0","CKN_101","101","","","","","","2332","","0","yellow","red","[""yellow"",""red"",""high nameability""]","right-left","[""red"",""yellow""]","1","high nameability","2","right","trigger",""
"html-button-response","36","136749","0.0-21.0-0.0","CKN_101","101","","","","","","2515","<button class=""jspsych-btn""><img src=""stimuli/yellow.png"" style=""width: 200px;height: 200px;""></button>","0","yellow","red","[""yellow"",""red"",""high nameability""]","right-left","[""red"",""yellow""]","1","high nameability","2","right","response","0"
"html-audio-button-response","37","137386","0.0-21.0-1.0","CKN_101","101","","","","","","null","stimuli/boing.m4a","null","yellow","red","[""yellow"",""red"",""high nameability""]","right-left","[""red"",""yellow""]","1","high nameability","2","right","audio_feedback","0"
"html-button-response","38","137475","0.0-21.1-0.1","CKN_101","101","","","","","","84","<button class=""jspsych-btn""><img src=""stimuli/yellow.png"" style=""width: 200px;height: 200px;""></button>","1","yellow","red","[""yellow"",""red"",""high nameability""]","right-left","[""red"",""yellow""]","1","high nameability","2","right","response","1"
"html-audio-button-response","39","137676","0.0-21.1-1.1","CKN_101","101","","","","","","null","stimuli/bleep.m4a","null","yellow","red","[""yellow"",""red"",""high nameability""]","right-left","[""red"",""yellow""]","1","high nameability","2","right","audio_feedback","1"
"html-button-response","40","138193","0.0-22.0","CKN_101","101","","","","","","null","<button class=""jspsych-btn""><img src=""stimuli/white_square.png"" style=""width: 200px;height: 200px;""></button>","null","yellow","red","[""yellow"",""red"",""high nameability""]","right-left","[""red"",""yellow""]","1","high nameability","2","right","iti",""
"html-button-response","41","139750","0.0-23.0","CKN_101","101","","","","","","1543","","0","purple","brown","[""purple"",""brown"",""high nameability""]","right-left","[""brown"",""purple""]","1","high nameability","3","right","trigger",""
"html-button-response","42","143053","0.0-24.0-0.0","CKN_101","101","","","","","","3292","<button class=""jspsych-btn""><img src=""stimuli/purple.png"" style=""width: 200px;height: 200px;""></button>","0","purple","brown","[""purple"",""brown"",""high nameability""]","right-left","[""brown"",""purple""]","1","high nameability","3","right","response","0"
"html-audio-button-response","43","143678","0.0-24.0-1.0","CKN_101","101","","","","","","null","stimuli/boing.m4a","null","purple","brown","[""purple"",""brown"",""high nameability""]","right-left","[""brown"",""purple""]","1","high nameability","3","right","audio_feedback","0"
"html-button-response","44","144362","0.0-24.1-0.1","CKN_101","101","","","","","","671","<button class=""jspsych-btn""><img src=""stimuli/purple.png"" style=""width: 200px;height: 200px;""></button>","1","purple","brown","[""purple"",""brown"",""high nameability""]","right-left","[""brown"",""purple""]","1","high nameability","3","right","response","1"
"html-audio-button-response","45","144566","0.0-24.1-1.1","CKN_101","101","","","","","","null","stimuli/bleep.m4a","null","purple","brown","[""purple"",""brown"",""high nameability""]","right-left","[""brown"",""purple""]","1","high nameability","3","right","audio_feedback","1"
"html-button-response","46","145077","0.0-25.0","CKN_101","101","","","","","","null","<button class=""jspsych-btn""><img src=""stimuli/white_square.png"" style=""width: 200px;height: 200px;""></button>","null","purple","brown","[""purple"",""brown"",""high nameability""]","right-left","[""brown"",""purple""]","1","high nameability","3","right","iti",""
"html-button-response","47","149102","0.0-26.0","CKN_101","101","","","","","","4005","","0","darkgreenblue","mustard","[""darkgreenblue"",""mustard"",""low nameability""]","right-left","[""mustard"",""darkgreenblue""]","1","low nameability","4","right","trigger",""
"html-button-response","48","151339","0.0-27.0-0.0","CKN_101","101","","","","","","2226","<button class=""jspsych-btn""><img src=""stimuli/darkgreenblue.png"" style=""width: 200px;height: 200px;""></button>","1","darkgreenblue","mustard","[""darkgreenblue"",""mustard"",""low nameability""]","right-left","[""mustard"",""darkgreenblue""]","1","low nameability","4","right","response","1"
"html-audio-button-response","49","151545","0.0-27.0-1.0","CKN_101","101","","","","","","null","stimuli/bleep.m4a","null","darkgreenblue","mustard","[""darkgreenblue"",""mustard"",""low nameability""]","right-left","[""mustard"",""darkgreenblue""]","1","low nameability","4","right","audio_feedback","1"
"html-button-response","50","152058","0.0-28.0","CKN_101","101","","","","","","null","<button class=""jspsych-btn""><img src=""stimuli/white_square.png"" style=""width: 200px;height: 200px;""></button>","null","darkgreenblue","mustard","[""darkgreenblue"",""mustard"",""low nameability""]","right-left","[""mustard"",""darkgreenblue""]","1","low nameability","4","right","iti",""
"html-button-response","51","156095","0.0-29.0","CKN_101","101","","","","","","4026","","0","purple","yellow","[""purple"",""yellow"",""high nameability""]","right-left","[""yellow"",""purple""]","1","high nameability","5","right","trigger",""
"html-button-response","52","161412","0.0-30.0-0.0","CKN_101","101","","","","","","5311","<button class=""jspsych-btn""><img src=""stimuli/purple.png"" style=""width: 200px;height: 200px;""></button>","0","purple","yellow","[""purple"",""yellow"",""high nameability""]","right-left","[""yellow"",""purple""]","1","high nameability","5","right","response","0"
"html-audio-button-response","53","162042","0.0-30.0-1.0","CKN_101","101","","","","","","null","stimuli/boing.m4a","null","purple","yellow","[""purple"",""yellow"",""high nameability""]","right-left","[""yellow"",""purple""]","1","high nameability","5","right","audio_feedback","0"
"html-button-response","54","163157","0.0-30.1-0.1","CKN_101","101","","","","","","1102","<button class=""jspsych-btn""><img src=""stimuli/purple.png"" style=""width: 200px;height: 200px;""></button>","1","purple","yellow","[""purple"",""yellow"",""high nameability""]","right-left","[""yellow"",""purple""]","1","high nameability","5","right","response","1"
"html-audio-button-response","55","163359","0.0-30.1-1.1","CKN_101","101","","","","","","null","stimuli/bleep.m4a","null","purple","yellow","[""purple"",""yellow"",""high nameability""]","right-left","[""yellow"",""purple""]","1","high nameability","5","right","audio_feedback","1"
"html-button-response","56","163873","0.0-31.0","CKN_101","101","","","","","","null","<button class=""jspsych-btn""><img src=""stimuli/white_square.png"" style=""width: 200px;height: 200px;""></button>","null","purple","yellow","[""purple"",""yellow"",""high nameability""]","right-left","[""yellow"",""purple""]","1","high nameability","5","right","iti",""
"html-button-response","57","165525","0.0-32.0","CKN_101","101","","","","","","1641","","0","red","purple","[""red"",""purple"",""high nameability""]","left-right","[""red"",""purple"",""high nameability""]","1","high nameability","6","left","trigger",""
"html-button-response","58","171424","0.0-33.0-0.0","CKN_101","101","","","","","","5891","<button class=""jspsych-btn""><img src=""stimuli/red.png"" style=""width: 200px;height: 200px;""></button>","1","red","purple","[""red"",""purple"",""high nameability""]","left-right","[""red"",""purple"",""high nameability""]","1","high nameability","6","left","response","0"
"html-audio-button-response","59","172054","0.0-33.0-1.0","CKN_101","101","","","","","","null","stimuli/boing.m4a","null","red","purple","[""red"",""purple"",""high nameability""]","left-right","[""red"",""purple"",""high nameability""]","1","high nameability","6","left","audio_feedback","0"
"html-button-response","60","173073","0.0-33.1-0.1","CKN_101","101","","","","","","1004","<button class=""jspsych-btn""><img src=""stimuli/red.png"" style=""width: 200px;height: 200px;""></button>","0","red","purple","[""red"",""purple"",""high nameability""]","left-right","[""red"",""purple"",""high nameability""]","1","high nameability","6","left","response","1"
"html-audio-button-response","61","173274","0.0-33.1-1.1","CKN_101","101","","","","","","null","stimuli/bleep.m4a","null","red","purple","[""red"",""purple"",""high nameability""]","left-right","[""red"",""purple"",""high nameability""]","1","high nameability","6","left","audio_feedback","1"
"html-button-response","62","173787","0.0-34.0","CKN_101","101","","","","","","null","<button class=""jspsych-btn""><img src=""stimuli/white_square.png"" style=""width: 200px;height: 200px;""></button>","null","red","purple","[""red"",""purple"",""high nameability""]","left-right","[""red"",""purple"",""high nameability""]","1","high nameability","6","left","iti",""
"html-button-response","63","175093","0.0-35.0","CKN_101","101","","","","","","1292","","0","brown","orange","[""brown"",""orange"",""high nameability""]","left-right","[""brown"",""orange"",""high nameability""]","1","high nameability","7","left","trigger",""
"html-button-response","64","177816","0.0-36.0-0.0","CKN_101","101","","","","","","2716","<button class=""jspsych-btn""><img src=""stimuli/brown.png"" style=""width: 200px;height: 200px;""></button>","1","brown","orange","[""brown"",""orange"",""high nameability""]","left-right","[""brown"",""orange"",""high nameability""]","1","high nameability","7","left","response","0"
"html-audio-button-response","65","178450","0.0-36.0-1.0","CKN_101","101","","","","","","null","stimuli/boing.m4a","null","brown","orange","[""brown"",""orange"",""high nameability""]","left-right","[""brown"",""orange"",""high nameability""]","1","high nameability","7","left","audio_feedback","0"
"html-button-response","66","178812","0.0-36.1-0.1","CKN_101","101","","","","","","345","<button class=""jspsych-btn""><img src=""stimuli/brown.png"" style=""width: 200px;height: 200px;""></button>","0","brown","orange","[""brown"",""orange"",""high nameability""]","left-right","[""brown"",""orange"",""high nameability""]","1","high nameability","7","left","response","1"
"html-audio-button-response","67","179017","0.0-36.1-1.1","CKN_101","101","","","","","","null","stimuli/bleep.m4a","null","brown","orange","[""brown"",""orange"",""high nameability""]","left-right","[""brown"",""orange"",""high nameability""]","1","high nameability","7","left","audio_feedback","1"
"html-button-response","68","179534","0.0-37.0","CKN_101","101","","","","","","null","<button class=""jspsych-btn""><img src=""stimuli/white_square.png"" style=""width: 200px;height: 200px;""></button>","null","brown","orange","[""brown"",""orange"",""high nameability""]","left-right","[""brown"",""orange"",""high nameability""]","1","high nameability","7","left","iti",""
"html-button-response","69","180579","0.0-38.0","CKN_101","101","","","","","","1031","","0","turquoise","pink","[""turquoise"",""pink"",""low nameability""]","right-left","[""pink"",""turquoise""]","1","low nameability","8","right","trigger",""
"html-button-response","70","182200","0.0-39.0-0.0","CKN_101","101","","","","","","1610","<button class=""jspsych-btn""><img src=""stimuli/turquoise.png"" style=""width: 200px;height: 200px;""></button>","0","turquoise","pink","[""turquoise"",""pink"",""low nameability""]","right-left","[""pink"",""turquoise""]","1","low nameability","8","right","response","0"
"html-audio-button-response","71","182826","0.0-39.0-1.0","CKN_101","101","","","","","","null","stimuli/boing.m4a","null","turquoise","pink","[""turquoise"",""pink"",""low nameability""]","right-left","[""pink"",""turquoise""]","1","low nameability","8","right","audio_feedback","0"
"html-button-response","72","183066","0.0-39.1-0.1","CKN_101","101","","","","","","221","<button class=""jspsych-btn""><img src=""stimuli/turquoise.png"" style=""width: 200px;height: 200px;""></button>","1","turquoise","pink","[""turquoise"",""pink"",""low nameability""]","right-left","[""pink"",""turquoise""]","1","low nameability","8","right","response","1"
"html-audio-button-response","73","183273","0.0-39.1-1.1","CKN_101","101","","","","","","null","stimuli/bleep.m4a","null","turquoise","pink","[""turquoise"",""pink"",""low nameability""]","right-left","[""pink"",""turquoise""]","1","low nameability","8","right","audio_feedback","1"
"html-button-response","74","183781","0.0-40.0","CKN_101","101","","","","","","null","<button class=""jspsych-btn""><img src=""stimuli/white_square.png"" style=""width: 200px;height: 200px;""></button>","null","turquoise","pink","[""turquoise"",""pink"",""low nameability""]","right-left","[""pink"",""turquoise""]","1","low nameability","8","right","iti",""
"html-button-response","75","186599","0.0-41.0","CKN_101","101","","","","","","2812","","0","darkgreenblue","neonyellow","[""darkgreenblue"",""neonyellow"",""low nameability""]","left-right","[""darkgreenblue"",""neonyellow"",""low nameability""]","1","low nameability","9","left","trigger",""
"html-button-response","76","188943","0.0-42.0-0.0","CKN_101","101","","","","","","2338","<button class=""jspsych-btn""><img src=""stimuli/darkgreenblue.png"" style=""width: 200px;height: 200px;""></button>","0","darkgreenblue","neonyellow","[""darkgreenblue"",""neonyellow"",""low nameability""]","left-right","[""darkgreenblue"",""neonyellow"",""low nameability""]","1","low nameability","9","left","response","1"
"html-audio-button-response","77","189145","0.0-42.0-1.0","CKN_101","101","","","","","","null","stimuli/bleep.m4a","null","darkgreenblue","neonyellow","[""darkgreenblue"",""neonyellow"",""low nameability""]","left-right","[""darkgreenblue"",""neonyellow"",""low nameability""]","1","low nameability","9","left","audio_feedback","1"
"html-button-response","78","189657","0.0-43.0","CKN_101","101","","","","","","null","<button class=""jspsych-btn""><img src=""stimuli/white_square.png"" style=""width: 200px;height: 200px;""></button>","null","darkgreenblue","neonyellow","[""darkgreenblue"",""neonyellow"",""low nameability""]","left-right","[""darkgreenblue"",""neonyellow"",""low nameability""]","1","low nameability","9","left","iti",""
"html-button-response","79","191322","0.0-44.0","CKN_101","101","","","","","","1651","","0","brown","red","[""brown"",""red"",""high nameability""]","left-right","[""brown"",""red"",""high nameability""]","1","high nameability","10","left","trigger",""
"html-button-response","80","193236","0.0-45.0-0.0","CKN_101","101","","","","","","1906","<button class=""jspsych-btn""><img src=""stimuli/brown.png"" style=""width: 200px;height: 200px;""></button>","1","brown","red","[""brown"",""red"",""high nameability""]","left-right","[""brown"",""red"",""high nameability""]","1","high nameability","10","left","response","0"
"html-audio-button-response","81","193870","0.0-45.0-1.0","CKN_101","101","","","","","","null","stimuli/boing.m4a","null","brown","red","[""brown"",""red"",""high nameability""]","left-right","[""brown"",""red"",""high nameability""]","1","high nameability","10","left","audio_feedback","0"
"html-button-response","82","198133","0.0-45.1-0.1","CKN_101","101","","","","","","4244","<button class=""jspsych-btn""><img src=""stimuli/brown.png"" style=""width: 200px;height: 200px;""></button>","0","brown","red","[""brown"",""red"",""high nameability""]","left-right","[""brown"",""red"",""high nameability""]","1","high nameability","10","left","response","1"
"html-audio-button-response","83","198342","0.0-45.1-1.1","CKN_101","101","","","","","","null","stimuli/bleep.m4a","null","brown","red","[""brown"",""red"",""high nameability""]","left-right","[""brown"",""red"",""high nameability""]","1","high nameability","10","left","audio_feedback","1"
"html-button-response","84","198856","0.0-46.0","CKN_101","101","","","","","","null","<button class=""jspsych-btn""><img src=""stimuli/white_square.png"" style=""width: 200px;height: 200px;""></button>","null","brown","red","[""brown"",""red"",""high nameability""]","left-right","[""brown"",""red"",""high nameability""]","1","high nameability","10","left","iti",""
"pavlovia","85","198975","0.0-47.0","CKN_101","101","","","","","","","","","","","","","","","","","","",""
"pavlovia","86","198985","0.0-48.0","CKN_101","101","","","","","","","","","","","","","","","","","","",""
"html-audio-button-response","87","206370","0.0-49.0","CKN_101","101","","","","","","7501","stimuli/tada.m4a","0","","","","","","","","","","",""
"html-button-response","88","208780","0.0-50.0","CKN_101","101","","","","","","2403","","0","","","","","","","","","","",""
"html-button-response","89","213219","0.0-51.0","CKN_101","101","","","","","","4431","","0","yellow","orange","[""yellow"",""orange"",""high nameability""]","right-left","[""orange"",""yellow""]","2","high nameability","11","right","trigger",""
"html-button-response","90","215558","0.0-52.0-0.0","CKN_101","101","","","","","","2330","<button class=""jspsych-btn""><img src=""stimuli/yellow.png"" style=""width: 200px;height: 200px;""></button>","0","yellow","orange","[""yellow"",""orange"",""high nameability""]","right-left","[""orange"",""yellow""]","2","high nameability","11","right","response","0"
"html-audio-button-response","91","216190","0.0-52.0-1.0","CKN_101","101","","","","","","null","stimuli/boing.m4a","null","yellow","orange","[""yellow"",""orange"",""high nameability""]","right-left","[""orange"",""yellow""]","2","high nameability","11","right","audio_feedback","0"
"html-button-response","92","216643","0.0-52.1-0.1","CKN_101","101","","","","","","436","<button class=""jspsych-btn""><img src=""stimuli/yellow.png"" style=""width: 200px;height: 200px;""></button>","1","yellow","orange","[""yellow"",""orange"",""high nameability""]","right-left","[""orange"",""yellow""]","2","high nameability","11","right","response","1"
"html-audio-button-response","93","216845","0.0-52.1-1.1","CKN_101","101","","","","","","null","stimuli/bleep.m4a","null","yellow","orange","[""yellow"",""orange"",""high nameability""]","right-left","[""orange"",""yellow""]","2","high nameability","11","right","audio_feedback","1"
"html-button-response","94","217359","0.0-53.0","CKN_101","101","","","","","","null","<button class=""jspsych-btn""><img src=""stimuli/white_square.png"" style=""width: 200px;height: 200px;""></button>","null","yellow","orange","[""yellow"",""orange"",""high nameability""]","right-left","[""orange"",""yellow""]","2","high nameability","11","right","iti",""
"html-button-response","95","220112","0.0-54.0","CKN_101","101","","","","","","2733","","0","purple","orange","[""purple"",""orange"",""high nameability""]","left-right","[""purple"",""orange"",""high nameability""]","2","high nameability","12","left","trigger",""
"html-button-response","96","224750","0.0-55.0-0.0","CKN_101","101","","","","","","4632","<button class=""jspsych-btn""><img src=""stimuli/purple.png"" style=""width: 200px;height: 200px;""></button>","1","purple","orange","[""purple"",""orange"",""high nameability""]","left-right","[""purple"",""orange"",""high nameability""]","2","high nameability","12","left","response","0"
"html-audio-button-response","97","225380","0.0-55.0-1.0","CKN_101","101","","","","","","null","stimuli/boing.m4a","null","purple","orange","[""purple"",""orange"",""high nameability""]","left-right","[""purple"",""orange"",""high nameability""]","2","high nameability","12","left","audio_feedback","0"
"html-button-response","98","229101","0.0-55.1-0.1","CKN_101","101","","","","","","3699","<button class=""jspsych-btn""><img src=""stimuli/purple.png"" style=""width: 200px;height: 200px;""></button>","0","purple","orange","[""purple"",""orange"",""high nameability""]","left-right","[""purple"",""orange"",""high nameability""]","2","high nameability","12","left","response","1"
"html-audio-button-response","99","229314","0.0-55.1-1.1","CKN_101","101","","","","","","null","stimuli/bleep.m4a","null","purple","orange","[""purple"",""orange"",""high nameability""]","left-right","[""purple"",""orange"",""high nameability""]","2","high nameability","12","left","audio_feedback","1"
"html-button-response","100","229833","0.0-56.0","CKN_101","101","","","","","","null","<button class=""jspsych-btn""><img src=""stimuli/white_square.png"" style=""width: 200px;height: 200px;""></button>","null","purple","orange","[""purple"",""orange"",""high nameability""]","left-right","[""purple"",""orange"",""high nameability""]","2","high nameability","12","left","iti",""
"html-button-response","101","234852","0.0-57.0","CKN_101","101","","","","","","5010","","0","brown","purple","[""brown"",""purple"",""high nameability""]","left-right","[""brown"",""purple"",""high nameability""]","2","high nameability","13","left","trigger",""
"html-button-response","102","241365","0.0-58.0-0.0","CKN_101","101","","","","","","6506","<button class=""jspsych-btn""><img src=""stimuli/brown.png"" style=""width: 200px;height: 200px;""></button>","1","brown","purple","[""brown"",""purple"",""high nameability""]","left-right","[""brown"",""purple"",""high nameability""]","2","high nameability","13","left","response","0"
"html-audio-button-response","103","241990","0.0-58.0-1.0","CKN_101","101","","","","","","null","stimuli/boing.m4a","null","brown","purple","[""brown"",""purple"",""high nameability""]","left-right","[""brown"",""purple"",""high nameability""]","2","high nameability","13","left","audio_feedback","0"
"html-button-response","104","247341","0.0-58.1-0.1","CKN_101","101","","","","","","5328","<button class=""jspsych-btn""><img src=""stimuli/brown.png"" style=""width: 200px;height: 200px;""></button>","0","brown","purple","[""brown"",""purple"",""high nameability""]","left-right","[""brown"",""purple"",""high nameability""]","2","high nameability","13","left","response","1"
"html-audio-button-response","105","247548","0.0-58.1-1.1","CKN_101","101","","","","","","null","stimuli/bleep.m4a","null","brown","purple","[""brown"",""purple"",""high nameability""]","left-right","[""brown"",""purple"",""high nameability""]","2","high nameability","13","left","audio_feedback","1"
"html-button-response","106","248066","0.0-59.0","CKN_101","101","","","","","","null","<button class=""jspsych-btn""><img src=""stimuli/white_square.png"" style=""width: 200px;height: 200px;""></button>","null","brown","purple","[""brown"",""purple"",""high nameability""]","left-right","[""brown"",""purple"",""high nameability""]","2","high nameability","13","left","iti",""
"html-button-response","107","249577","0.0-60.0","CKN_101","101","","","","","","1500","","0","mustard","lightred","[""mustard"",""lightred"",""low nameability""]","left-right","[""mustard"",""lightred"",""low nameability""]","2","low nameability","14","left","trigger",""
"html-button-response","108","251912","0.0-61.0-0.0","CKN_101","101","","","","","","2328","<button class=""jspsych-btn""><img src=""stimuli/mustard.png"" style=""width: 200px;height: 200px;""></button>","1","mustard","lightred","[""mustard"",""lightred"",""low nameability""]","left-right","[""mustard"",""lightred"",""low nameability""]","2","low nameability","14","left","response","0"
"html-audio-button-response","109","252533","0.0-61.0-1.0","CKN_101","101","","","","","","null","stimuli/boing.m4a","null","mustard","lightred","[""mustard"",""lightred"",""low nameability""]","left-right","[""mustard"",""lightred"",""low nameability""]","2","low nameability","14","left","audio_feedback","0"
"html-button-response","110","255403","0.0-61.1-0.1","CKN_101","101","","","","","","2856","<button class=""jspsych-btn""><img src=""stimuli/mustard.png"" style=""width: 200px;height: 200px;""></button>","0","mustard","lightred","[""mustard"",""lightred"",""low nameability""]","left-right","[""mustard"",""lightred"",""low nameability""]","2","low nameability","14","left","response","1"
"html-audio-button-response","111","255608","0.0-61.1-1.1","CKN_101","101","","","","","","null","stimuli/bleep.m4a","null","mustard","lightred","[""mustard"",""lightred"",""low nameability""]","left-right","[""mustard"",""lightred"",""low nameability""]","2","low nameability","14","left","audio_feedback","1"
"html-button-response","112","256119","0.0-62.0","CKN_101","101","","","","","","null","<button class=""jspsych-btn""><img src=""stimuli/white_square.png"" style=""width: 200px;height: 200px;""></button>","null","mustard","lightred","[""mustard"",""lightred"",""low nameability""]","left-right","[""mustard"",""lightred"",""low nameability""]","2","low nameability","14","left","iti",""
"html-button-response","113","257580","0.0-63.0","CKN_101","101","","","","","","1459","","0","lightred","turquoise","[""lightred"",""turquoise"",""low nameability""]","left-right","[""lightred"",""turquoise"",""low nameability""]","2","low nameability","15","left","trigger",""
"html-button-response","114","260503","0.0-64.0-0.0","CKN_101","101","","","","","","2917","<button class=""jspsych-btn""><img src=""stimuli/lightred.png"" style=""width: 200px;height: 200px;""></button>","1","lightred","turquoise","[""lightred"",""turquoise"",""low nameability""]","left-right","[""lightred"",""turquoise"",""low nameability""]","2","low nameability","15","left","response","0"
"html-audio-button-response","115","261139","0.0-64.0-1.0","CKN_101","101","","","","","","null","stimuli/boing.m4a","null","lightred","turquoise","[""lightred"",""turquoise"",""low nameability""]","left-right","[""lightred"",""turquoise"",""low nameability""]","2","low nameability","15","left","audio_feedback","0"
"html-button-response","116","262410","0.0-64.1-0.1","CKN_101","101","","","","","","1252","<button class=""jspsych-btn""><img src=""stimuli/lightred.png"" style=""width: 200px;height: 200px;""></button>","0","lightred","turquoise","[""lightred"",""turquoise"",""low nameability""]","left-right","[""lightred"",""turquoise"",""low nameability""]","2","low nameability","15","left","response","1"
"html-audio-button-response","117","262612","0.0-64.1-1.1","CKN_101","101","","","","","","null","stimuli/bleep.m4a","null","lightred","turquoise","[""lightred"",""turquoise"",""low nameability""]","left-right","[""lightred"",""turquoise"",""low nameability""]","2","low nameability","15","left","audio_feedback","1"
"html-button-response","118","263125","0.0-65.0","CKN_101","101","","","","","","null","<button class=""jspsych-btn""><img src=""stimuli/white_square.png"" style=""width: 200px;height: 200px;""></button>","null","lightred","turquoise","[""lightred"",""turquoise"",""low nameability""]","left-right","[""lightred"",""turquoise"",""low nameability""]","2","low nameability","15","left","iti",""
"html-button-response","119","264286","0.0-66.0","CKN_101","101","","","","","","1146","","0","neonyellow","lightred","[""neonyellow"",""lightred"",""low nameability""]","right-left","[""lightred"",""neonyellow""]","2","low nameability","16","right","trigger",""
"html-button-response","120","265797","0.0-67.0-0.0","CKN_101","101","","","","","","1501","<button class=""jspsych-btn""><img src=""stimuli/neonyellow.png"" style=""width: 200px;height: 200px;""></button>","1","neonyellow","lightred","[""neonyellow"",""lightred"",""low nameability""]","right-left","[""lightred"",""neonyellow""]","2","low nameability","16","right","response","1"
"html-audio-button-response","121","265998","0.0-67.0-1.0","CKN_101","101","","","","","","null","stimuli/bleep.m4a","null","neonyellow","lightred","[""neonyellow"",""lightred"",""low nameability""]","right-left","[""lightred"",""neonyellow""]","2","low nameability","16","right","audio_feedback","1"
"html-button-response","122","266509","0.0-68.0","CKN_101","101","","","","","","null","<button class=""jspsych-btn""><img src=""stimuli/white_square.png"" style=""width: 200px;height: 200px;""></button>","null","neonyellow","lightred","[""neonyellow"",""lightred"",""low nameability""]","right-left","[""lightred"",""neonyellow""]","2","low nameability","16","right","iti",""
"html-button-response","123","268237","0.0-69.0","CKN_101","101","","","","","","1714","","0","turquoise","darkgreenblue","[""turquoise"",""darkgreenblue"",""low nameability""]","right-left","[""darkgreenblue"",""turquoise""]","2","low nameability","17","right","trigger",""
"html-button-response","124","269854","0.0-70.0-0.0","CKN_101","101","","","","","","1609","<button class=""jspsych-btn""><img src=""stimuli/turquoise.png"" style=""width: 200px;height: 200px;""></button>","1","turquoise","darkgreenblue","[""turquoise"",""darkgreenblue"",""low nameability""]","right-left","[""darkgreenblue"",""turquoise""]","2","low nameability","17","right","response","1"
"html-audio-button-response","125","270061","0.0-70.0-1.0","CKN_101","101","","","","","","null","stimuli/bleep.m4a","null","turquoise","darkgreenblue","[""turquoise"",""darkgreenblue"",""low nameability""]","right-left","[""darkgreenblue"",""turquoise""]","2","low nameability","17","right","audio_feedback","1"
"html-button-response","126","270578","0.0-71.0","CKN_101","101","","","","","","null","<button class=""jspsych-btn""><img src=""stimuli/white_square.png"" style=""width: 200px;height: 200px;""></button>","null","turquoise","darkgreenblue","[""turquoise"",""darkgreenblue"",""low nameability""]","right-left","[""darkgreenblue"",""turquoise""]","2","low nameability","17","right","iti",""
"html-button-response","127","271867","0.0-72.0","CKN_101","101","","","","","","1276","","0","yellow","blue","[""yellow"",""blue"",""high nameability""]","right-left","[""blue"",""yellow""]","2","high nameability","18","right","trigger",""
"html-button-response","128","275098","0.0-73.0-0.0","CKN_101","101","","","","","","3221","<button class=""jspsych-btn""><img src=""stimuli/yellow.png"" style=""width: 200px;height: 200px;""></button>","0","yellow","blue","[""yellow"",""blue"",""high nameability""]","right-left","[""blue"",""yellow""]","2","high nameability","18","right","response","0"
"html-audio-button-response","129","275732","0.0-73.0-1.0","CKN_101","101","","","","","","null","stimuli/boing.m4a","null","yellow","blue","[""yellow"",""blue"",""high nameability""]","right-left","[""blue"",""yellow""]","2","high nameability","18","right","audio_feedback","0"
"html-button-response","130","276296","0.0-73.1-0.1","CKN_101","101","","","","","","547","<button class=""jspsych-btn""><img src=""stimuli/yellow.png"" style=""width: 200px;height: 200px;""></button>","1","yellow","blue","[""yellow"",""blue"",""high nameability""]","right-left","[""blue"",""yellow""]","2","high nameability","18","right","response","1"
"html-audio-button-response","131","276505","0.0-73.1-1.1","CKN_101","101","","","","","","null","stimuli/bleep.m4a","null","yellow","blue","[""yellow"",""blue"",""high nameability""]","right-left","[""blue"",""yellow""]","2","high nameability","18","right","audio_feedback","1"
"html-button-response","132","277020","0.0-74.0","CKN_101","101","","","","","","null","<button class=""jspsych-btn""><img src=""stimuli/white_square.png"" style=""width: 200px;height: 200px;""></button>","null","yellow","blue","[""yellow"",""blue"",""high nameability""]","right-left","[""blue"",""yellow""]","2","high nameability","18","right","iti",""
"html-button-response","133","280287","0.0-75.0","CKN_101","101","","","","","","3253","","0","red","orange","[""red"",""orange"",""high nameability""]","left-right","[""red"",""orange"",""high nameability""]","2","high nameability","19","left","trigger",""
"html-button-response","134","283418","0.0-76.0-0.0","CKN_101","101","","","","","","3122","<button class=""jspsych-btn""><img src=""stimuli/red.png"" style=""width: 200px;height: 200px;""></button>","0","red","orange","[""red"",""orange"",""high nameability""]","left-right","[""red"",""orange"",""high nameability""]","2","high nameability","19","left","response","1"
"html-audio-button-response","135","283625","0.0-76.0-1.0","CKN_101","101","","","","","","null","stimuli/bleep.m4a","null","red","orange","[""red"",""orange"",""high nameability""]","left-right","[""red"",""orange"",""high nameability""]","2","high nameability","19","left","audio_feedback","1"
"html-button-response","136","284140","0.0-77.0","CKN_101","101","","","","","","null","<button class=""jspsych-btn""><img src=""stimuli/white_square.png"" style=""width: 200px;height: 200px;""></button>","null","red","orange","[""red"",""orange"",""high nameability""]","left-right","[""red"",""orange"",""high nameability""]","2","high nameability","19","left","iti",""
"html-button-response","137","288611","0.0-78.0","CKN_101","101","","","","","","4460","","0","orange","yellow","[""orange"",""yellow"",""high nameability""]","right-left","[""yellow"",""orange""]","2","high nameability","20","right","trigger",""
"html-button-response","138","292081","0.0-79.0-0.0","CKN_101","101","","","","","","3461","<button class=""jspsych-btn""><img src=""stimuli/orange.png"" style=""width: 200px;height: 200px;""></button>","1","orange","yellow","[""orange"",""yellow"",""high nameability""]","right-left","[""yellow"",""orange""]","2","high nameability","20","right","response","1"
"html-audio-button-response","139","292288","0.0-79.0-1.0","CKN_101","101","","","","","","null","stimuli/bleep.m4a","null","orange","yellow","[""orange"",""yellow"",""high nameability""]","right-left","[""yellow"",""orange""]","2","high nameability","20","right","audio_feedback","1"
"html-button-response","140","292803","0.0-80.0","CKN_101","101","","","","","","null","<button class=""jspsych-btn""><img src=""stimuli/white_square.png"" style=""width: 200px;height: 200px;""></button>","null","orange","yellow","[""orange"",""yellow"",""high nameability""]","right-left","[""yellow"",""orange""]","2","high nameability","20","right","iti",""
"pavlovia","141","292852","0.0-81.0","CKN_101","101","","","","","","","","","","","","","","","","","","",""
"pavlovia","142","292859","0.0-82.0","CKN_101","101","","","","","","","","","","","","","","","","","","",""
"html-audio-button-response","143","298666","0.0-83.0","CKN_101","101","","","","","","5864","stimuli/tada.m4a","0","","","","","","","","","","",""
"html-button-response","144","299855","0.0-84.0","CKN_101","101","","","","","","1182","","0","","","","","","","","","","",""
"html-button-response","145","302031","0.0-85.0","CKN_101","101","","","","","","2169","","0","neonyellow","mustard","[""neonyellow"",""mustard"",""low nameability""]","right-left","[""mustard"",""neonyellow""]","3","low nameability","21","right","trigger",""
"html-button-response","146","304948","0.0-86.0-0.0","CKN_101","101","","","","","","2909","<button class=""jspsych-btn""><img src=""stimuli/neonyellow.png"" style=""width: 200px;height: 200px;""></button>","1","neonyellow","mustard","[""neonyellow"",""mustard"",""low nameability""]","right-left","[""mustard"",""neonyellow""]","3","low nameability","21","right","response","1"
"html-audio-button-response","147","305152","0.0-86.0-1.0","CKN_101","101","","","","","","null","stimuli/bleep.m4a","null","neonyellow","mustard","[""neonyellow"",""mustard"",""low nameability""]","right-left","[""mustard"",""neonyellow""]","3","low nameability","21","right","audio_feedback","1"
"html-button-response","148","305663","0.0-87.0","CKN_101","101","","","","","","null","<button class=""jspsych-btn""><img src=""stimuli/white_square.png"" style=""width: 200px;height: 200px;""></button>","null","neonyellow","mustard","[""neonyellow"",""mustard"",""low nameability""]","right-left","[""mustard"",""neonyellow""]","3","low nameability","21","right","iti",""
"html-button-response","149","307723","0.0-88.0","CKN_101","101","","","","","","2048","","0","yellow","purple","[""yellow"",""purple"",""high nameability""]","left-right","[""yellow"",""purple"",""high nameability""]","3","high nameability","22","left","trigger",""
"html-button-response","150","309503","0.0-89.0-0.0","CKN_101","101","","","","","","1768","<button class=""jspsych-btn""><img src=""stimuli/yellow.png"" style=""width: 200px;height: 200px;""></button>","1","yellow","purple","[""yellow"",""purple"",""high nameability""]","left-right","[""yellow"",""purple"",""high nameability""]","3","high nameability","22","left","response","0"
"html-audio-button-response","151","310139","0.0-89.0-1.0","CKN_101","101","","","","","","null","stimuli/boing.m4a","null","yellow","purple","[""yellow"",""purple"",""high nameability""]","left-right","[""yellow"",""purple"",""high nameability""]","3","high nameability","22","left","audio_feedback","0"
"html-button-response","152","311282","0.0-89.1-0.1","CKN_101","101","","","","","","1127","<button class=""jspsych-btn""><img src=""stimuli/yellow.png"" style=""width: 200px;height: 200px;""></button>","0","yellow","purple","[""yellow"",""purple"",""high nameability""]","left-right","[""yellow"",""purple"",""high nameability""]","3","high nameability","22","left","response","1"
"html-audio-button-response","153","311486","0.0-89.1-1.1","CKN_101","101","","","","","","null","stimuli/bleep.m4a","null","yellow","purple","[""yellow"",""purple"",""high nameability""]","left-right","[""yellow"",""purple"",""high nameability""]","3","high nameability","22","left","audio_feedback","1"
"html-button-response","154","311999","0.0-90.0","CKN_101","101","","","","","","null","<button class=""jspsych-btn""><img src=""stimuli/white_square.png"" style=""width: 200px;height: 200px;""></button>","null","yellow","purple","[""yellow"",""purple"",""high nameability""]","left-right","[""yellow"",""purple"",""high nameability""]","3","high nameability","22","left","iti",""
"html-button-response","155","313436","0.0-91.0","CKN_101","101","","","","","","1417","","0","darkgreenblue","lightred","[""darkgreenblue"",""lightred"",""low nameability""]","left-right","[""darkgreenblue"",""lightred"",""low nameability""]","3","low nameability","23","left","trigger",""
"html-button-response","156","324145","0.0-92.0-0.0","CKN_101","101","","","","","","10687","<button class=""jspsych-btn""><img src=""stimuli/darkgreenblue.png"" style=""width: 200px;height: 200px;""></button>","1","darkgreenblue","lightred","[""darkgreenblue"",""lightred"",""low nameability""]","left-right","[""darkgreenblue"",""lightred"",""low nameability""]","3","low nameability","23","left","response","0"
"html-audio-button-response","157","324780","0.0-92.0-1.0","CKN_101","101","","","","","","null","stimuli/boing.m4a","null","darkgreenblue","lightred","[""darkgreenblue"",""lightred"",""low nameability""]","left-right","[""darkgreenblue"",""lightred"",""low nameability""]","3","low nameability","23","left","audio_feedback","0"
"html-button-response","158","325906","0.0-92.1-0.1","CKN_101","101","","","","","","1095","<button class=""jspsych-btn""><img src=""stimuli/darkgreenblue.png"" style=""width: 200px;height: 200px;""></button>","0","darkgreenblue","lightred","[""darkgreenblue"",""lightred"",""low nameability""]","left-right","[""darkgreenblue"",""lightred"",""low nameability""]","3","low nameability","23","left","response","1"
"html-audio-button-response","159","326123","0.0-92.1-1.1","CKN_101","101","","","","","","null","stimuli/bleep.m4a","null","darkgreenblue","lightred","[""darkgreenblue"",""lightred"",""low nameability""]","left-right","[""darkgreenblue"",""lightred"",""low nameability""]","3","low nameability","23","left","audio_feedback","1"
"html-button-response","160","326646","0.0-93.0","CKN_101","101","","","","","","null","<button class=""jspsych-btn""><img src=""stimuli/white_square.png"" style=""width: 200px;height: 200px;""></button>","null","darkgreenblue","lightred","[""darkgreenblue"",""lightred"",""low nameability""]","left-right","[""darkgreenblue"",""lightred"",""low nameability""]","3","low nameability","23","left","iti",""
"html-button-response","161","329960","0.0-94.0","CKN_101","101","","","","","","3293","","0","lightred","neonyellow","[""lightred"",""neonyellow"",""low nameability""]","left-right","[""lightred"",""neonyellow"",""low nameability""]","3","low nameability","24","left","trigger",""
"html-button-response","162","333382","0.0-95.0-0.0","CKN_101","101","","","","","","3410","<button class=""jspsych-btn""><img src=""stimuli/lightred.png"" style=""width: 200px;height: 200px;""></button>","1","lightred","neonyellow","[""lightred"",""neonyellow"",""low nameability""]","left-right","[""lightred"",""neonyellow"",""low nameability""]","3","low nameability","24","left","response","0"
"html-audio-button-response","163","334009","0.0-95.0-1.0","CKN_101","101","","","","","","null","stimuli/boing.m4a","null","lightred","neonyellow","[""lightred"",""neonyellow"",""low nameability""]","left-right","[""lightred"",""neonyellow"",""low nameability""]","3","low nameability","24","left","audio_feedback","0"
"html-button-response","164","335299","0.0-95.1-0.1","CKN_101","101","","","","","","1271","<button class=""jspsych-btn""><img src=""stimuli/lightred.png"" style=""width: 200px;height: 200px;""></button>","0","lightred","neonyellow","[""lightred"",""neonyellow"",""low nameability""]","left-right","[""lightred"",""neonyellow"",""low nameability""]","3","low nameability","24","left","response","1"
"html-audio-button-response","165","335508","0.0-95.1-1.1","CKN_101","101","","","","","","null","stimuli/bleep.m4a","null","lightred","neonyellow","[""lightred"",""neonyellow"",""low nameability""]","left-right","[""lightred"",""neonyellow"",""low nameability""]","3","low nameability","24","left","audio_feedback","1"
"html-button-response","166","336020","0.0-96.0","CKN_101","101","","","","","","null","<button class=""jspsych-btn""><img src=""stimuli/white_square.png"" style=""width: 200px;height: 200px;""></button>","null","lightred","neonyellow","[""lightred"",""neonyellow"",""low nameability""]","left-right","[""lightred"",""neonyellow"",""low nameability""]","3","low nameability","24","left","iti",""
"html-button-response","167","337749","0.0-97.0","CKN_101","101","","","","","","1710","","0","turquoise","mustard","[""turquoise"",""mustard"",""low nameability""]","left-right","[""turquoise"",""mustard"",""low nameability""]","3","low nameability","25","left","trigger",""
"html-button-response","168","339452","0.0-98.0-0.0","CKN_101","101","","","","","","1694","<button class=""jspsych-btn""><img src=""stimuli/turquoise.png"" style=""width: 200px;height: 200px;""></button>","0","turquoise","mustard","[""turquoise"",""mustard"",""low nameability""]","left-right","[""turquoise"",""mustard"",""low nameability""]","3","low nameability","25","left","response","1"
"html-audio-button-response","169","339658","0.0-98.0-1.0","CKN_101","101","","","","","","null","stimuli/bleep.m4a","null","turquoise","mustard","[""turquoise"",""mustard"",""low nameability""]","left-right","[""turquoise"",""mustard"",""low nameability""]","3","low nameability","25","left","audio_feedback","1"
"html-button-response","170","340176","0.0-99.0","CKN_101","101","","","","","","null","<button class=""jspsych-btn""><img src=""stimuli/white_square.png"" style=""width: 200px;height: 200px;""></button>","null","turquoise","mustard","[""turquoise"",""mustard"",""low nameability""]","left-right","[""turquoise"",""mustard"",""low nameability""]","3","low nameability","25","left","iti",""
"html-button-response","171","342120","0.0-100.0","CKN_101","101","","","","","","1933","","0","turquoise","lightred","[""turquoise"",""lightred"",""low nameability""]","right-left","[""lightred"",""turquoise""]","3","low nameability","26","right","trigger",""
"html-button-response","172","343378","0.0-101.0-0.0","CKN_101","101","","","","","","1247","<button class=""jspsych-btn""><img src=""stimuli/turquoise.png"" style=""width: 200px;height: 200px;""></button>","1","turquoise","lightred","[""turquoise"",""lightred"",""low nameability""]","right-left","[""lightred"",""turquoise""]","3","low nameability","26","right","response","1"
"html-audio-button-response","173","343580","0.0-101.0-1.0","CKN_101","101","","","","","","null","stimuli/bleep.m4a","null","turquoise","lightred","[""turquoise"",""lightred"",""low nameability""]","right-left","[""lightred"",""turquoise""]","3","low nameability","26","right","audio_feedback","1"
"html-button-response","174","344097","0.0-102.0","CKN_101","101","","","","","","null","<button class=""jspsych-btn""><img src=""stimuli/white_square.png"" style=""width: 200px;height: 200px;""></button>","null","turquoise","lightred","[""turquoise"",""lightred"",""low nameability""]","right-left","[""lightred"",""turquoise""]","3","low nameability","26","right","iti",""
"html-button-response","175","345506","0.0-103.0","CKN_101","101","","","","","","1395","","0","purple","red","[""purple"",""red"",""high nameability""]","right-left","[""red"",""purple""]","3","high nameability","27","right","trigger",""
"html-button-response","176","346618","0.0-104.0-0.0","CKN_101","101","","","","","","1106","<button class=""jspsych-btn""><img src=""stimuli/purple.png"" style=""width: 200px;height: 200px;""></button>","1","purple","red","[""purple"",""red"",""high nameability""]","right-left","[""red"",""purple""]","3","high nameability","27","right","response","1"
"html-audio-button-response","177","346827","0.0-104.0-1.0","CKN_101","101","","","","","","null","stimuli/bleep.m4a","null","purple","red","[""purple"",""red"",""high nameability""]","right-left","[""red"",""purple""]","3","high nameability","27","right","audio_feedback","1"
"html-button-response","178","347338","0.0-105.0","CKN_101","101","","","","","","null","<button class=""jspsych-btn""><img src=""stimuli/white_square.png"" style=""width: 200px;height: 200px;""></button>","null","purple","red","[""purple"",""red"",""high nameability""]","right-left","[""red"",""purple""]","3","high nameability","27","right","iti",""
"html-button-response","179","348621","0.0-106.0","CKN_101","101","","","","","","1270","","0","blue","brown","[""blue"",""brown"",""high nameability""]","right-left","[""brown"",""blue""]","3","high nameability","28","right","trigger",""
"html-button-response","180","349643","0.0-107.0-0.0","CKN_101","101","","","","","","1012","<button class=""jspsych-btn""><img src=""stimuli/blue.png"" style=""width: 200px;height: 200px;""></button>","1","blue","brown","[""blue"",""brown"",""high nameability""]","right-left","[""brown"",""blue""]","3","high nameability","28","right","response","1"
"html-audio-button-response","181","349847","0.0-107.0-1.0","CKN_101","101","","","","","","null","stimuli/bleep.m4a","null","blue","brown","[""blue"",""brown"",""high nameability""]","right-left","[""brown"",""blue""]","3","high nameability","28","right","audio_feedback","1"
"html-button-response","182","350372","0.0-108.0","CKN_101","101","","","","","","null","<button class=""jspsych-btn""><img src=""stimuli/white_square.png"" style=""width: 200px;height: 200px;""></button>","null","blue","brown","[""blue"",""brown"",""high nameability""]","right-left","[""brown"",""blue""]","3","high nameability","28","right","iti",""
"html-button-response","183","353018","0.0-109.0","CKN_101","101","","","","","","2631","","0","blue","yellow","[""blue"",""yellow"",""high nameability""]","right-left","[""yellow"",""blue""]","3","high nameability","29","right","trigger",""
"html-button-response","184","354101","0.0-110.0-0.0","CKN_101","101","","","","","","1075","<button class=""jspsych-btn""><img src=""stimuli/blue.png"" style=""width: 200px;height: 200px;""></button>","1","blue","yellow","[""blue"",""yellow"",""high nameability""]","right-left","[""yellow"",""blue""]","3","high nameability","29","right","response","1"
"html-audio-button-response","185","354309","0.0-110.0-1.0","CKN_101","101","","","","","","null","stimuli/bleep.m4a","null","blue","yellow","[""blue"",""yellow"",""high nameability""]","right-left","[""yellow"",""blue""]","3","high nameability","29","right","audio_feedback","1"
"html-button-response","186","354830","0.0-111.0","CKN_101","101","","","","","","null","<button class=""jspsych-btn""><img src=""stimuli/white_square.png"" style=""width: 200px;height: 200px;""></button>","null","blue","yellow","[""blue"",""yellow"",""high nameability""]","right-left","[""yellow"",""blue""]","3","high nameability","29","right","iti",""
"html-button-response","187","356246","0.0-112.0","CKN_101","101","","","","","","1402","","0","orange","red","[""orange"",""red"",""high nameability""]","right-left","[""red"",""orange""]","3","high nameability","30","right","trigger",""
"html-button-response","188","357459","0.0-113.0-0.0","CKN_101","101","","","","","","1204","<button class=""jspsych-btn""><img src=""stimuli/orange.png"" style=""width: 200px;height: 200px;""></button>","1","orange","red","[""orange"",""red"",""high nameability""]","right-left","[""red"",""orange""]","3","high nameability","30","right","response","1"
"html-audio-button-response","189","357665","0.0-113.0-1.0","CKN_101","101","","","","","","null","stimuli/bleep.m4a","null","orange","red","[""orange"",""red"",""high nameability""]","right-left","[""red"",""orange""]","3","high nameability","30","right","audio_feedback","1"
"html-button-response","190","358178","0.0-114.0","CKN_101","101","","","","","","null","<button class=""jspsych-btn""><img src=""stimuli/white_square.png"" style=""width: 200px;height: 200px;""></button>","null","orange","red","[""orange"",""red"",""high nameability""]","right-left","[""red"",""orange""]","3","high nameability","30","right","iti",""
"pavlovia","191","358303","0.0-115.0","CKN_101","101","","","","","","","","","","","","","","","","","","",""
"pavlovia","192","358312","0.0-116.0","CKN_101","101","","","","","","","","","","","","","","","","","","",""
"html-audio-button-response","193","363866","0.0-117.0","CKN_101","101","","","","","","5664","stimuli/tada.m4a","0","","","","","","","","","","",""
"html-button-response","194","364816","0.0-118.0","CKN_101","101","","","","","","945","","0","","","","","","","","","","",""
"html-button-response","195","366717","0.0-119.0","CKN_101","101","","","","","","1891","","0","pink","neonyellow","[""pink"",""neonyellow"",""low nameability""]","right-left","[""neonyellow"",""pink""]","4","low nameability","31","right","trigger",""
"html-button-response","196","367995","0.0-120.0-0.0","CKN_101","101","","","","","","1272","<button class=""jspsych-btn""><img src=""stimuli/pink.png"" style=""width: 200px;height: 200px;""></button>","1","pink","neonyellow","[""pink"",""neonyellow"",""low nameability""]","right-left","[""neonyellow"",""pink""]","4","low nameability","31","right","response","1"
"html-audio-button-response","197","368196","0.0-120.0-1.0","CKN_101","101","","","","","","null","stimuli/bleep.m4a","null","pink","neonyellow","[""pink"",""neonyellow"",""low nameability""]","right-left","[""neonyellow"",""pink""]","4","low nameability","31","right","audio_feedback","1"
"html-button-response","198","368713","0.0-121.0","CKN_101","101","","","","","","null","<button class=""jspsych-btn""><img src=""stimuli/white_square.png"" style=""width: 200px;height: 200px;""></button>","null","pink","neonyellow","[""pink"",""neonyellow"",""low nameability""]","right-left","[""neonyellow"",""pink""]","4","low nameability","31","right","iti",""
"html-button-response","199","370222","0.0-122.0","CKN_101","101","","","","","","1494","","0","red","yellow","[""red"",""yellow"",""high nameability""]","left-right","[""red"",""yellow"",""high nameability""]","4","high nameability","32","left","trigger",""
"html-button-response","200","371073","0.0-123.0-0.0","CKN_101","101","","","","","","845","<button class=""jspsych-btn""><img src=""stimuli/red.png"" style=""width: 200px;height: 200px;""></button>","1","red","yellow","[""red"",""yellow"",""high nameability""]","left-right","[""red"",""yellow"",""high nameability""]","4","high nameability","32","left","response","0"
"html-audio-button-response","201","371705","0.0-123.0-1.0","CKN_101","101","","","","","","null","stimuli/boing.m4a","null","red","yellow","[""red"",""yellow"",""high nameability""]","left-right","[""red"",""yellow"",""high nameability""]","4","high nameability","32","left","audio_feedback","0"
"html-button-response","202","375240","0.0-123.1-0.1","CKN_101","101","","","","","","3508","<button class=""jspsych-btn""><img src=""stimuli/red.png"" style=""width: 200px;height: 200px;""></button>","0","red","yellow","[""red"",""yellow"",""high nameability""]","left-right","[""red"",""yellow"",""high nameability""]","4","high nameability","32","left","response","1"
"html-audio-button-response","203","375450","0.0-123.1-1.1","CKN_101","101","","","","","","null","stimuli/bleep.m4a","null","red","yellow","[""red"",""yellow"",""high nameability""]","left-right","[""red"",""yellow"",""high nameability""]","4","high nameability","32","left","audio_feedback","1"
"html-button-response","204","375970","0.0-124.0","CKN_101","101","","","","","","null","<button class=""jspsych-btn""><img src=""stimuli/white_square.png"" style=""width: 200px;height: 200px;""></button>","null","red","yellow","[""red"",""yellow"",""high nameability""]","left-right","[""red"",""yellow"",""high nameability""]","4","high nameability","32","left","iti",""
"html-button-response","205","377193","0.0-125.0","CKN_101","101","","","","","","1196","","0","neonyellow","darkgreenblue","[""neonyellow"",""darkgreenblue"",""low nameability""]","right-left","[""darkgreenblue"",""neonyellow""]","4","low nameability","33","right","trigger",""
"html-button-response","206","379273","0.0-126.0-0.0","CKN_101","101","","","","","","2068","<button class=""jspsych-btn""><img src=""stimuli/neonyellow.png"" style=""width: 200px;height: 200px;""></button>","0","neonyellow","darkgreenblue","[""neonyellow"",""darkgreenblue"",""low nameability""]","right-left","[""darkgreenblue"",""neonyellow""]","4","low nameability","33","right","response","0"
"html-audio-button-response","207","379909","0.0-126.0-1.0","CKN_101","101","","","","","","null","stimuli/boing.m4a","null","neonyellow","darkgreenblue","[""neonyellow"",""darkgreenblue"",""low nameability""]","right-left","[""darkgreenblue"",""neonyellow""]","4","low nameability","33","right","audio_feedback","0"
"html-button-response","208","380291","0.0-126.1-0.1","CKN_101","101","","","","","","341","<button class=""jspsych-btn""><img src=""stimuli/neonyellow.png"" style=""width: 200px;height: 200px;""></button>","1","neonyellow","darkgreenblue","[""neonyellow"",""darkgreenblue"",""low nameability""]","right-left","[""darkgreenblue"",""neonyellow""]","4","low nameability","33","right","response","1"
"html-audio-button-response","209","380506","0.0-126.1-1.1","CKN_101","101","","","","","","null","stimuli/bleep.m4a","null","neonyellow","darkgreenblue","[""neonyellow"",""darkgreenblue"",""low nameability""]","right-left","[""darkgreenblue"",""neonyellow""]","4","low nameability","33","right","audio_feedback","1"
"html-button-response","210","381020","0.0-127.0","CKN_101","101","","","","","","null","<button class=""jspsych-btn""><img src=""stimuli/white_square.png"" style=""width: 200px;height: 200px;""></button>","null","neonyellow","darkgreenblue","[""neonyellow"",""darkgreenblue"",""low nameability""]","right-left","[""darkgreenblue"",""neonyellow""]","4","low nameability","33","right","iti",""
"html-button-response","211","382459","0.0-128.0","CKN_101","101","","","","","","1426","","0","pink","mustard","[""pink"",""mustard"",""low nameability""]","right-left","[""mustard"",""pink""]","4","low nameability","34","right","trigger",""
"html-button-response","212","384191","0.0-129.0-0.0","CKN_101","101","","","","","","1718","<button class=""jspsych-btn""><img src=""stimuli/pink.png"" style=""width: 200px;height: 200px;""></button>","1","pink","mustard","[""pink"",""mustard"",""low nameability""]","right-left","[""mustard"",""pink""]","4","low nameability","34","right","response","1"
"html-audio-button-response","213","384403","0.0-129.0-1.0","CKN_101","101","","","","","","null","stimuli/bleep.m4a","null","pink","mustard","[""pink"",""mustard"",""low nameability""]","right-left","[""mustard"",""pink""]","4","low nameability","34","right","audio_feedback","1"
"html-button-response","214","384920","0.0-130.0","CKN_101","101","","","","","","null","<button class=""jspsych-btn""><img src=""stimuli/white_square.png"" style=""width: 200px;height: 200px;""></button>","null","pink","mustard","[""pink"",""mustard"",""low nameability""]","right-left","[""mustard"",""pink""]","4","low nameability","34","right","iti",""
"html-button-response","215","389982","0.0-131.0","CKN_101","101","","","","","","5046","","0","orange","purple","[""orange"",""purple"",""high nameability""]","right-left","[""purple"",""orange""]","4","high nameability","35","right","trigger",""
"html-button-response","216","391074","0.0-132.0-0.0","CKN_101","101","","","","","","1079","<button class=""jspsych-btn""><img src=""stimuli/orange.png"" style=""width: 200px;height: 200px;""></button>","1","orange","purple","[""orange"",""purple"",""high nameability""]","right-left","[""purple"",""orange""]","4","high nameability","35","right","response","1"
"html-audio-button-response","217","391277","0.0-132.0-1.0","CKN_101","101","","","","","","null","stimuli/bleep.m4a","null","orange","purple","[""orange"",""purple"",""high nameability""]","right-left","[""purple"",""orange""]","4","high nameability","35","right","audio_feedback","1"
"html-button-response","218","391798","0.0-133.0","CKN_101","101","","","","","","null","<button class=""jspsych-btn""><img src=""stimuli/white_square.png"" style=""width: 200px;height: 200px;""></button>","null","orange","purple","[""orange"",""purple"",""high nameability""]","right-left","[""purple"",""orange""]","4","high nameability","35","right","iti",""
"html-button-response","219","397304","0.0-134.0","CKN_101","101","","","","","","5493","","0","blue","orange","[""blue"",""orange"",""high nameability""]","left-right","[""blue"",""orange"",""high nameability""]","4","high nameability","36","left","trigger",""
"html-button-response","220","398623","0.0-135.0-0.0","CKN_101","101","","","","","","1312","<button class=""jspsych-btn""><img src=""stimuli/blue.png"" style=""width: 200px;height: 200px;""></button>","0","blue","orange","[""blue"",""orange"",""high nameability""]","left-right","[""blue"",""orange"",""high nameability""]","4","high nameability","36","left","response","1"
"html-audio-button-response","221","398823","0.0-135.0-1.0","CKN_101","101","","","","","","null","stimuli/bleep.m4a","null","blue","orange","[""blue"",""orange"",""high nameability""]","left-right","[""blue"",""orange"",""high nameability""]","4","high nameability","36","left","audio_feedback","1"
"html-button-response","222","399336","0.0-136.0","CKN_101","101","","","","","","null","<button class=""jspsych-btn""><img src=""stimuli/white_square.png"" style=""width: 200px;height: 200px;""></button>","null","blue","orange","[""blue"",""orange"",""high nameability""]","left-right","[""blue"",""orange"",""high nameability""]","4","high nameability","36","left","iti",""
"html-button-response","223","401352","0.0-137.0","CKN_101","101","","","","","","2000","","0","orange","brown","[""orange"",""brown"",""high nameability""]","left-right","[""orange"",""brown"",""high nameability""]","4","high nameability","37","left","trigger",""
"html-button-response","224","402702","0.0-138.0-0.0","CKN_101","101","","","","","","1342","<button class=""jspsych-btn""><img src=""stimuli/orange.png"" style=""width: 200px;height: 200px;""></button>","0","orange","brown","[""orange"",""brown"",""high nameability""]","left-right","[""orange"",""brown"",""high nameability""]","4","high nameability","37","left","response","1"
"html-audio-button-response","225","402903","0.0-138.0-1.0","CKN_101","101","","","","","","null","stimuli/bleep.m4a","null","orange","brown","[""orange"",""brown"",""high nameability""]","left-right","[""orange"",""brown"",""high nameability""]","4","high nameability","37","left","audio_feedback","1"
"html-button-response","226","403417","0.0-139.0","CKN_101","101","","","","","","null","<button class=""jspsych-btn""><img src=""stimuli/white_square.png"" style=""width: 200px;height: 200px;""></button>","null","orange","brown","[""orange"",""brown"",""high nameability""]","left-right","[""orange"",""brown"",""high nameability""]","4","high nameability","37","left","iti",""
"html-button-response","227","405282","0.0-140.0","CKN_101","101","","","","","","1854","","0","red","brown","[""red"",""brown"",""high nameability""]","left-right","[""red"",""brown"",""high nameability""]","4","high nameability","38","left","trigger",""
"html-button-response","228","406459","0.0-141.0-0.0","CKN_101","101","","","","","","1168","<button class=""jspsych-btn""><img src=""stimuli/red.png"" style=""width: 200px;height: 200px;""></button>","1","red","brown","[""red"",""brown"",""high nameability""]","left-right","[""red"",""brown"",""high nameability""]","4","high nameability","38","left","response","0"
"html-audio-button-response","229","407092","0.0-141.0-1.0","CKN_101","101","","","","","","null","stimuli/boing.m4a","null","red","brown","[""red"",""brown"",""high nameability""]","left-right","[""red"",""brown"",""high nameability""]","4","high nameability","38","left","audio_feedback","0"
"html-button-response","230","409476","0.0-141.1-0.1","CKN_101","101","","","","","","2364","<button class=""jspsych-btn""><img src=""stimuli/red.png"" style=""width: 200px;height: 200px;""></button>","0","red","brown","[""red"",""brown"",""high nameability""]","left-right","[""red"",""brown"",""high nameability""]","4","high nameability","38","left","response","1"
"html-audio-button-response","231","409682","0.0-141.1-1.1","CKN_101","101","","","","","","null","stimuli/bleep.m4a","null","red","brown","[""red"",""brown"",""high nameability""]","left-right","[""red"",""brown"",""high nameability""]","4","high nameability","38","left","audio_feedback","1"
"html-button-response","232","410200","0.0-142.0","CKN_101","101","","","","","","null","<button class=""jspsych-btn""><img src=""stimuli/white_square.png"" style=""width: 200px;height: 200px;""></button>","null","red","brown","[""red"",""brown"",""high nameability""]","left-right","[""red"",""brown"",""high nameability""]","4","high nameability","38","left","iti",""
"html-button-response","233","412002","0.0-143.0","CKN_101","101","","","","","","1789","","0","blue","red","[""blue"",""red"",""high nameability""]","right-left","[""red"",""blue""]","4","high nameability","39","right","trigger",""
"html-button-response","234","414577","0.0-144.0-0.0","CKN_101","101","","","","","","2566","<button class=""jspsych-btn""><img src=""stimuli/blue.png"" style=""width: 200px;height: 200px;""></button>","1","blue","red","[""blue"",""red"",""high nameability""]","right-left","[""red"",""blue""]","4","high nameability","39","right","response","1"
"html-audio-button-response","235","414781","0.0-144.0-1.0","CKN_101","101","","","","","","null","stimuli/bleep.m4a","null","blue","red","[""blue"",""red"",""high nameability""]","right-left","[""red"",""blue""]","4","high nameability","39","right","audio_feedback","1"
"html-button-response","236","415299","0.0-145.0","CKN_101","101","","","","","","null","<button class=""jspsych-btn""><img src=""stimuli/white_square.png"" style=""width: 200px;height: 200px;""></button>","null","blue","red","[""blue"",""red"",""high nameability""]","right-left","[""red"",""blue""]","4","high nameability","39","right","iti",""
"html-button-response","237","416619","0.0-146.0","CKN_101","101","","","","","","1309","","0","darkgreenblue","turquoise","[""darkgreenblue"",""turquoise"",""low nameability""]","left-right","[""darkgreenblue"",""turquoise"",""low nameability""]","4","low nameability","40","left","trigger",""
"html-button-response","238","418194","0.0-147.0-0.0","CKN_101","101","","","","","","1565","<button class=""jspsych-btn""><img src=""stimuli/darkgreenblue.png"" style=""width: 200px;height: 200px;""></button>","1","darkgreenblue","turquoise","[""darkgreenblue"",""turquoise"",""low nameability""]","left-right","[""darkgreenblue"",""turquoise"",""low nameability""]","4","low nameability","40","left","response","0"
"html-audio-button-response","239","418828","0.0-147.0-1.0","CKN_101","101","","","","","","null","stimuli/boing.m4a","null","darkgreenblue","turquoise","[""darkgreenblue"",""turquoise"",""low nameability""]","left-right","[""darkgreenblue"",""turquoise"",""low nameability""]","4","low nameability","40","left","audio_feedback","0"
"html-button-response","240","421503","0.0-147.1-0.1","CKN_101","101","","","","","","2663","<button class=""jspsych-btn""><img src=""stimuli/darkgreenblue.png"" style=""width: 200px;height: 200px;""></button>","0","darkgreenblue","turquoise","[""darkgreenblue"",""turquoise"",""low nameability""]","left-right","[""darkgreenblue"",""turquoise"",""low nameability""]","4","low nameability","40","left","response","1"
"html-audio-button-response","241","421707","0.0-147.1-1.1","CKN_101","101","","","","","","null","stimuli/bleep.m4a","null","darkgreenblue","turquoise","[""darkgreenblue"",""turquoise"",""low nameability""]","left-right","[""darkgreenblue"",""turquoise"",""low nameability""]","4","low nameability","40","left","audio_feedback","1"
"html-button-response","242","422217","0.0-148.0","CKN_101","101","","","","","","null","<button class=""jspsych-btn""><img src=""stimuli/white_square.png"" style=""width: 200px;height: 200px;""></button>","null","darkgreenblue","turquoise","[""darkgreenblue"",""turquoise"",""low nameability""]","left-right","[""darkgreenblue"",""turquoise"",""low nameability""]","4","low nameability","40","left","iti",""
"pavlovia","243","422293","0.0-149.0","CKN_101","101","","","","","","","","","","","","","","","","","","",""
"pavlovia","244","422301","0.0-150.0","CKN_101","101","","","","","","","","","","","","","","","","","","",""
"html-audio-button-response","245","429082","0.0-151.0","CKN_101","101","","","","","","6861","stimuli/tada.m4a","0","","","","","","","","","","",""
"html-button-response","246","430053","0.0-152.0","CKN_101","101","","","","","","963","","0","","","","","","","","","","",""
"html-button-response","247","434352","0.0-153.0","CKN_101","101","","","","","","4288","","0","lightred","mustard","[""lightred"",""mustard"",""low nameability""]","left-right","[""lightred"",""mustard"",""low nameability""]","5","low nameability","41","left","trigger",""
"html-button-response","248","435528","0.0-154.0-0.0","CKN_101","101","","","","","","1164","<button class=""jspsych-btn""><img src=""stimuli/lightred.png"" style=""width: 200px;height: 200px;""></button>","1","lightred","mustard","[""lightred"",""mustard"",""low nameability""]","left-right","[""lightred"",""mustard"",""low nameability""]","5","low nameability","41","left","response","0"
"html-audio-button-response","249","436158","0.0-154.0-1.0","CKN_101","101","","","","","","null","stimuli/boing.m4a","null","lightred","mustard","[""lightred"",""mustard"",""low nameability""]","left-right","[""lightred"",""mustard"",""low nameability""]","5","low nameability","41","left","audio_feedback","0"
"html-button-response","250","437392","0.0-154.1-0.1","CKN_101","101","","","","","","1210","<button class=""jspsych-btn""><img src=""stimuli/lightred.png"" style=""width: 200px;height: 200px;""></button>","0","lightred","mustard","[""lightred"",""mustard"",""low nameability""]","left-right","[""lightred"",""mustard"",""low nameability""]","5","low nameability","41","left","response","1"
"html-audio-button-response","251","437599","0.0-154.1-1.1","CKN_101","101","","","","","","null","stimuli/bleep.m4a","null","lightred","mustard","[""lightred"",""mustard"",""low nameability""]","left-right","[""lightred"",""mustard"",""low nameability""]","5","low nameability","41","left","audio_feedback","1"
"html-button-response","252","438120","0.0-155.0","CKN_101","101","","","","","","null","<button class=""jspsych-btn""><img src=""stimuli/white_square.png"" style=""width: 200px;height: 200px;""></button>","null","lightred","mustard","[""lightred"",""mustard"",""low nameability""]","left-right","[""lightred"",""mustard"",""low nameability""]","5","low nameability","41","left","iti",""
"html-button-response","253","439566","0.0-156.0","CKN_101","101","","","","","","1413","","0","red","blue","[""red"",""blue"",""high nameability""]","right-left","[""blue"",""red""]","5","high nameability","42","right","trigger",""
"html-button-response","254","441219","0.0-157.0-0.0","CKN_101","101","","","","","","1644","<button class=""jspsych-btn""><img src=""stimuli/red.png"" style=""width: 200px;height: 200px;""></button>","0","red","blue","[""red"",""blue"",""high nameability""]","right-left","[""blue"",""red""]","5","high nameability","42","right","response","0"
"html-audio-button-response","255","441866","0.0-157.0-1.0","CKN_101","101","","","","","","null","stimuli/boing.m4a","null","red","blue","[""red"",""blue"",""high nameability""]","right-left","[""blue"",""red""]","5","high nameability","42","right","audio_feedback","0"
"html-button-response","256","442397","0.0-157.1-0.1","CKN_101","101","","","","","","492","<button class=""jspsych-btn""><img src=""stimuli/red.png"" style=""width: 200px;height: 200px;""></button>","1","red","blue","[""red"",""blue"",""high nameability""]","right-left","[""blue"",""red""]","5","high nameability","42","right","response","1"
"html-audio-button-response","257","442613","0.0-157.1-1.1","CKN_101","101","","","","","","null","stimuli/bleep.m4a","null","red","blue","[""red"",""blue"",""high nameability""]","right-left","[""blue"",""red""]","5","high nameability","42","right","audio_feedback","1"
"html-button-response","258","443128","0.0-158.0","CKN_101","101","","","","","","null","<button class=""jspsych-btn""><img src=""stimuli/white_square.png"" style=""width: 200px;height: 200px;""></button>","null","red","blue","[""red"",""blue"",""high nameability""]","right-left","[""blue"",""red""]","5","high nameability","42","right","iti",""
"html-button-response","259","445306","0.0-159.0","CKN_101","101","","","","","","2162","","0","yellow","brown","[""yellow"",""brown"",""high nameability""]","right-left","[""brown"",""yellow""]","5","high nameability","43","right","trigger",""
"html-button-response","260","446629","0.0-160.0-0.0","CKN_101","101","","","","","","1315","<button class=""jspsych-btn""><img src=""stimuli/yellow.png"" style=""width: 200px;height: 200px;""></button>","1","yellow","brown","[""yellow"",""brown"",""high nameability""]","right-left","[""brown"",""yellow""]","5","high nameability","43","right","response","1"
"html-audio-button-response","261","446839","0.0-160.0-1.0","CKN_101","101","","","","","","null","stimuli/bleep.m4a","null","yellow","brown","[""yellow"",""brown"",""high nameability""]","right-left","[""brown"",""yellow""]","5","high nameability","43","right","audio_feedback","1"
"html-button-response","262","447354","0.0-161.0","CKN_101","101","","","","","","null","<button class=""jspsych-btn""><img src=""stimuli/white_square.png"" style=""width: 200px;height: 200px;""></button>","null","yellow","brown","[""yellow"",""brown"",""high nameability""]","right-left","[""brown"",""yellow""]","5","high nameability","43","right","iti",""
"html-button-response","263","448838","0.0-162.0","CKN_101","101","","","","","","1467","","0","blue","purple","[""blue"",""purple"",""high nameability""]","left-right","[""blue"",""purple"",""high nameability""]","5","high nameability","44","left","trigger",""
"html-button-response","264","450333","0.0-163.0-0.0","CKN_101","101","","","","","","1488","<button class=""jspsych-btn""><img src=""stimuli/blue.png"" style=""width: 200px;height: 200px;""></button>","0","blue","purple","[""blue"",""purple"",""high nameability""]","left-right","[""blue"",""purple"",""high nameability""]","5","high nameability","44","left","response","1"
"html-audio-button-response","265","450538","0.0-163.0-1.0","CKN_101","101","","","","","","null","stimuli/bleep.m4a","null","blue","purple","[""blue"",""purple"",""high nameability""]","left-right","[""blue"",""purple"",""high nameability""]","5","high nameability","44","left","audio_feedback","1"
"html-button-response","266","451062","0.0-164.0","CKN_101","101","","","","","","null","<button class=""jspsych-btn""><img src=""stimuli/white_square.png"" style=""width: 200px;height: 200px;""></button>","null","blue","purple","[""blue"",""purple"",""high nameability""]","left-right","[""blue"",""purple"",""high nameability""]","5","high nameability","44","left","iti",""
"html-button-response","267","457254","0.0-165.0","CKN_101","101","","","","","","6178","","0","brown","yellow","[""brown"",""yellow"",""high nameability""]","right-left","[""yellow"",""brown""]","5","high nameability","45","right","trigger",""
"html-button-response","268","459923","0.0-166.0-0.0","CKN_101","101","","","","","","2657","<button class=""jspsych-btn""><img src=""stimuli/brown.png"" style=""width: 200px;height: 200px;""></button>","0","brown","yellow","[""brown"",""yellow"",""high nameability""]","right-left","[""yellow"",""brown""]","5","high nameability","45","right","response","0"
"html-audio-button-response","269","460550","0.0-166.0-1.0","CKN_101","101","","","","","","null","stimuli/boing.m4a","null","brown","yellow","[""brown"",""yellow"",""high nameability""]","right-left","[""yellow"",""brown""]","5","high nameability","45","right","audio_feedback","0"
"html-button-response","270","464350","0.0-166.1-0.1","CKN_101","101","","","","","","3774","<button class=""jspsych-btn""><img src=""stimuli/brown.png"" style=""width: 200px;height: 200px;""></button>","0","brown","yellow","[""brown"",""yellow"",""high nameability""]","right-left","[""yellow"",""brown""]","5","high nameability","45","right","response","0"
"html-audio-button-response","271","464990","0.0-166.1-1.1","CKN_101","101","","","","","","null","stimuli/boing.m4a","null","brown","yellow","[""brown"",""yellow"",""high nameability""]","right-left","[""yellow"",""brown""]","5","high nameability","45","right","audio_feedback","0"
"html-button-response","272","466465","0.0-166.2-0.2","CKN_101","101","","","","","","1452","<button class=""jspsych-btn""><img src=""stimuli/brown.png"" style=""width: 200px;height: 200px;""></button>","1","brown","yellow","[""brown"",""yellow"",""high nameability""]","right-left","[""yellow"",""brown""]","5","high nameability","45","right","response","1"
"html-audio-button-response","273","466668","0.0-166.2-1.2","CKN_101","101","","","","","","null","stimuli/bleep.m4a","null","brown","yellow","[""brown"",""yellow"",""high nameability""]","right-left","[""yellow"",""brown""]","5","high nameability","45","right","audio_feedback","1"
"html-button-response","274","467179","0.0-167.0","CKN_101","101","","","","","","null","<button class=""jspsych-btn""><img src=""stimuli/white_square.png"" style=""width: 200px;height: 200px;""></button>","null","brown","yellow","[""brown"",""yellow"",""high nameability""]","right-left","[""yellow"",""brown""]","5","high nameability","45","right","iti",""
"html-button-response","275","469153","0.0-168.0","CKN_101","101","","","","","","1966","","0","neonyellow","pink","[""neonyellow"",""pink"",""low nameability""]","left-right","[""neonyellow"",""pink"",""low nameability""]","5","low nameability","46","left","trigger",""
"html-button-response","276","473010","0.0-169.0-0.0","CKN_101","101","","","","","","3849","<button class=""jspsych-btn""><img src=""stimuli/neonyellow.png"" style=""width: 200px;height: 200px;""></button>","0","neonyellow","pink","[""neonyellow"",""pink"",""low nameability""]","left-right","[""neonyellow"",""pink"",""low nameability""]","5","low nameability","46","left","response","1"
"html-audio-button-response","277","473215","0.0-169.0-1.0","CKN_101","101","","","","","","null","stimuli/bleep.m4a","null","neonyellow","pink","[""neonyellow"",""pink"",""low nameability""]","left-right","[""neonyellow"",""pink"",""low nameability""]","5","low nameability","46","left","audio_feedback","1"
"html-button-response","278","473727","0.0-170.0","CKN_101","101","","","","","","null","<button class=""jspsych-btn""><img src=""stimuli/white_square.png"" style=""width: 200px;height: 200px;""></button>","null","neonyellow","pink","[""neonyellow"",""pink"",""low nameability""]","left-right","[""neonyellow"",""pink"",""low nameability""]","5","low nameability","46","left","iti",""
"html-button-response","279","475755","0.0-171.0","CKN_101","101","","","","","","2018","","0","mustard","turquoise","[""mustard"",""turquoise"",""low nameability""]","left-right","[""mustard"",""turquoise"",""low nameability""]","5","low nameability","47","left","trigger",""
"html-button-response","280","477099","0.0-172.0-0.0","CKN_101","101","","","","","","1334","<button class=""jspsych-btn""><img src=""stimuli/mustard.png"" style=""width: 200px;height: 200px;""></button>","0","mustard","turquoise","[""mustard"",""turquoise"",""low nameability""]","left-right","[""mustard"",""turquoise"",""low nameability""]","5","low nameability","47","left","response","1"
"html-audio-button-response","281","477306","0.0-172.0-1.0","CKN_101","101","","","","","","null","stimuli/bleep.m4a","null","mustard","turquoise","[""mustard"",""turquoise"",""low nameability""]","left-right","[""mustard"",""turquoise"",""low nameability""]","5","low nameability","47","left","audio_feedback","1"
"html-button-response","282","477817","0.0-173.0","CKN_101","101","","","","","","null","<button class=""jspsych-btn""><img src=""stimuli/white_square.png"" style=""width: 200px;height: 200px;""></button>","null","mustard","turquoise","[""mustard"",""turquoise"",""low nameability""]","left-right","[""mustard"",""turquoise"",""low nameability""]","5","low nameability","47","left","iti",""
"html-button-response","283","479107","0.0-174.0","CKN_101","101","","","","","","1279","","0","lightred","pink","[""lightred"",""pink"",""low nameability""]","left-right","[""lightred"",""pink"",""low nameability""]","5","low nameability","48","left","trigger",""
"html-button-response","284","480054","0.0-175.0-0.0","CKN_101","101","","","","","","939","<button class=""jspsych-btn""><img src=""stimuli/lightred.png"" style=""width: 200px;height: 200px;""></button>","0","lightred","pink","[""lightred"",""pink"",""low nameability""]","left-right","[""lightred"",""pink"",""low nameability""]","5","low nameability","48","left","response","1"
"html-audio-button-response","285","480259","0.0-175.0-1.0","CKN_101","101","","","","","","null","stimuli/bleep.m4a","null","lightred","pink","[""lightred"",""pink"",""low nameability""]","left-right","[""lightred"",""pink"",""low nameability""]","5","low nameability","48","left","audio_feedback","1"
"html-button-response","286","480773","0.0-176.0","CKN_101","101","","","","","","null","<button class=""jspsych-btn""><img src=""stimuli/white_square.png"" style=""width: 200px;height: 200px;""></button>","null","lightred","pink","[""lightred"",""pink"",""low nameability""]","left-right","[""lightred"",""pink"",""low nameability""]","5","low nameability","48","left","iti",""
"html-button-response","287","484468","0.0-177.0","CKN_101","101","","","","","","3683","","0","orange","blue","[""orange"",""blue"",""high nameability""]","right-left","[""blue"",""orange""]","5","high nameability","49","right","trigger",""
"html-button-response","288","486519","0.0-178.0-0.0","CKN_101","101","","","","","","2043","<button class=""jspsych-btn""><img src=""stimuli/orange.png"" style=""width: 200px;height: 200px;""></button>","0","orange","blue","[""orange"",""blue"",""high nameability""]","right-left","[""blue"",""orange""]","5","high nameability","49","right","response","0"
"html-audio-button-response","289","487150","0.0-178.0-1.0","CKN_101","101","","","","","","null","stimuli/boing.m4a","null","orange","blue","[""orange"",""blue"",""high nameability""]","right-left","[""blue"",""orange""]","5","high nameability","49","right","audio_feedback","0"
"html-button-response","290","487757","0.0-178.1-0.1","CKN_101","101","","","","","","587","<button class=""jspsych-btn""><img src=""stimuli/orange.png"" style=""width: 200px;height: 200px;""></button>","1","orange","blue","[""orange"",""blue"",""high nameability""]","right-left","[""blue"",""orange""]","5","high nameability","49","right","response","1"
"html-audio-button-response","291","487960","0.0-178.1-1.1","CKN_101","101","","","","","","null","stimuli/bleep.m4a","null","orange","blue","[""orange"",""blue"",""high nameability""]","right-left","[""blue"",""orange""]","5","high nameability","49","right","audio_feedback","1"
"html-button-response","292","488475","0.0-179.0","CKN_101","101","","","","","","null","<button class=""jspsych-btn""><img src=""stimuli/white_square.png"" style=""width: 200px;height: 200px;""></button>","null","orange","blue","[""orange"",""blue"",""high nameability""]","right-left","[""blue"",""orange""]","5","high nameability","49","right","iti",""
"html-button-response","293","491099","0.0-180.0","CKN_101","101","","","","","","2611","","0","turquoise","neonyellow","[""turquoise"",""neonyellow"",""low nameability""]","left-right","[""turquoise"",""neonyellow"",""low nameability""]","5","low nameability","50","left","trigger",""
"html-button-response","294","494090","0.0-181.0-0.0","CKN_101","101","","","","","","2981","<button class=""jspsych-btn""><img src=""stimuli/turquoise.png"" style=""width: 200px;height: 200px;""></button>","0","turquoise","neonyellow","[""turquoise"",""neonyellow"",""low nameability""]","left-right","[""turquoise"",""neonyellow"",""low nameability""]","5","low nameability","50","left","response","1"
"html-audio-button-response","295","494297","0.0-181.0-1.0","CKN_101","101","","","","","","null","stimuli/bleep.m4a","null","turquoise","neonyellow","[""turquoise"",""neonyellow"",""low nameability""]","left-right","[""turquoise"",""neonyellow"",""low nameability""]","5","low nameability","50","left","audio_feedback","1"
"html-button-response","296","494814","0.0-182.0","CKN_101","101","","","","","","null","<button class=""jspsych-btn""><img src=""stimuli/white_square.png"" style=""width: 200px;height: 200px;""></button>","null","turquoise","neonyellow","[""turquoise"",""neonyellow"",""low nameability""]","left-right","[""turquoise"",""neonyellow"",""low nameability""]","5","low nameability","50","left","iti",""
"pavlovia","297","494912","0.0-183.0","CKN_101","101","","","","","","","","","","","","","","","","","","",""
"pavlovia","298","494921","0.0-184.0","CKN_101","101","","","","","","","","","","","","","","","","","","",""
"html-audio-button-response","299","501630","0.0-185.0","CKN_101","101","","","","","","6811","stimuli/tada.m4a","0","","","","","","","","","","",""
"html-button-response","300","502250","0.0-186.0","CKN_101","101","","","","","","612","","0","","","","","","","","","","",""
"html-button-response","301","504550","0.0-187.0","CKN_101","101","","","","","","2287","","0","neonyellow","turquoise","[""neonyellow"",""turquoise"",""low nameability""]","right-left","[""turquoise"",""neonyellow""]","6","low nameability","51","right","trigger",""
"html-button-response","302","505968","0.0-188.0-0.0","CKN_101","101","","","","","","1403","<button class=""jspsych-btn""><img src=""stimuli/neonyellow.png"" style=""width: 200px;height: 200px;""></button>","1","neonyellow","turquoise","[""neonyellow"",""turquoise"",""low nameability""]","right-left","[""turquoise"",""neonyellow""]","6","low nameability","51","right","response","1"
"html-audio-button-response","303","506178","0.0-188.0-1.0","CKN_101","101","","","","","","null","stimuli/bleep.m4a","null","neonyellow","turquoise","[""neonyellow"",""turquoise"",""low nameability""]","right-left","[""turquoise"",""neonyellow""]","6","low nameability","51","right","audio_feedback","1"
"html-button-response","304","506708","0.0-189.0","CKN_101","101","","","","","","null","<button class=""jspsych-btn""><img src=""stimuli/white_square.png"" style=""width: 200px;height: 200px;""></button>","null","neonyellow","turquoise","[""neonyellow"",""turquoise"",""low nameability""]","right-left","[""turquoise"",""neonyellow""]","6","low nameability","51","right","iti",""
"html-button-response","305","514208","0.0-190.0","CKN_101","101","","","","","","7478","","0","purple","blue","[""purple"",""blue"",""high nameability""]","left-right","[""purple"",""blue"",""high nameability""]","6","high nameability","52","left","trigger",""
"html-button-response","306","516286","0.0-191.0-0.0","CKN_101","101","","","","","","2065","<button class=""jspsych-btn""><img src=""stimuli/purple.png"" style=""width: 200px;height: 200px;""></button>","0","purple","blue","[""purple"",""blue"",""high nameability""]","left-right","[""purple"",""blue"",""high nameability""]","6","high nameability","52","left","response","1"
"html-audio-button-response","307","516496","0.0-191.0-1.0","CKN_101","101","","","","","","null","stimuli/bleep.m4a","null","purple","blue","[""purple"",""blue"",""high nameability""]","left-right","[""purple"",""blue"",""high nameability""]","6","high nameability","52","left","audio_feedback","1"
"html-button-response","308","517011","0.0-192.0","CKN_101","101","","","","","","null","<button class=""jspsych-btn""><img src=""stimuli/white_square.png"" style=""width: 200px;height: 200px;""></button>","null","purple","blue","[""purple"",""blue"",""high nameability""]","left-right","[""purple"",""blue"",""high nameability""]","6","high nameability","52","left","iti",""
"html-button-response","309","518113","0.0-193.0","CKN_101","101","","","","","","1083","","0","mustard","pink","[""mustard"",""pink"",""low nameability""]","left-right","[""mustard"",""pink"",""low nameability""]","6","low nameability","53","left","trigger",""
"html-button-response","310","519144","0.0-194.0-0.0","CKN_101","101","","","","","","1016","<button class=""jspsych-btn""><img src=""stimuli/mustard.png"" style=""width: 200px;height: 200px;""></button>","0","mustard","pink","[""mustard"",""pink"",""low nameability""]","left-right","[""mustard"",""pink"",""low nameability""]","6","low nameability","53","left","response","1"
"html-audio-button-response","311","519351","0.0-194.0-1.0","CKN_101","101","","","","","","null","stimuli/bleep.m4a","null","mustard","pink","[""mustard"",""pink"",""low nameability""]","left-right","[""mustard"",""pink"",""low nameability""]","6","low nameability","53","left","audio_feedback","1"
"html-button-response","312","519868","0.0-195.0","CKN_101","101","","","","","","null","<button class=""jspsych-btn""><img src=""stimuli/white_square.png"" style=""width: 200px;height: 200px;""></button>","null","mustard","pink","[""mustard"",""pink"",""low nameability""]","left-right","[""mustard"",""pink"",""low nameability""]","6","low nameability","53","left","iti",""
"html-button-response","313","521904","0.0-196.0","CKN_101","101","","","","","","2019","","0","pink","turquoise","[""pink"",""turquoise"",""low nameability""]","right-left","[""turquoise"",""pink""]","6","low nameability","54","right","trigger",""
"html-button-response","314","524352","0.0-197.0-0.0","CKN_101","101","","","","","","2441","<button class=""jspsych-btn""><img src=""stimuli/pink.png"" style=""width: 200px;height: 200px;""></button>","0","pink","turquoise","[""pink"",""turquoise"",""low nameability""]","right-left","[""turquoise"",""pink""]","6","low nameability","54","right","response","0"
"html-audio-button-response","315","524987","0.0-197.0-1.0","CKN_101","101","","","","","","null","stimuli/boing.m4a","null","pink","turquoise","[""pink"",""turquoise"",""low nameability""]","right-left","[""turquoise"",""pink""]","6","low nameability","54","right","audio_feedback","0"
"html-button-response","316","525385","0.0-197.1-0.1","CKN_101","101","","","","","","381","<button class=""jspsych-btn""><img src=""stimuli/pink.png"" style=""width: 200px;height: 200px;""></button>","1","pink","turquoise","[""pink"",""turquoise"",""low nameability""]","right-left","[""turquoise"",""pink""]","6","low nameability","54","right","response","1"
"html-audio-button-response","317","525590","0.0-197.1-1.1","CKN_101","101","","","","","","null","stimuli/bleep.m4a","null","pink","turquoise","[""pink"",""turquoise"",""low nameability""]","right-left","[""turquoise"",""pink""]","6","low nameability","54","right","audio_feedback","1"
"html-button-response","318","526109","0.0-198.0","CKN_101","101","","","","","","null","<button class=""jspsych-btn""><img src=""stimuli/white_square.png"" style=""width: 200px;height: 200px;""></button>","null","pink","turquoise","[""pink"",""turquoise"",""low nameability""]","right-left","[""turquoise"",""pink""]","6","low nameability","54","right","iti",""
"html-button-response","319","528110","0.0-199.0","CKN_101","101","","","","","","1981","","0","brown","blue","[""brown"",""blue"",""high nameability""]","left-right","[""brown"",""blue"",""high nameability""]","6","high nameability","55","left","trigger",""
"html-button-response","320","530705","0.0-200.0-0.0","CKN_101","101","","","","","","2586","<button class=""jspsych-btn""><img src=""stimuli/brown.png"" style=""width: 200px;height: 200px;""></button>","1","brown","blue","[""brown"",""blue"",""high nameability""]","left-right","[""brown"",""blue"",""high nameability""]","6","high nameability","55","left","response","0"
