"trial_type","trial_index","time_elapsed","internal_node_id","subject_id","seed","success","timeout","failed_images","failed_audio","failed_video","rt","stimulus","response","target","foil","choices","combination_order","choices_in_order","round","condition","trial_counter","target_location","trial_kind","correct"
"pavlovia","0","23","0.0-0.0","CKN_108","108","","","","","","","","","","","","","","","","","","",""
"preload","1","616","0.0-1.0","CKN_108","108","true","false","[]","[]","[]","","","","","","","","","","","","","",""
"fullscreen","2","2639","0.0-2.0","CKN_108","108","true","","","","","","","","","","","","","","","","","",""
"html-button-response","3","24785","0.0-3.0","CKN_108","108","","","","","","22117","","0","","","","","","","","","","",""
"html-button-response","4","30191","0.0-4.0","CKN_108","108","","","","","","5396","","0","star","square","[""square"",""star""]","left-right","[""square"",""star""]","1","practice","1","right","trigger",""
"html-button-response","5","57366","0.0-5.0-0.0","CKN_108","108","","","","","","27155","<button class=""jspsych-btn""><img src=""stimuli/star.png"" style=""width: 200px;height: 200px;""></button>","1","star","square","[""square"",""star""]","left-right","[""square"",""star""]","1","practice","1","right","response","1"
"html-audio-button-response","6","57586","0.0-5.0-1.0","CKN_108","108","","","","","","null","stimuli/bleep.m4a","null","star","square","[""square"",""star""]","left-right","[""square"",""star""]","1","practice","1","right","audio_feedback","1"
"html-button-response","7","58105","0.0-6.0","CKN_108","108","","","","","","null","<button class=""jspsych-btn""><img src=""stimuli/white_square.png"" style=""width: 200px;height: 200px;""></button>","null","star","square","[""square"",""star""]","left-right","[""square"",""star""]","1","practice","1","right","iti",""
"html-button-response","8","60784","0.0-7.0","CKN_108","108","","","","","","2658","","0","triangle","pentagram","[""triangle"",""pentagram""]","left-right","[""triangle"",""pentagram""]","1","practice","1","left","trigger",""
"html-button-response","9","70593","0.0-8.0-0.0","CKN_108","108","","","","","","9794","<button class=""jspsych-btn""><img src=""stimuli/triangle.png"" style=""width: 200px;height: 200px;""></button>","0","triangle","pentagram","[""triangle"",""pentagram""]","left-right","[""triangle"",""pentagram""]","1","practice","1","left","response","1"
"html-audio-button-response","10","70798","0.0-8.0-1.0","CKN_108","108","","","","","","null","stimuli/bleep.m4a","null","triangle","pentagram","[""triangle"",""pentagram""]","left-right","[""triangle"",""pentagram""]","1","practice","1","left","audio_feedback","1"
"html-button-response","11","71315","0.0-9.0","CKN_108","108","","","","","","null","<button class=""jspsych-btn""><img src=""stimuli/white_square.png"" style=""width: 200px;height: 200px;""></button>","null","triangle","pentagram","[""triangle"",""pentagram""]","left-right","[""triangle"",""pentagram""]","1","practice","1","left","iti",""
"html-button-response","12","74053","0.0-10.0","CKN_108","108","","","","","","2725","","0","diamond","rectangle","[""rectangle"",""diamond""]","left-right","[""rectangle"",""diamond""]","1","practice","1","right","trigger",""
"html-button-response","13","76377","0.0-11.0-0.0","CKN_108","108","","","","","","2316","<button class=""jspsych-btn""><img src=""stimuli/diamond.png"" style=""width: 200px;height: 200px;""></button>","1","diamond","rectangle","[""rectangle"",""diamond""]","left-right","[""rectangle"",""diamond""]","1","practice","1","right","response","1"
"html-audio-button-response","14","76580","0.0-11.0-1.0","CKN_108","108","","","","","","null","stimuli/bleep.m4a","null","diamond","rectangle","[""rectangle"",""diamond""]","left-right","[""rectangle"",""diamond""]","1","practice","1","right","audio_feedback","1"
"html-button-response","15","77097","0.0-12.0","CKN_108","108","","","","","","null","<button class=""jspsych-btn""><img src=""stimuli/white_square.png"" style=""width: 200px;height: 200px;""></button>","null","diamond","rectangle","[""rectangle"",""diamond""]","left-right","[""rectangle"",""diamond""]","1","practice","1","right","iti",""
"html-button-response","16","79526","0.0-13.0","CKN_108","108","","","","","","2419","","0","pentagram","star","[""pentagram"",""star""]","left-right","[""pentagram"",""star""]","1","practice","1","left","trigger",""
"html-button-response","17","82832","0.0-14.0-0.0","CKN_108","108","","","","","","3300","<button class=""jspsych-btn""><img src=""stimuli/pentagram.png"" style=""width: 200px;height: 200px;""></button>","0","pentagram","star","[""pentagram"",""star""]","left-right","[""pentagram"",""star""]","1","practice","1","left","response","1"
"html-audio-button-response","18","83033","0.0-14.0-1.0","CKN_108","108","","","","","","null","stimuli/bleep.m4a","null","pentagram","star","[""pentagram"",""star""]","left-right","[""pentagram"",""star""]","1","practice","1","left","audio_feedback","1"
"html-button-response","19","83549","0.0-15.0","CKN_108","108","","","","","","null","<button class=""jspsych-btn""><img src=""stimuli/white_square.png"" style=""width: 200px;height: 200px;""></button>","null","pentagram","star","[""pentagram"",""star""]","left-right","[""pentagram"",""star""]","1","practice","1","left","iti",""
"html-button-response","20","93917","0.0-16.0","CKN_108","108","","","","","","10361","","0","","","","","","","","","","",""
"html-button-response","21","97792","0.0-17.0","CKN_108","108","","","","","","3867","","0","lightred","mustard","[""lightred"",""mustard"",""low nameability""]","right-left","[""mustard"",""lightred""]","1","low nameability","1","right","trigger",""
"html-button-response","22","100980","0.0-18.0-0.0","CKN_108","108","","","","","","3182","<button class=""jspsych-btn""><img src=""stimuli/lightred.png"" style=""width: 200px;height: 200px;""></button>","1","lightred","mustard","[""lightred"",""mustard"",""low nameability""]","right-left","[""mustard"",""lightred""]","1","low nameability","1","right","response","1"
"html-audio-button-response","23","101185","0.0-18.0-1.0","CKN_108","108","","","","","","null","stimuli/bleep.m4a","null","lightred","mustard","[""lightred"",""mustard"",""low nameability""]","right-left","[""mustard"",""lightred""]","1","low nameability","1","right","audio_feedback","1"
"html-button-response","24","101706","0.0-19.0","CKN_108","108","","","","","","null","<button class=""jspsych-btn""><img src=""stimuli/white_square.png"" style=""width: 200px;height: 200px;""></button>","null","lightred","mustard","[""lightred"",""mustard"",""low nameability""]","right-left","[""mustard"",""lightred""]","1","low nameability","1","right","iti",""
"html-button-response","25","103727","0.0-20.0","CKN_108","108","","","","","","2013","","0","neonyellow","pink","[""neonyellow"",""pink"",""low nameability""]","right-left","[""pink"",""neonyellow""]","1","low nameability","2","right","trigger",""
"html-button-response","26","105384","0.0-21.0-0.0","CKN_108","108","","","","","","1651","<button class=""jspsych-btn""><img src=""stimuli/neonyellow.png"" style=""width: 200px;height: 200px;""></button>","1","neonyellow","pink","[""neonyellow"",""pink"",""low nameability""]","right-left","[""pink"",""neonyellow""]","1","low nameability","2","right","response","1"
"html-audio-button-response","27","105593","0.0-21.0-1.0","CKN_108","108","","","","","","null","stimuli/bleep.m4a","null","neonyellow","pink","[""neonyellow"",""pink"",""low nameability""]","right-left","[""pink"",""neonyellow""]","1","low nameability","2","right","audio_feedback","1"
"html-button-response","28","106114","0.0-22.0","CKN_108","108","","","","","","null","<button class=""jspsych-btn""><img src=""stimuli/white_square.png"" style=""width: 200px;height: 200px;""></button>","null","neonyellow","pink","[""neonyellow"",""pink"",""low nameability""]","right-left","[""pink"",""neonyellow""]","1","low nameability","2","right","iti",""
"html-button-response","29","109135","0.0-23.0","CKN_108","108","","","","","","3006","","0","neonyellow","darkgreenblue","[""neonyellow"",""darkgreenblue"",""low nameability""]","left-right","[""neonyellow"",""darkgreenblue"",""low nameability""]","1","low nameability","3","left","trigger",""
"html-button-response","30","111280","0.0-24.0-0.0","CKN_108","108","","","","","","2139","<button class=""jspsych-btn""><img src=""stimuli/neonyellow.png"" style=""width: 200px;height: 200px;""></button>","0","neonyellow","darkgreenblue","[""neonyellow"",""darkgreenblue"",""low nameability""]","left-right","[""neonyellow"",""darkgreenblue"",""low nameability""]","1","low nameability","3","left","response","1"
"html-audio-button-response","31","111484","0.0-24.0-1.0","CKN_108","108","","","","","","null","stimuli/bleep.m4a","null","neonyellow","darkgreenblue","[""neonyellow"",""darkgreenblue"",""low nameability""]","left-right","[""neonyellow"",""darkgreenblue"",""low nameability""]","1","low nameability","3","left","audio_feedback","1"
"html-button-response","32","111999","0.0-25.0","CKN_108","108","","","","","","null","<button class=""jspsych-btn""><img src=""stimuli/white_square.png"" style=""width: 200px;height: 200px;""></button>","null","neonyellow","darkgreenblue","[""neonyellow"",""darkgreenblue"",""low nameability""]","left-right","[""neonyellow"",""darkgreenblue"",""low nameability""]","1","low nameability","3","left","iti",""
"html-button-response","33","113910","0.0-26.0","CKN_108","108","","","","","","1896","","0","mustard","pink","[""mustard"",""pink"",""low nameability""]","right-left","[""pink"",""mustard""]","1","low nameability","4","right","trigger",""
"html-button-response","34","116282","0.0-27.0-0.0","CKN_108","108","","","","","","2365","<button class=""jspsych-btn""><img src=""stimuli/mustard.png"" style=""width: 200px;height: 200px;""></button>","1","mustard","pink","[""mustard"",""pink"",""low nameability""]","right-left","[""pink"",""mustard""]","1","low nameability","4","right","response","1"
"html-audio-button-response","35","116485","0.0-27.0-1.0","CKN_108","108","","","","","","null","stimuli/bleep.m4a","null","mustard","pink","[""mustard"",""pink"",""low nameability""]","right-left","[""pink"",""mustard""]","1","low nameability","4","right","audio_feedback","1"
"html-button-response","36","116998","0.0-28.0","CKN_108","108","","","","","","null","<button class=""jspsych-btn""><img src=""stimuli/white_square.png"" style=""width: 200px;height: 200px;""></button>","null","mustard","pink","[""mustard"",""pink"",""low nameability""]","right-left","[""pink"",""mustard""]","1","low nameability","4","right","iti",""
"html-button-response","37","118895","0.0-29.0","CKN_108","108","","","","","","1887","","0","purple","orange","[""purple"",""orange"",""high nameability""]","left-right","[""purple"",""orange"",""high nameability""]","1","high nameability","5","left","trigger",""
"html-button-response","38","120625","0.0-30.0-0.0","CKN_108","108","","","","","","1721","<button class=""jspsych-btn""><img src=""stimuli/purple.png"" style=""width: 200px;height: 200px;""></button>","0","purple","orange","[""purple"",""orange"",""high nameability""]","left-right","[""purple"",""orange"",""high nameability""]","1","high nameability","5","left","response","1"
"html-audio-button-response","39","120825","0.0-30.0-1.0","CKN_108","108","","","","","","null","stimuli/bleep.m4a","null","purple","orange","[""purple"",""orange"",""high nameability""]","left-right","[""purple"",""orange"",""high nameability""]","1","high nameability","5","left","audio_feedback","1"
"html-button-response","40","121332","0.0-31.0","CKN_108","108","","","","","","null","<button class=""jspsych-btn""><img src=""stimuli/white_square.png"" style=""width: 200px;height: 200px;""></button>","null","purple","orange","[""purple"",""orange"",""high nameability""]","left-right","[""purple"",""orange"",""high nameability""]","1","high nameability","5","left","iti",""
"html-button-response","41","123218","0.0-32.0","CKN_108","108","","","","","","1881","","0","darkgreenblue","mustard","[""darkgreenblue"",""mustard"",""low nameability""]","right-left","[""mustard"",""darkgreenblue""]","1","low nameability","6","right","trigger",""
"html-button-response","42","124859","0.0-33.0-0.0","CKN_108","108","","","","","","1632","<button class=""jspsych-btn""><img src=""stimuli/darkgreenblue.png"" style=""width: 200px;height: 200px;""></button>","1","darkgreenblue","mustard","[""darkgreenblue"",""mustard"",""low nameability""]","right-left","[""mustard"",""darkgreenblue""]","1","low nameability","6","right","response","1"
"html-audio-button-response","43","125065","0.0-33.0-1.0","CKN_108","108","","","","","","null","stimuli/bleep.m4a","null","darkgreenblue","mustard","[""darkgreenblue"",""mustard"",""low nameability""]","right-left","[""mustard"",""darkgreenblue""]","1","low nameability","6","right","audio_feedback","1"
"html-button-response","44","125580","0.0-34.0","CKN_108","108","","","","","","null","<button class=""jspsych-btn""><img src=""stimuli/white_square.png"" style=""width: 200px;height: 200px;""></button>","null","darkgreenblue","mustard","[""darkgreenblue"",""mustard"",""low nameability""]","right-left","[""mustard"",""darkgreenblue""]","1","low nameability","6","right","iti",""
"html-button-response","45","127105","0.0-35.0","CKN_108","108","","","","","","1511","","0","orange","blue","[""orange"",""blue"",""high nameability""]","left-right","[""orange"",""blue"",""high nameability""]","1","high nameability","7","left","trigger",""
"html-button-response","46","129059","0.0-36.0-0.0","CKN_108","108","","","","","","1945","<button class=""jspsych-btn""><img src=""stimuli/orange.png"" style=""width: 200px;height: 200px;""></button>","0","orange","blue","[""orange"",""blue"",""high nameability""]","left-right","[""orange"",""blue"",""high nameability""]","1","high nameability","7","left","response","1"
"html-audio-button-response","47","129264","0.0-36.0-1.0","CKN_108","108","","","","","","null","stimuli/bleep.m4a","null","orange","blue","[""orange"",""blue"",""high nameability""]","left-right","[""orange"",""blue"",""high nameability""]","1","high nameability","7","left","audio_feedback","1"
"html-button-response","48","129786","0.0-37.0","CKN_108","108","","","","","","null","<button class=""jspsych-btn""><img src=""stimuli/white_square.png"" style=""width: 200px;height: 200px;""></button>","null","orange","blue","[""orange"",""blue"",""high nameability""]","left-right","[""orange"",""blue"",""high nameability""]","1","high nameability","7","left","iti",""
"html-button-response","49","130971","0.0-38.0","CKN_108","108","","","","","","1169","","0","pink","turquoise","[""pink"",""turquoise"",""low nameability""]","right-left","[""turquoise"",""pink""]","1","low nameability","8","right","trigger",""
"html-button-response","50","132622","0.0-39.0-0.0","CKN_108","108","","","","","","1644","<button class=""jspsych-btn""><img src=""stimuli/pink.png"" style=""width: 200px;height: 200px;""></button>","1","pink","turquoise","[""pink"",""turquoise"",""low nameability""]","right-left","[""turquoise"",""pink""]","1","low nameability","8","right","response","1"
"html-audio-button-response","51","132828","0.0-39.0-1.0","CKN_108","108","","","","","","null","stimuli/bleep.m4a","null","pink","turquoise","[""pink"",""turquoise"",""low nameability""]","right-left","[""turquoise"",""pink""]","1","low nameability","8","right","audio_feedback","1"
"html-button-response","52","133339","0.0-40.0","CKN_108","108","","","","","","null","<button class=""jspsych-btn""><img src=""stimuli/white_square.png"" style=""width: 200px;height: 200px;""></button>","null","pink","turquoise","[""pink"",""turquoise"",""low nameability""]","right-left","[""turquoise"",""pink""]","1","low nameability","8","right","iti",""
"html-button-response","53","134627","0.0-41.0","CKN_108","108","","","","","","1277","","0","pink","lightred","[""pink"",""lightred"",""low nameability""]","left-right","[""pink"",""lightred"",""low nameability""]","1","low nameability","9","left","trigger",""
"html-button-response","54","136361","0.0-42.0-0.0","CKN_108","108","","","","","","1728","<button class=""jspsych-btn""><img src=""stimuli/pink.png"" style=""width: 200px;height: 200px;""></button>","0","pink","lightred","[""pink"",""lightred"",""low nameability""]","left-right","[""pink"",""lightred"",""low nameability""]","1","low nameability","9","left","response","1"
"html-audio-button-response","55","136562","0.0-42.0-1.0","CKN_108","108","","","","","","null","stimuli/bleep.m4a","null","pink","lightred","[""pink"",""lightred"",""low nameability""]","left-right","[""pink"",""lightred"",""low nameability""]","1","low nameability","9","left","audio_feedback","1"
"html-button-response","56","137080","0.0-43.0","CKN_108","108","","","","","","null","<button class=""jspsych-btn""><img src=""stimuli/white_square.png"" style=""width: 200px;height: 200px;""></button>","null","pink","lightred","[""pink"",""lightred"",""low nameability""]","left-right","[""pink"",""lightred"",""low nameability""]","1","low nameability","9","left","iti",""
"html-button-response","57","138789","0.0-44.0","CKN_108","108","","","","","","1698","","0","pink","mustard","[""pink"",""mustard"",""low nameability""]","right-left","[""mustard"",""pink""]","1","low nameability","10","right","trigger",""
"html-button-response","58","139997","0.0-45.0-0.0","CKN_108","108","","","","","","1200","<button class=""jspsych-btn""><img src=""stimuli/pink.png"" style=""width: 200px;height: 200px;""></button>","1","pink","mustard","[""pink"",""mustard"",""low nameability""]","right-left","[""mustard"",""pink""]","1","low nameability","10","right","response","1"
"html-audio-button-response","59","140201","0.0-45.0-1.0","CKN_108","108","","","","","","null","stimuli/bleep.m4a","null","pink","mustard","[""pink"",""mustard"",""low nameability""]","right-left","[""mustard"",""pink""]","1","low nameability","10","right","audio_feedback","1"
"html-button-response","60","140718","0.0-46.0","CKN_108","108","","","","","","null","<button class=""jspsych-btn""><img src=""stimuli/white_square.png"" style=""width: 200px;height: 200px;""></button>","null","pink","mustard","[""pink"",""mustard"",""low nameability""]","right-left","[""mustard"",""pink""]","1","low nameability","10","right","iti",""
"pavlovia","61","140815","0.0-47.0","CKN_108","108","","","","","","","","","","","","","","","","","","",""
"pavlovia","62","140828","0.0-48.0","CKN_108","108","","","","","","","","","","","","","","","","","","",""
"html-audio-button-response","63","147279","0.0-49.0","CKN_108","108","","","","","","6547","stimuli/tada.m4a","0","","","","","","","","","","",""
"html-button-response","64","148807","0.0-50.0","CKN_108","108","","","","","","1523","","0","","","","","","","","","","",""
"html-button-response","65","151284","0.0-51.0","CKN_108","108","","","","","","2469","","0","turquoise","lightred","[""turquoise"",""lightred"",""low nameability""]","left-right","[""turquoise"",""lightred"",""low nameability""]","2","low nameability","11","left","trigger",""
"html-button-response","66","153224","0.0-52.0-0.0","CKN_108","108","","","","","","1935","<button class=""jspsych-btn""><img src=""stimuli/turquoise.png"" style=""width: 200px;height: 200px;""></button>","0","turquoise","lightred","[""turquoise"",""lightred"",""low nameability""]","left-right","[""turquoise"",""lightred"",""low nameability""]","2","low nameability","11","left","response","1"
"html-audio-button-response","67","153426","0.0-52.0-1.0","CKN_108","108","","","","","","null","stimuli/bleep.m4a","null","turquoise","lightred","[""turquoise"",""lightred"",""low nameability""]","left-right","[""turquoise"",""lightred"",""low nameability""]","2","low nameability","11","left","audio_feedback","1"
"html-button-response","68","153944","0.0-53.0","CKN_108","108","","","","","","null","<button class=""jspsych-btn""><img src=""stimuli/white_square.png"" style=""width: 200px;height: 200px;""></button>","null","turquoise","lightred","[""turquoise"",""lightred"",""low nameability""]","left-right","[""turquoise"",""lightred"",""low nameability""]","2","low nameability","11","left","iti",""
"html-button-response","69","155290","0.0-54.0","CKN_108","108","","","","","","1333","","0","lightred","neonyellow","[""lightred"",""neonyellow"",""low nameability""]","right-left","[""neonyellow"",""lightred""]","2","low nameability","12","right","trigger",""
"html-button-response","70","156853","0.0-55.0-0.0","CKN_108","108","","","","","","1553","<button class=""jspsych-btn""><img src=""stimuli/lightred.png"" style=""width: 200px;height: 200px;""></button>","1","lightred","neonyellow","[""lightred"",""neonyellow"",""low nameability""]","right-left","[""neonyellow"",""lightred""]","2","low nameability","12","right","response","1"
"html-audio-button-response","71","157057","0.0-55.0-1.0","CKN_108","108","","","","","","null","stimuli/bleep.m4a","null","lightred","neonyellow","[""lightred"",""neonyellow"",""low nameability""]","right-left","[""neonyellow"",""lightred""]","2","low nameability","12","right","audio_feedback","1"
"html-button-response","72","157570","0.0-56.0","CKN_108","108","","","","","","null","<button class=""jspsych-btn""><img src=""stimuli/white_square.png"" style=""width: 200px;height: 200px;""></button>","null","lightred","neonyellow","[""lightred"",""neonyellow"",""low nameability""]","right-left","[""neonyellow"",""lightred""]","2","low nameability","12","right","iti",""
"html-button-response","73","158263","0.0-57.0","CKN_108","108","","","","","","680","","0","yellow","brown","[""yellow"",""brown"",""high nameability""]","right-left","[""brown"",""yellow""]","2","high nameability","13","right","trigger",""
"html-button-response","74","160369","0.0-58.0-0.0","CKN_108","108","","","","","","2098","<button class=""jspsych-btn""><img src=""stimuli/yellow.png"" style=""width: 200px;height: 200px;""></button>","1","yellow","brown","[""yellow"",""brown"",""high nameability""]","right-left","[""brown"",""yellow""]","2","high nameability","13","right","response","1"
"html-audio-button-response","75","160574","0.0-58.0-1.0","CKN_108","108","","","","","","null","stimuli/bleep.m4a","null","yellow","brown","[""yellow"",""brown"",""high nameability""]","right-left","[""brown"",""yellow""]","2","high nameability","13","right","audio_feedback","1"
"html-button-response","76","161085","0.0-59.0","CKN_108","108","","","","","","null","<button class=""jspsych-btn""><img src=""stimuli/white_square.png"" style=""width: 200px;height: 200px;""></button>","null","yellow","brown","[""yellow"",""brown"",""high nameability""]","right-left","[""brown"",""yellow""]","2","high nameability","13","right","iti",""
"html-button-response","77","161811","0.0-60.0","CKN_108","108","","","","","","721","","0","yellow","purple","[""yellow"",""purple"",""high nameability""]","left-right","[""yellow"",""purple"",""high nameability""]","2","high nameability","14","left","trigger",""
"html-button-response","78","165480","0.0-61.0-0.0","CKN_108","108","","","","","","3659","<button class=""jspsych-btn""><img src=""stimuli/yellow.png"" style=""width: 200px;height: 200px;""></button>","0","yellow","purple","[""yellow"",""purple"",""high nameability""]","left-right","[""yellow"",""purple"",""high nameability""]","2","high nameability","14","left","response","1"
"html-audio-button-response","79","165685","0.0-61.0-1.0","CKN_108","108","","","","","","null","stimuli/bleep.m4a","null","yellow","purple","[""yellow"",""purple"",""high nameability""]","left-right","[""yellow"",""purple"",""high nameability""]","2","high nameability","14","left","audio_feedback","1"
"html-button-response","80","166196","0.0-62.0","CKN_108","108","","","","","","null","<button class=""jspsych-btn""><img src=""stimuli/white_square.png"" style=""width: 200px;height: 200px;""></button>","null","yellow","purple","[""yellow"",""purple"",""high nameability""]","left-right","[""yellow"",""purple"",""high nameability""]","2","high nameability","14","left","iti",""
"html-button-response","81","166667","0.0-63.0","CKN_108","108","","","","","","461","","0","neonyellow","mustard","[""neonyellow"",""mustard"",""low nameability""]","right-left","[""mustard"",""neonyellow""]","2","low nameability","15","right","trigger",""
"html-button-response","82","167807","0.0-64.0-0.0","CKN_108","108","","","","","","1136","<button class=""jspsych-btn""><img src=""stimuli/neonyellow.png"" style=""width: 200px;height: 200px;""></button>","1","neonyellow","mustard","[""neonyellow"",""mustard"",""low nameability""]","right-left","[""mustard"",""neonyellow""]","2","low nameability","15","right","response","1"
"html-audio-button-response","83","168016","0.0-64.0-1.0","CKN_108","108","","","","","","null","stimuli/bleep.m4a","null","neonyellow","mustard","[""neonyellow"",""mustard"",""low nameability""]","right-left","[""mustard"",""neonyellow""]","2","low nameability","15","right","audio_feedback","1"
"html-button-response","84","168526","0.0-65.0","CKN_108","108","","","","","","null","<button class=""jspsych-btn""><img src=""stimuli/white_square.png"" style=""width: 200px;height: 200px;""></button>","null","neonyellow","mustard","[""neonyellow"",""mustard"",""low nameability""]","right-left","[""mustard"",""neonyellow""]","2","low nameability","15","right","iti",""
"html-button-response","85","169149","0.0-66.0","CKN_108","108","","","","","","608","","0","turquoise","mustard","[""turquoise"",""mustard"",""low nameability""]","right-left","[""mustard"",""turquoise""]","2","low nameability","16","right","trigger",""
"html-button-response","86","170135","0.0-67.0-0.0","CKN_108","108","","","","","","977","<button class=""jspsych-btn""><img src=""stimuli/turquoise.png"" style=""width: 200px;height: 200px;""></button>","1","turquoise","mustard","[""turquoise"",""mustard"",""low nameability""]","right-left","[""mustard"",""turquoise""]","2","low nameability","16","right","response","1"
"html-audio-button-response","87","170338","0.0-67.0-1.0","CKN_108","108","","","","","","null","stimuli/bleep.m4a","null","turquoise","mustard","[""turquoise"",""mustard"",""low nameability""]","right-left","[""mustard"",""turquoise""]","2","low nameability","16","right","audio_feedback","1"
"html-button-response","88","170855","0.0-68.0","CKN_108","108","","","","","","null","<button class=""jspsych-btn""><img src=""stimuli/white_square.png"" style=""width: 200px;height: 200px;""></button>","null","turquoise","mustard","[""turquoise"",""mustard"",""low nameability""]","right-left","[""mustard"",""turquoise""]","2","low nameability","16","right","iti",""
"html-button-response","89","171446","0.0-69.0","CKN_108","108","","","","","","578","","0","brown","red","[""brown"",""red"",""high nameability""]","left-right","[""brown"",""red"",""high nameability""]","2","high nameability","17","left","trigger",""
"html-button-response","90","174586","0.0-70.0-0.0","CKN_108","108","","","","","","3132","<button class=""jspsych-btn""><img src=""stimuli/brown.png"" style=""width: 200px;height: 200px;""></button>","0","brown","red","[""brown"",""red"",""high nameability""]","left-right","[""brown"",""red"",""high nameability""]","2","high nameability","17","left","response","1"
"html-audio-button-response","91","174792","0.0-70.0-1.0","CKN_108","108","","","","","","null","stimuli/bleep.m4a","null","brown","red","[""brown"",""red"",""high nameability""]","left-right","[""brown"",""red"",""high nameability""]","2","high nameability","17","left","audio_feedback","1"
"html-button-response","92","175302","0.0-71.0","CKN_108","108","","","","","","null","<button class=""jspsych-btn""><img src=""stimuli/white_square.png"" style=""width: 200px;height: 200px;""></button>","null","brown","red","[""brown"",""red"",""high nameability""]","left-right","[""brown"",""red"",""high nameability""]","2","high nameability","17","left","iti",""
"html-button-response","93","177080","0.0-72.0","CKN_108","108","","","","","","1767","","0","red","purple","[""red"",""purple"",""high nameability""]","left-right","[""red"",""purple"",""high nameability""]","2","high nameability","18","left","trigger",""
"html-button-response","94","179122","0.0-73.0-0.0","CKN_108","108","","","","","","2032","<button class=""jspsych-btn""><img src=""stimuli/red.png"" style=""width: 200px;height: 200px;""></button>","0","red","purple","[""red"",""purple"",""high nameability""]","left-right","[""red"",""purple"",""high nameability""]","2","high nameability","18","left","response","1"
"html-audio-button-response","95","179332","0.0-73.0-1.0","CKN_108","108","","","","","","null","stimuli/bleep.m4a","null","red","purple","[""red"",""purple"",""high nameability""]","left-right","[""red"",""purple"",""high nameability""]","2","high nameability","18","left","audio_feedback","1"
"html-button-response","96","179843","0.0-74.0","CKN_108","108","","","","","","null","<button class=""jspsych-btn""><img src=""stimuli/white_square.png"" style=""width: 200px;height: 200px;""></button>","null","red","purple","[""red"",""purple"",""high nameability""]","left-right","[""red"",""purple"",""high nameability""]","2","high nameability","18","left","iti",""
"html-button-response","97","180985","0.0-75.0","CKN_108","108","","","","","","1130","","0","mustard","lightred","[""mustard"",""lightred"",""low nameability""]","right-left","[""lightred"",""mustard""]","2","low nameability","19","right","trigger",""
"html-button-response","98","183634","0.0-76.0-0.0","CKN_108","108","","","","","","2640","<button class=""jspsych-btn""><img src=""stimuli/mustard.png"" style=""width: 200px;height: 200px;""></button>","1","mustard","lightred","[""mustard"",""lightred"",""low nameability""]","right-left","[""lightred"",""mustard""]","2","low nameability","19","right","response","1"
"html-audio-button-response","99","183837","0.0-76.0-1.0","CKN_108","108","","","","","","null","stimuli/bleep.m4a","null","mustard","lightred","[""mustard"",""lightred"",""low nameability""]","right-left","[""lightred"",""mustard""]","2","low nameability","19","right","audio_feedback","1"
"html-button-response","100","184352","0.0-77.0","CKN_108","108","","","","","","null","<button class=""jspsych-btn""><img src=""stimuli/white_square.png"" style=""width: 200px;height: 200px;""></button>","null","mustard","lightred","[""mustard"",""lightred"",""low nameability""]","right-left","[""lightred"",""mustard""]","2","low nameability","19","right","iti",""
"html-button-response","101","184770","0.0-78.0","CKN_108","108","","","","","","406","","0","mustard","turquoise","[""mustard"",""turquoise"",""low nameability""]","right-left","[""turquoise"",""mustard""]","2","low nameability","20","right","trigger",""
"html-button-response","102","185707","0.0-79.0-0.0","CKN_108","108","","","","","","929","<button class=""jspsych-btn""><img src=""stimuli/mustard.png"" style=""width: 200px;height: 200px;""></button>","1","mustard","turquoise","[""mustard"",""turquoise"",""low nameability""]","right-left","[""turquoise"",""mustard""]","2","low nameability","20","right","response","1"
"html-audio-button-response","103","185909","0.0-79.0-1.0","CKN_108","108","","","","","","null","stimuli/bleep.m4a","null","mustard","turquoise","[""mustard"",""turquoise"",""low nameability""]","right-left","[""turquoise"",""mustard""]","2","low nameability","20","right","audio_feedback","1"
"html-button-response","104","186424","0.0-80.0","CKN_108","108","","","","","","null","<button class=""jspsych-btn""><img src=""stimuli/white_square.png"" style=""width: 200px;height: 200px;""></button>","null","mustard","turquoise","[""mustard"",""turquoise"",""low nameability""]","right-left","[""turquoise"",""mustard""]","2","low nameability","20","right","iti",""
"pavlovia","105","186474","0.0-81.0","CKN_108","108","","","","","","","","","","","","","","","","","","",""
"pavlovia","106","186481","0.0-82.0","CKN_108","108","","","","","","","","","","","","","","","","","","",""
"html-audio-button-response","107","192772","0.0-83.0","CKN_108","108","","","","","","6344","stimuli/tada.m4a","0","","","","","","","","","","",""
"html-button-response","108","193578","0.0-84.0","CKN_108","108","","","","","","799","","0","","","","","","","","","","",""
"html-button-response","109","195544","0.0-85.0","CKN_108","108","","","","","","1957","","0","lightred","pink","[""lightred"",""pink"",""low nameability""]","right-left","[""pink"",""lightred""]","3","low nameability","21","right","trigger",""
"html-button-response","110","198307","0.0-86.0-0.0","CKN_108","108","","","","","","2752","<button class=""jspsych-btn""><img src=""stimuli/lightred.png"" style=""width: 200px;height: 200px;""></button>","1","lightred","pink","[""lightred"",""pink"",""low nameability""]","right-left","[""pink"",""lightred""]","3","low nameability","21","right","response","1"
"html-audio-button-response","111","198511","0.0-86.0-1.0","CKN_108","108","","","","","","null","stimuli/bleep.m4a","null","lightred","pink","[""lightred"",""pink"",""low nameability""]","right-left","[""pink"",""lightred""]","3","low nameability","21","right","audio_feedback","1"
"html-button-response","112","199023","0.0-87.0","CKN_108","108","","","","","","null","<button class=""jspsych-btn""><img src=""stimuli/white_square.png"" style=""width: 200px;height: 200px;""></button>","null","lightred","pink","[""lightred"",""pink"",""low nameability""]","right-left","[""pink"",""lightred""]","3","low nameability","21","right","iti",""
"html-button-response","113","199811","0.0-88.0","CKN_108","108","","","","","","779","","0","blue","orange","[""blue"",""orange"",""high nameability""]","right-left","[""orange"",""blue""]","3","high nameability","22","right","trigger",""
"html-button-response","114","200601","0.0-89.0-0.0","CKN_108","108","","","","","","783","<button class=""jspsych-btn""><img src=""stimuli/blue.png"" style=""width: 200px;height: 200px;""></button>","1","blue","orange","[""blue"",""orange"",""high nameability""]","right-left","[""orange"",""blue""]","3","high nameability","22","right","response","1"
"html-audio-button-response","115","200806","0.0-89.0-1.0","CKN_108","108","","","","","","null","stimuli/bleep.m4a","null","blue","orange","[""blue"",""orange"",""high nameability""]","right-left","[""orange"",""blue""]","3","high nameability","22","right","audio_feedback","1"
"html-button-response","116","201318","0.0-90.0","CKN_108","108","","","","","","null","<button class=""jspsych-btn""><img src=""stimuli/white_square.png"" style=""width: 200px;height: 200px;""></button>","null","blue","orange","[""blue"",""orange"",""high nameability""]","right-left","[""orange"",""blue""]","3","high nameability","22","right","iti",""
"html-button-response","117","205201","0.0-91.0","CKN_108","108","","","","","","3868","","0","orange","brown","[""orange"",""brown"",""high nameability""]","left-right","[""orange"",""brown"",""high nameability""]","3","high nameability","23","left","trigger",""
"html-button-response","118","206499","0.0-92.0-0.0","CKN_108","108","","","","","","1292","<button class=""jspsych-btn""><img src=""stimuli/orange.png"" style=""width: 200px;height: 200px;""></button>","0","orange","brown","[""orange"",""brown"",""high nameability""]","left-right","[""orange"",""brown"",""high nameability""]","3","high nameability","23","left","response","1"
"html-audio-button-response","119","206698","0.0-92.0-1.0","CKN_108","108","","","","","","null","stimuli/bleep.m4a","null","orange","brown","[""orange"",""brown"",""high nameability""]","left-right","[""orange"",""brown"",""high nameability""]","3","high nameability","23","left","audio_feedback","1"
"html-button-response","120","207215","0.0-93.0","CKN_108","108","","","","","","null","<button class=""jspsych-btn""><img src=""stimuli/white_square.png"" style=""width: 200px;height: 200px;""></button>","null","orange","brown","[""orange"",""brown"",""high nameability""]","left-right","[""orange"",""brown"",""high nameability""]","3","high nameability","23","left","iti",""
"html-button-response","121","208493","0.0-94.0","CKN_108","108","","","","","","1269","","0","blue","purple","[""blue"",""purple"",""high nameability""]","left-right","[""blue"",""purple"",""high nameability""]","3","high nameability","24","left","trigger",""
"html-button-response","122","211541","0.0-95.0-0.0","CKN_108","108","","","","","","3041","<button class=""jspsych-btn""><img src=""stimuli/blue.png"" style=""width: 200px;height: 200px;""></button>","0","blue","purple","[""blue"",""purple"",""high nameability""]","left-right","[""blue"",""purple"",""high nameability""]","3","high nameability","24","left","response","1"
"html-audio-button-response","123","211743","0.0-95.0-1.0","CKN_108","108","","","","","","null","stimuli/bleep.m4a","null","blue","purple","[""blue"",""purple"",""high nameability""]","left-right","[""blue"",""purple"",""high nameability""]","3","high nameability","24","left","audio_feedback","1"
"html-button-response","124","212260","0.0-96.0","CKN_108","108","","","","","","null","<button class=""jspsych-btn""><img src=""stimuli/white_square.png"" style=""width: 200px;height: 200px;""></button>","null","blue","purple","[""blue"",""purple"",""high nameability""]","left-right","[""blue"",""purple"",""high nameability""]","3","high nameability","24","left","iti",""
"html-button-response","125","213791","0.0-97.0","CKN_108","108","","","","","","1511","","0","red","brown","[""red"",""brown"",""high nameability""]","left-right","[""red"",""brown"",""high nameability""]","3","high nameability","25","left","trigger",""
"html-button-response","126","214716","0.0-98.0-0.0","CKN_108","108","","","","","","918","<button class=""jspsych-btn""><img src=""stimuli/red.png"" style=""width: 200px;height: 200px;""></button>","0","red","brown","[""red"",""brown"",""high nameability""]","left-right","[""red"",""brown"",""high nameability""]","3","high nameability","25","left","response","1"
"html-audio-button-response","127","214918","0.0-98.0-1.0","CKN_108","108","","","","","","null","stimuli/bleep.m4a","null","red","brown","[""red"",""brown"",""high nameability""]","left-right","[""red"",""brown"",""high nameability""]","3","high nameability","25","left","audio_feedback","1"
"html-button-response","128","215435","0.0-99.0","CKN_108","108","","","","","","null","<button class=""jspsych-btn""><img src=""stimuli/white_square.png"" style=""width: 200px;height: 200px;""></button>","null","red","brown","[""red"",""brown"",""high nameability""]","left-right","[""red"",""brown"",""high nameability""]","3","high nameability","25","left","iti",""
"html-button-response","129","218348","0.0-100.0","CKN_108","108","","","","","","2899","","0","mustard","neonyellow","[""mustard"",""neonyellow"",""low nameability""]","right-left","[""neonyellow"",""mustard""]","3","low nameability","26","right","trigger",""
"html-button-response","130","219375","0.0-101.0-0.0","CKN_108","108","","","","","","1019","<button class=""jspsych-btn""><img src=""stimuli/mustard.png"" style=""width: 200px;height: 200px;""></button>","0","mustard","neonyellow","[""mustard"",""neonyellow"",""low nameability""]","right-left","[""neonyellow"",""mustard""]","3","low nameability","26","right","response","0"
"html-audio-button-response","131","219999","0.0-101.0-1.0","CKN_108","108","","","","","","null","stimuli/boing.m4a","null","mustard","neonyellow","[""mustard"",""neonyellow"",""low nameability""]","right-left","[""neonyellow"",""mustard""]","3","low nameability","26","right","audio_feedback","0"
"html-button-response","132","223875","0.0-101.1-0.1","CKN_108","108","","","","","","3861","<button class=""jspsych-btn""><img src=""stimuli/mustard.png"" style=""width: 200px;height: 200px;""></button>","1","mustard","neonyellow","[""mustard"",""neonyellow"",""low nameability""]","right-left","[""neonyellow"",""mustard""]","3","low nameability","26","right","response","1"
"html-audio-button-response","133","224078","0.0-101.1-1.1","CKN_108","108","","","","","","null","stimuli/bleep.m4a","null","mustard","neonyellow","[""mustard"",""neonyellow"",""low nameability""]","right-left","[""neonyellow"",""mustard""]","3","low nameability","26","right","audio_feedback","1"
"html-button-response","134","224588","0.0-102.0","CKN_108","108","","","","","","null","<button class=""jspsych-btn""><img src=""stimuli/white_square.png"" style=""width: 200px;height: 200px;""></button>","null","mustard","neonyellow","[""mustard"",""neonyellow"",""low nameability""]","right-left","[""neonyellow"",""mustard""]","3","low nameability","26","right","iti",""
"html-button-response","135","226555","0.0-103.0","CKN_108","108","","","","","","1962","","0","orange","yellow","[""orange"",""yellow"",""high nameability""]","left-right","[""orange"",""yellow"",""high nameability""]","3","high nameability","27","left","trigger",""
"html-button-response","136","229096","0.0-104.0-0.0","CKN_108","108","","","","","","2534","<button class=""jspsych-btn""><img src=""stimuli/orange.png"" style=""width: 200px;height: 200px;""></button>","0","orange","yellow","[""orange"",""yellow"",""high nameability""]","left-right","[""orange"",""yellow"",""high nameability""]","3","high nameability","27","left","response","1"
"html-audio-button-response","137","229292","0.0-104.0-1.0","CKN_108","108","","","","","","null","stimuli/bleep.m4a","null","orange","yellow","[""orange"",""yellow"",""high nameability""]","left-right","[""orange"",""yellow"",""high nameability""]","3","high nameability","27","left","audio_feedback","1"
"html-button-response","138","229799","0.0-105.0","CKN_108","108","","","","","","null","<button class=""jspsych-btn""><img src=""stimuli/white_square.png"" style=""width: 200px;height: 200px;""></button>","null","orange","yellow","[""orange"",""yellow"",""high nameability""]","left-right","[""orange"",""yellow"",""high nameability""]","3","high nameability","27","left","iti",""
"html-button-response","139","231628","0.0-106.0","CKN_108","108","","","","","","1816","","0","purple","red","[""purple"",""red"",""high nameability""]","left-right","[""purple"",""red"",""high nameability""]","3","high nameability","28","left","trigger",""
"html-button-response","140","233222","0.0-107.0-0.0","CKN_108","108","","","","","","1583","<button class=""jspsych-btn""><img src=""stimuli/purple.png"" style=""width: 200px;height: 200px;""></button>","0","purple","red","[""purple"",""red"",""high nameability""]","left-right","[""purple"",""red"",""high nameability""]","3","high nameability","28","left","response","1"
"html-audio-button-response","141","233421","0.0-107.0-1.0","CKN_108","108","","","","","","null","stimuli/bleep.m4a","null","purple","red","[""purple"",""red"",""high nameability""]","left-right","[""purple"",""red"",""high nameability""]","3","high nameability","28","left","audio_feedback","1"
"html-button-response","142","233935","0.0-108.0","CKN_108","108","","","","","","null","<button class=""jspsych-btn""><img src=""stimuli/white_square.png"" style=""width: 200px;height: 200px;""></button>","null","purple","red","[""purple"",""red"",""high nameability""]","left-right","[""purple"",""red"",""high nameability""]","3","high nameability","28","left","iti",""
"html-button-response","143","234388","0.0-109.0","CKN_108","108","","","","","","443","","0","turquoise","neonyellow","[""turquoise"",""neonyellow"",""low nameability""]","left-right","[""turquoise"",""neonyellow"",""low nameability""]","3","low nameability","29","left","trigger",""
"html-button-response","144","235660","0.0-110.0-0.0","CKN_108","108","","","","","","1263","<button class=""jspsych-btn""><img src=""stimuli/turquoise.png"" style=""width: 200px;height: 200px;""></button>","0","turquoise","neonyellow","[""turquoise"",""neonyellow"",""low nameability""]","left-right","[""turquoise"",""neonyellow"",""low nameability""]","3","low nameability","29","left","response","1"
"html-audio-button-response","145","235869","0.0-110.0-1.0","CKN_108","108","","","","","","null","stimuli/bleep.m4a","null","turquoise","neonyellow","[""turquoise"",""neonyellow"",""low nameability""]","left-right","[""turquoise"",""neonyellow"",""low nameability""]","3","low nameability","29","left","audio_feedback","1"
"html-button-response","146","236392","0.0-111.0","CKN_108","108","","","","","","null","<button class=""jspsych-btn""><img src=""stimuli/white_square.png"" style=""width: 200px;height: 200px;""></button>","null","turquoise","neonyellow","[""turquoise"",""neonyellow"",""low nameability""]","left-right","[""turquoise"",""neonyellow"",""low nameability""]","3","low nameability","29","left","iti",""
"html-button-response","147","237985","0.0-112.0","CKN_108","108","","","","","","1586","","0","yellow","red","[""yellow"",""red"",""high nameability""]","right-left","[""red"",""yellow""]","3","high nameability","30","right","trigger",""
"html-button-response","148","239661","0.0-113.0-0.0","CKN_108","108","","","","","","1668","<button class=""jspsych-btn""><img src=""stimuli/yellow.png"" style=""width: 200px;height: 200px;""></button>","1","yellow","red","[""yellow"",""red"",""high nameability""]","right-left","[""red"",""yellow""]","3","high nameability","30","right","response","1"
"html-audio-button-response","149","239862","0.0-113.0-1.0","CKN_108","108","","","","","","null","stimuli/bleep.m4a","null","yellow","red","[""yellow"",""red"",""high nameability""]","right-left","[""red"",""yellow""]","3","high nameability","30","right","audio_feedback","1"
"html-button-response","150","240377","0.0-114.0","CKN_108","108","","","","","","null","<button class=""jspsych-btn""><img src=""stimuli/white_square.png"" style=""width: 200px;height: 200px;""></button>","null","yellow","red","[""yellow"",""red"",""high nameability""]","right-left","[""red"",""yellow""]","3","high nameability","30","right","iti",""
"pavlovia","151","240430","0.0-115.0","CKN_108","108","","","","","","","","","","","","","","","","","","",""
"pavlovia","152","240437","0.0-116.0","CKN_108","108","","","","","","","","","","","","","","","","","","",""
"html-audio-button-response","153","246500","0.0-117.0","CKN_108","108","","","","","","6112","stimuli/tada.m4a","0","","","","","","","","","","",""
"html-button-response","154","248613","0.0-118.0","CKN_108","108","","","","","","2105","","0","","","","","","","","","","",""
"html-button-response","155","249938","0.0-119.0","CKN_108","108","","","","","","1316","","0","purple","blue","[""purple"",""blue"",""high nameability""]","right-left","[""blue"",""purple""]","4","high nameability","31","right","trigger",""
"html-button-response","156","251100","0.0-120.0-0.0","CKN_108","108","","","","","","1154","<button class=""jspsych-btn""><img src=""stimuli/purple.png"" style=""width: 200px;height: 200px;""></button>","1","purple","blue","[""purple"",""blue"",""high nameability""]","right-left","[""blue"",""purple""]","4","high nameability","31","right","response","1"
"html-audio-button-response","157","251305","0.0-120.0-1.0","CKN_108","108","","","","","","null","stimuli/bleep.m4a","null","purple","blue","[""purple"",""blue"",""high nameability""]","right-left","[""blue"",""purple""]","4","high nameability","31","right","audio_feedback","1"
"html-button-response","158","251822","0.0-121.0","CKN_108","108","","","","","","null","<button class=""jspsych-btn""><img src=""stimuli/white_square.png"" style=""width: 200px;height: 200px;""></button>","null","purple","blue","[""purple"",""blue"",""high nameability""]","right-left","[""blue"",""purple""]","4","high nameability","31","right","iti",""
"html-button-response","159","252502","0.0-122.0","CKN_108","108","","","","","","671","","0","yellow","blue","[""yellow"",""blue"",""high nameability""]","left-right","[""yellow"",""blue"",""high nameability""]","4","high nameability","32","left","trigger",""
"html-button-response","160","253728","0.0-123.0-0.0","CKN_108","108","","","","","","1218","<button class=""jspsych-btn""><img src=""stimuli/yellow.png"" style=""width: 200px;height: 200px;""></button>","0","yellow","blue","[""yellow"",""blue"",""high nameability""]","left-right","[""yellow"",""blue"",""high nameability""]","4","high nameability","32","left","response","1"
"html-audio-button-response","161","253939","0.0-123.0-1.0","CKN_108","108","","","","","","null","stimuli/bleep.m4a","null","yellow","blue","[""yellow"",""blue"",""high nameability""]","left-right","[""yellow"",""blue"",""high nameability""]","4","high nameability","32","left","audio_feedback","1"
"html-button-response","162","254456","0.0-124.0","CKN_108","108","","","","","","null","<button class=""jspsych-btn""><img src=""stimuli/white_square.png"" style=""width: 200px;height: 200px;""></button>","null","yellow","blue","[""yellow"",""blue"",""high nameability""]","left-right","[""yellow"",""blue"",""high nameability""]","4","high nameability","32","left","iti",""
"html-button-response","163","260146","0.0-125.0","CKN_108","108","","","","","","5674","","0","lightred","turquoise","[""lightred"",""turquoise"",""low nameability""]","left-right","[""lightred"",""turquoise"",""low nameability""]","4","low nameability","33","left","trigger",""
"html-button-response","164","261405","0.0-126.0-0.0","CKN_108","108","","","","","","1251","<button class=""jspsych-btn""><img src=""stimuli/lightred.png"" style=""width: 200px;height: 200px;""></button>","0","lightred","turquoise","[""lightred"",""turquoise"",""low nameability""]","left-right","[""lightred"",""turquoise"",""low nameability""]","4","low nameability","33","left","response","1"
"html-audio-button-response","165","261606","0.0-126.0-1.0","CKN_108","108","","","","","","null","stimuli/bleep.m4a","null","lightred","turquoise","[""lightred"",""turquoise"",""low nameability""]","left-right","[""lightred"",""turquoise"",""low nameability""]","4","low nameability","33","left","audio_feedback","1"
"html-button-response","166","262118","0.0-127.0","CKN_108","108","","","","","","null","<button class=""jspsych-btn""><img src=""stimuli/white_square.png"" style=""width: 200px;height: 200px;""></button>","null","lightred","turquoise","[""lightred"",""turquoise"",""low nameability""]","left-right","[""lightred"",""turquoise"",""low nameability""]","4","low nameability","33","left","iti",""
"html-button-response","167","262697","0.0-128.0","CKN_108","108","","","","","","569","","0","red","yellow","[""red"",""yellow"",""high nameability""]","left-right","[""red"",""yellow"",""high nameability""]","4","high nameability","34","left","trigger",""
"html-button-response","168","263920","0.0-129.0-0.0","CKN_108","108","","","","","","1213","<button class=""jspsych-btn""><img src=""stimuli/red.png"" style=""width: 200px;height: 200px;""></button>","0","red","yellow","[""red"",""yellow"",""high nameability""]","left-right","[""red"",""yellow"",""high nameability""]","4","high nameability","34","left","response","1"
"html-audio-button-response","169","264126","0.0-129.0-1.0","CKN_108","108","","","","","","null","stimuli/bleep.m4a","null","red","yellow","[""red"",""yellow"",""high nameability""]","left-right","[""red"",""yellow"",""high nameability""]","4","high nameability","34","left","audio_feedback","1"
"html-button-response","170","264637","0.0-130.0","CKN_108","108","","","","","","null","<button class=""jspsych-btn""><img src=""stimuli/white_square.png"" style=""width: 200px;height: 200px;""></button>","null","red","yellow","[""red"",""yellow"",""high nameability""]","left-right","[""red"",""yellow"",""high nameability""]","4","high nameability","34","left","iti",""
"html-button-response","171","266399","0.0-131.0","CKN_108","108","","","","","","1749","","0","yellow","orange","[""yellow"",""orange"",""high nameability""]","left-right","[""yellow"",""orange"",""high nameability""]","4","high nameability","35","left","trigger",""
"html-button-response","172","268263","0.0-132.0-0.0","CKN_108","108","","","","","","1855","<button class=""jspsych-btn""><img src=""stimuli/yellow.png"" style=""width: 200px;height: 200px;""></button>","0","yellow","orange","[""yellow"",""orange"",""high nameability""]","left-right","[""yellow"",""orange"",""high nameability""]","4","high nameability","35","left","response","1"
"html-audio-button-response","173","268465","0.0-132.0-1.0","CKN_108","108","","","","","","null","stimuli/bleep.m4a","null","yellow","orange","[""yellow"",""orange"",""high nameability""]","left-right","[""yellow"",""orange"",""high nameability""]","4","high nameability","35","left","audio_feedback","1"
"html-button-response","174","268980","0.0-133.0","CKN_108","108","","","","","","null","<button class=""jspsych-btn""><img src=""stimuli/white_square.png"" style=""width: 200px;height: 200px;""></button>","null","yellow","orange","[""yellow"",""orange"",""high nameability""]","left-right","[""yellow"",""orange"",""high nameability""]","4","high nameability","35","left","iti",""
"html-button-response","175","269284","0.0-134.0","CKN_108","108","","","","","","292","","0","red","orange","[""red"",""orange"",""high nameability""]","left-right","[""red"",""orange"",""high nameability""]","4","high nameability","36","left","trigger",""
"html-button-response","176","270408","0.0-135.0-0.0","CKN_108","108","","","","","","1113","<button class=""jspsych-btn""><img src=""stimuli/red.png"" style=""width: 200px;height: 200px;""></button>","0","red","orange","[""red"",""orange"",""high nameability""]","left-right","[""red"",""orange"",""high nameability""]","4","high nameability","36","left","response","1"
"html-audio-button-response","177","270613","0.0-135.0-1.0","CKN_108","108","","","","","","null","stimuli/bleep.m4a","null","red","orange","[""red"",""orange"",""high nameability""]","left-right","[""red"",""orange"",""high nameability""]","4","high nameability","36","left","audio_feedback","1"
"html-button-response","178","271126","0.0-136.0","CKN_108","108","","","","","","null","<button class=""jspsych-btn""><img src=""stimuli/white_square.png"" style=""width: 200px;height: 200px;""></button>","null","red","orange","[""red"",""orange"",""high nameability""]","left-right","[""red"",""orange"",""high nameability""]","4","high nameability","36","left","iti",""
"html-button-response","179","271531","0.0-137.0","CKN_108","108","","","","","","390","","0","neonyellow","turquoise","[""neonyellow"",""turquoise"",""low nameability""]","right-left","[""turquoise"",""neonyellow""]","4","low nameability","37","right","trigger",""
"html-button-response","180","272694","0.0-138.0-0.0","CKN_108","108","","","","","","1153","<button class=""jspsych-btn""><img src=""stimuli/neonyellow.png"" style=""width: 200px;height: 200px;""></button>","0","neonyellow","turquoise","[""neonyellow"",""turquoise"",""low nameability""]","right-left","[""turquoise"",""neonyellow""]","4","low nameability","37","right","response","0"
"html-audio-button-response","181","273329","0.0-138.0-1.0","CKN_108","108","","","","","","null","stimuli/boing.m4a","null","neonyellow","turquoise","[""neonyellow"",""turquoise"",""low nameability""]","right-left","[""turquoise"",""neonyellow""]","4","low nameability","37","right","audio_feedback","0"
"html-button-response","182","274888","0.0-138.1-0.1","CKN_108","108","","","","","","1541","<button class=""jspsych-btn""><img src=""stimuli/neonyellow.png"" style=""width: 200px;height: 200px;""></button>","1","neonyellow","turquoise","[""neonyellow"",""turquoise"",""low nameability""]","right-left","[""turquoise"",""neonyellow""]","4","low nameability","37","right","response","1"
"html-audio-button-response","183","275095","0.0-138.1-1.1","CKN_108","108","","","","","","null","stimuli/bleep.m4a","null","neonyellow","turquoise","[""neonyellow"",""turquoise"",""low nameability""]","right-left","[""turquoise"",""neonyellow""]","4","low nameability","37","right","audio_feedback","1"
"html-button-response","184","275604","0.0-139.0","CKN_108","108","","","","","","53","<button class=""jspsych-btn""><img src=""stimuli/white_square.png"" style=""width: 200px;height: 200px;""></button>","1","neonyellow","turquoise","[""neonyellow"",""turquoise"",""low nameability""]","right-left","[""turquoise"",""neonyellow""]","4","low nameability","37","right","iti",""
"html-button-response","185","277046","0.0-140.0","CKN_108","108","","","","","","1433","","0","darkgreenblue","neonyellow","[""darkgreenblue"",""neonyellow"",""low nameability""]","right-left","[""neonyellow"",""darkgreenblue""]","4","low nameability","38","right","trigger",""
"html-button-response","186","280708","0.0-141.0-0.0","CKN_108","108","","","","","","3652","<button class=""jspsych-btn""><img src=""stimuli/darkgreenblue.png"" style=""width: 200px;height: 200px;""></button>","1","darkgreenblue","neonyellow","[""darkgreenblue"",""neonyellow"",""low nameability""]","right-left","[""neonyellow"",""darkgreenblue""]","4","low nameability","38","right","response","1"
"html-audio-button-response","187","280930","0.0-141.0-1.0","CKN_108","108","","","","","","null","stimuli/bleep.m4a","null","darkgreenblue","neonyellow","[""darkgreenblue"",""neonyellow"",""low nameability""]","right-left","[""neonyellow"",""darkgreenblue""]","4","low nameability","38","right","audio_feedback","1"
"html-button-response","188","281446","0.0-142.0","CKN_108","108","","","","","","null","<button class=""jspsych-btn""><img src=""stimuli/white_square.png"" style=""width: 200px;height: 200px;""></button>","null","darkgreenblue","neonyellow","[""darkgreenblue"",""neonyellow"",""low nameability""]","right-left","[""neonyellow"",""darkgreenblue""]","4","low nameability","38","right","iti",""
"html-button-response","189","282896","0.0-143.0","CKN_108","108","","","","","","1438","","0","orange","purple","[""orange"",""purple"",""high nameability""]","right-left","[""purple"",""orange""]","4","high nameability","39","right","trigger",""
"html-button-response","190","284964","0.0-144.0-0.0","CKN_108","108","","","","","","2053","<button class=""jspsych-btn""><img src=""stimuli/orange.png"" style=""width: 200px;height: 200px;""></button>","1","orange","purple","[""orange"",""purple"",""high nameability""]","right-left","[""purple"",""orange""]","4","high nameability","39","right","response","1"
"html-audio-button-response","191","285172","0.0-144.0-1.0","CKN_108","108","","","","","","null","stimuli/bleep.m4a","null","orange","purple","[""orange"",""purple"",""high nameability""]","right-left","[""purple"",""orange""]","4","high nameability","39","right","audio_feedback","1"
"html-button-response","192","285698","0.0-145.0","CKN_108","108","","","","","","null","<button class=""jspsych-btn""><img src=""stimuli/white_square.png"" style=""width: 200px;height: 200px;""></button>","null","orange","purple","[""orange"",""purple"",""high nameability""]","right-left","[""purple"",""orange""]","4","high nameability","39","right","iti",""
"html-button-response","193","286287","0.0-146.0","CKN_108","108","","","","","","570","","0","brown","orange","[""brown"",""orange"",""high nameability""]","left-right","[""brown"",""orange"",""high nameability""]","4","high nameability","40","left","trigger",""
"html-button-response","194","287992","0.0-147.0-0.0","CKN_108","108","","","","","","1689","<button class=""jspsych-btn""><img src=""stimuli/brown.png"" style=""width: 200px;height: 200px;""></button>","0","brown","orange","[""brown"",""orange"",""high nameability""]","left-right","[""brown"",""orange"",""high nameability""]","4","high nameability","40","left","response","1"
"html-audio-button-response","195","288201","0.0-147.0-1.0","CKN_108","108","","","","","","null","stimuli/bleep.m4a","null","brown","orange","[""brown"",""orange"",""high nameability""]","left-right","[""brown"",""orange"",""high nameability""]","4","high nameability","40","left","audio_feedback","1"
"html-button-response","196","288717","0.0-148.0","CKN_108","108","","","","","","null","<button class=""jspsych-btn""><img src=""stimuli/white_square.png"" style=""width: 200px;height: 200px;""></button>","null","brown","orange","[""brown"",""orange"",""high nameability""]","left-right","[""brown"",""orange"",""high nameability""]","4","high nameability","40","left","iti",""
"pavlovia","197","288828","0.0-149.0","CKN_108","108","","","","","","","","","","","","","","","","","","",""
"pavlovia","198","288840","0.0-150.0","CKN_108","108","","","","","","","","","","","","","","","","","","",""
"html-audio-button-response","199","294543","0.0-151.0","CKN_108","108","","","","","","5824","stimuli/tada.m4a","0","","","","","","","","","","",""
"html-button-response","200","295906","0.0-152.0","CKN_108","108","","","","","","1356","","0","","","","","","","","","","",""
"html-button-response","201","297077","0.0-153.0","CKN_108","108","","","","","","1162","","0","pink","darkgreenblue","[""pink"",""darkgreenblue"",""low nameability""]","left-right","[""pink"",""darkgreenblue"",""low nameability""]","5","low nameability","41","left","trigger",""
"html-button-response","202","298251","0.0-154.0-0.0","CKN_108","108","","","","","","1165","<button class=""jspsych-btn""><img src=""stimuli/pink.png"" style=""width: 200px;height: 200px;""></button>","0","pink","darkgreenblue","[""pink"",""darkgreenblue"",""low nameability""]","left-right","[""pink"",""darkgreenblue"",""low nameability""]","5","low nameability","41","left","response","1"
"html-audio-button-response","203","298458","0.0-154.0-1.0","CKN_108","108","","","","","","null","stimuli/bleep.m4a","null","pink","darkgreenblue","[""pink"",""darkgreenblue"",""low nameability""]","left-right","[""pink"",""darkgreenblue"",""low nameability""]","5","low nameability","41","left","audio_feedback","1"
"html-button-response","204","298973","0.0-155.0","CKN_108","108","","","","","","null","<button class=""jspsych-btn""><img src=""stimuli/white_square.png"" style=""width: 200px;height: 200px;""></button>","null","pink","darkgreenblue","[""pink"",""darkgreenblue"",""low nameability""]","left-right","[""pink"",""darkgreenblue"",""low nameability""]","5","low nameability","41","left","iti",""
"html-button-response","205","299610","0.0-156.0","CKN_108","108","","","","","","621","","0","purple","brown","[""purple"",""brown"",""high nameability""]","right-left","[""brown"",""purple""]","5","high nameability","42","right","trigger",""
"html-button-response","206","303091","0.0-157.0-0.0","CKN_108","108","","","","","","3470","<button class=""jspsych-btn""><img src=""stimuli/purple.png"" style=""width: 200px;height: 200px;""></button>","1","purple","brown","[""purple"",""brown"",""high nameability""]","right-left","[""brown"",""purple""]","5","high nameability","42","right","response","1"
"html-audio-button-response","207","303292","0.0-157.0-1.0","CKN_108","108","","","","","","null","stimuli/bleep.m4a","null","purple","brown","[""purple"",""brown"",""high nameability""]","right-left","[""brown"",""purple""]","5","high nameability","42","right","audio_feedback","1"
"html-button-response","208","303800","0.0-158.0","CKN_108","108","","","","","","13","<button class=""jspsych-btn""><img src=""stimuli/white_square.png"" style=""width: 200px;height: 200px;""></button>","1","purple","brown","[""purple"",""brown"",""high nameability""]","right-left","[""brown"",""purple""]","5","high nameability","42","right","iti",""
"html-button-response","209","304612","0.0-159.0","CKN_108","108","","","","","","799","","0","blue","brown","[""blue"",""brown"",""high nameability""]","left-right","[""blue"",""brown"",""high nameability""]","5","high nameability","43","left","trigger",""
"html-button-response","210","305819","0.0-160.0-0.0","CKN_108","108","","","","","","1197","<button class=""jspsych-btn""><img src=""stimuli/blue.png"" style=""width: 200px;height: 200px;""></button>","0","blue","brown","[""blue"",""brown"",""high nameability""]","left-right","[""blue"",""brown"",""high nameability""]","5","high nameability","43","left","response","1"
"html-audio-button-response","211","306024","0.0-160.0-1.0","CKN_108","108","","","","","","null","stimuli/bleep.m4a","null","blue","brown","[""blue"",""brown"",""high nameability""]","left-right","[""blue"",""brown"",""high nameability""]","5","high nameability","43","left","audio_feedback","1"
"html-button-response","212","306541","0.0-161.0","CKN_108","108","","","","","","null","<button class=""jspsych-btn""><img src=""stimuli/white_square.png"" style=""width: 200px;height: 200px;""></button>","null","blue","brown","[""blue"",""brown"",""high nameability""]","left-right","[""blue"",""brown"",""high nameability""]","5","high nameability","43","left","iti",""
"html-button-response","213","307506","0.0-162.0","CKN_108","108","","","","","","953","","0","turquoise","pink","[""turquoise"",""pink"",""low nameability""]","right-left","[""pink"",""turquoise""]","5","low nameability","44","right","trigger",""
"html-button-response","214","308783","0.0-163.0-0.0","CKN_108","108","","","","","","1268","<button class=""jspsych-btn""><img src=""stimuli/turquoise.png"" style=""width: 200px;height: 200px;""></button>","1","turquoise","pink","[""turquoise"",""pink"",""low nameability""]","right-left","[""pink"",""turquoise""]","5","low nameability","44","right","response","1"
"html-audio-button-response","215","308982","0.0-163.0-1.0","CKN_108","108","","","","","","null","stimuli/bleep.m4a","null","turquoise","pink","[""turquoise"",""pink"",""low nameability""]","right-left","[""pink"",""turquoise""]","5","low nameability","44","right","audio_feedback","1"
"html-button-response","216","309496","0.0-164.0","CKN_108","108","","","","","","null","<button class=""jspsych-btn""><img src=""stimuli/white_square.png"" style=""width: 200px;height: 200px;""></button>","null","turquoise","pink","[""turquoise"",""pink"",""low nameability""]","right-left","[""pink"",""turquoise""]","5","low nameability","44","right","iti",""
"html-button-response","217","310408","0.0-165.0","CKN_108","108","","","","","","895","","0","orange","red","[""orange"",""red"",""high nameability""]","right-left","[""red"",""orange""]","5","high nameability","45","right","trigger",""
"html-button-response","218","311516","0.0-166.0-0.0","CKN_108","108","","","","","","1098","<button class=""jspsych-btn""><img src=""stimuli/orange.png"" style=""width: 200px;height: 200px;""></button>","1","orange","red","[""orange"",""red"",""high nameability""]","right-left","[""red"",""orange""]","5","high nameability","45","right","response","1"
"html-audio-button-response","219","311721","0.0-166.0-1.0","CKN_108","108","","","","","","null","stimuli/bleep.m4a","null","orange","red","[""orange"",""red"",""high nameability""]","right-left","[""red"",""orange""]","5","high nameability","45","right","audio_feedback","1"
"html-button-response","220","312240","0.0-167.0","CKN_108","108","","","","","","null","<button class=""jspsych-btn""><img src=""stimuli/white_square.png"" style=""width: 200px;height: 200px;""></button>","null","orange","red","[""orange"",""red"",""high nameability""]","right-left","[""red"",""orange""]","5","high nameability","45","right","iti",""
"html-button-response","221","312869","0.0-168.0","CKN_108","108","","","","","","615","","0","darkgreenblue","turquoise","[""darkgreenblue"",""turquoise"",""low nameability""]","right-left","[""turquoise"",""darkgreenblue""]","5","low nameability","46","right","trigger",""
"html-button-response","222","314789","0.0-169.0-0.0","CKN_108","108","","","","","","1912","<button class=""jspsych-btn""><img src=""stimuli/darkgreenblue.png"" style=""width: 200px;height: 200px;""></button>","1","darkgreenblue","turquoise","[""darkgreenblue"",""turquoise"",""low nameability""]","right-left","[""turquoise"",""darkgreenblue""]","5","low nameability","46","right","response","1"
"html-audio-button-response","223","314990","0.0-169.0-1.0","CKN_108","108","","","","","","null","stimuli/bleep.m4a","null","darkgreenblue","turquoise","[""darkgreenblue"",""turquoise"",""low nameability""]","right-left","[""turquoise"",""darkgreenblue""]","5","low nameability","46","right","audio_feedback","1"
"html-button-response","224","315507","0.0-170.0","CKN_108","108","","","","","","null","<button class=""jspsych-btn""><img src=""stimuli/white_square.png"" style=""width: 200px;height: 200px;""></button>","null","darkgreenblue","turquoise","[""darkgreenblue"",""turquoise"",""low nameability""]","right-left","[""turquoise"",""darkgreenblue""]","5","low nameability","46","right","iti",""
"html-button-response","225","315957","0.0-171.0","CKN_108","108","","","","","","434","","0","blue","yellow","[""blue"",""yellow"",""high nameability""]","left-right","[""blue"",""yellow"",""high nameability""]","5","high nameability","47","left","trigger",""
"html-button-response","226","317265","0.0-172.0-0.0","CKN_108","108","","","","","","1299","<button class=""jspsych-btn""><img src=""stimuli/blue.png"" style=""width: 200px;height: 200px;""></button>","0","blue","yellow","[""blue"",""yellow"",""high nameability""]","left-right","[""blue"",""yellow"",""high nameability""]","5","high nameability","47","left","response","1"
"html-audio-button-response","227","317471","0.0-172.0-1.0","CKN_108","108","","","","","","null","stimuli/bleep.m4a","null","blue","yellow","[""blue"",""yellow"",""high nameability""]","left-right","[""blue"",""yellow"",""high nameability""]","5","high nameability","47","left","audio_feedback","1"
"html-button-response","228","317989","0.0-173.0","CKN_108","108","","","","","","null","<button class=""jspsych-btn""><img src=""stimuli/white_square.png"" style=""width: 200px;height: 200px;""></button>","null","blue","yellow","[""blue"",""yellow"",""high nameability""]","left-right","[""blue"",""yellow"",""high nameability""]","5","high nameability","47","left","iti",""
"html-button-response","229","319030","0.0-174.0","CKN_108","108","","","","","","1030","","0","darkgreenblue","lightred","[""darkgreenblue"",""lightred"",""low nameability""]","left-right","[""darkgreenblue"",""lightred"",""low nameability""]","5","low nameability","48","left","trigger",""
"html-button-response","230","320926","0.0-175.0-0.0","CKN_108","108","","","","","","1888","<button class=""jspsych-btn""><img src=""stimuli/darkgreenblue.png"" style=""width: 200px;height: 200px;""></button>","0","darkgreenblue","lightred","[""darkgreenblue"",""lightred"",""low nameability""]","left-right","[""darkgreenblue"",""lightred"",""low nameability""]","5","low nameability","48","left","response","1"
"html-audio-button-response","231","321136","0.0-175.0-1.0","CKN_108","108","","","","","","null","stimuli/bleep.m4a","null","darkgreenblue","lightred","[""darkgreenblue"",""lightred"",""low nameability""]","left-right","[""darkgreenblue"",""lightred"",""low nameability""]","5","low nameability","48","left","audio_feedback","1"
"html-button-response","232","321650","0.0-176.0","CKN_108","108","","","","","","null","<button class=""jspsych-btn""><img src=""stimuli/white_square.png"" style=""width: 200px;height: 200px;""></button>","null","darkgreenblue","lightred","[""darkgreenblue"",""lightred"",""low nameability""]","left-right","[""darkgreenblue"",""lightred"",""low nameability""]","5","low nameability","48","left","iti",""
"html-button-response","233","322452","0.0-177.0","CKN_108","108","","","","","","784","","0","darkgreenblue","pink","[""darkgreenblue"",""pink"",""low nameability""]","left-right","[""darkgreenblue"",""pink"",""low nameability""]","5","low nameability","49","left","trigger",""
"html-button-response","234","323565","0.0-178.0-0.0","CKN_108","108","","","","","","1101","<button class=""jspsych-btn""><img src=""stimuli/darkgreenblue.png"" style=""width: 200px;height: 200px;""></button>","0","darkgreenblue","pink","[""darkgreenblue"",""pink"",""low nameability""]","left-right","[""darkgreenblue"",""pink"",""low nameability""]","5","low nameability","49","left","response","1"
"html-audio-button-response","235","323775","0.0-178.0-1.0","CKN_108","108","","","","","","null","stimuli/bleep.m4a","null","darkgreenblue","pink","[""darkgreenblue"",""pink"",""low nameability""]","left-right","[""darkgreenblue"",""pink"",""low nameability""]","5","low nameability","49","left","audio_feedback","1"
"html-button-response","236","324292","0.0-179.0","CKN_108","108","","","","","","null","<button class=""jspsych-btn""><img src=""stimuli/white_square.png"" style=""width: 200px;height: 200px;""></button>","null","darkgreenblue","pink","[""darkgreenblue"",""pink"",""low nameability""]","left-right","[""darkgreenblue"",""pink"",""low nameability""]","5","low nameability","49","left","iti",""
"html-button-response","237","325149","0.0-180.0","CKN_108","108","","","","","","845","","0","neonyellow","lightred","[""neonyellow"",""lightred"",""low nameability""]","right-left","[""lightred"",""neonyellow""]","5","low nameability","50","right","trigger",""
"html-button-response","238","326408","0.0-181.0-0.0","CKN_108","108","","","","","","1250","<button class=""jspsych-btn""><img src=""stimuli/neonyellow.png"" style=""width: 200px;height: 200px;""></button>","1","neonyellow","lightred","[""neonyellow"",""lightred"",""low nameability""]","right-left","[""lightred"",""neonyellow""]","5","low nameability","50","right","response","1"
"html-audio-button-response","239","326619","0.0-181.0-1.0","CKN_108","108","","","","","","null","stimuli/bleep.m4a","null","neonyellow","lightred","[""neonyellow"",""lightred"",""low nameability""]","right-left","[""lightred"",""neonyellow""]","5","low nameability","50","right","audio_feedback","1"
"html-button-response","240","327135","0.0-182.0","CKN_108","108","","","","","","null","<button class=""jspsych-btn""><img src=""stimuli/white_square.png"" style=""width: 200px;height: 200px;""></button>","null","neonyellow","lightred","[""neonyellow"",""lightred"",""low nameability""]","right-left","[""lightred"",""neonyellow""]","5","low nameability","50","right","iti",""
"pavlovia","241","327201","0.0-183.0","CKN_108","108","","","","","","","","","","","","","","","","","","",""
"pavlovia","242","327208","0.0-184.0","CKN_108","108","","","","","","","","","","","","","","","","","","",""
"html-audio-button-response","243","332087","0.0-185.0","CKN_108","108","","","","","","4944","stimuli/tada.m4a","0","","","","","","","","","","",""
"html-button-response","244","333997","0.0-186.0","CKN_108","108","","","","","","1903","","0","","","","","","","","","","",""
"html-button-response","245","336854","0.0-187.0","CKN_108","108","","","","","","2851","","0","red","blue","[""red"",""blue"",""high nameability""]","left-right","[""red"",""blue"",""high nameability""]","6","high nameability","51","left","trigger",""
"html-button-response","246","338690","0.0-188.0-0.0","CKN_108","108","","","","","","1830","<button class=""jspsych-btn""><img src=""stimuli/red.png"" style=""width: 200px;height: 200px;""></button>","0","red","blue","[""red"",""blue"",""high nameability""]","left-right","[""red"",""blue"",""high nameability""]","6","high nameability","51","left","response","1"
"html-audio-button-response","247","338889","0.0-188.0-1.0","CKN_108","108","","","","","","null","stimuli/bleep.m4a","null","red","blue","[""red"",""blue"",""high nameability""]","left-right","[""red"",""blue"",""high nameability""]","6","high nameability","51","left","audio_feedback","1"
"html-button-response","248","339402","0.0-189.0","CKN_108","108","","","","","","null","<button class=""jspsych-btn""><img src=""stimuli/white_square.png"" style=""width: 200px;height: 200px;""></button>","null","red","blue","[""red"",""blue"",""high nameability""]","left-right","[""red"",""blue"",""high nameability""]","6","high nameability","51","left","iti",""
"html-button-response","249","339770","0.0-190.0","CKN_108","108","","","","","","355","","0","brown","purple","[""brown"",""purple"",""high nameability""]","left-right","[""brown"",""purple"",""high nameability""]","6","high nameability","52","left","trigger",""
"html-button-response","250","342781","0.0-191.0-0.0","CKN_108","108","","","","","","2996","<button class=""jspsych-btn""><img src=""stimuli/brown.png"" style=""width: 200px;height: 200px;""></button>","0","brown","purple","[""brown"",""purple"",""high nameability""]","left-right","[""brown"",""purple"",""high nameability""]","6","high nameability","52","left","response","1"
"html-audio-button-response","251","342985","0.0-191.0-1.0","CKN_108","108","","","","","","null","stimuli/bleep.m4a","null","brown","purple","[""brown"",""purple"",""high nameability""]","left-right","[""brown"",""purple"",""high nameability""]","6","high nameability","52","left","audio_feedback","1"
"html-button-response","252","343507","0.0-192.0","CKN_108","108","","","","","","null","<button class=""jspsych-btn""><img src=""stimuli/white_square.png"" style=""width: 200px;height: 200px;""></button>","null","brown","purple","[""brown"",""purple"",""high nameability""]","left-right","[""brown"",""purple"",""high nameability""]","6","high nameability","52","left","iti",""
"html-button-response","253","343797","0.0-193.0","CKN_108","108","","","","","","269","","0","turquoise","darkgreenblue","[""turquoise"",""darkgreenblue"",""low nameability""]","right-left","[""darkgreenblue"",""turquoise""]","6","low nameability","53","right","trigger",""
"html-button-response","254","346358","0.0-194.0-0.0","CKN_108","108","","","","","","2547","<button class=""jspsych-btn""><img src=""stimuli/turquoise.png"" style=""width: 200px;height: 200px;""></button>","1","turquoise","darkgreenblue","[""turquoise"",""darkgreenblue"",""low nameability""]","right-left","[""darkgreenblue"",""turquoise""]","6","low nameability","53","right","response","1"
"html-audio-button-response","255","346574","0.0-194.0-1.0","CKN_108","108","","","","","","null","stimuli/bleep.m4a","null","turquoise","darkgreenblue","[""turquoise"",""darkgreenblue"",""low nameability""]","right-left","[""darkgreenblue"",""turquoise""]","6","low nameability","53","right","audio_feedback","1"
"html-button-response","256","347093","0.0-195.0","CKN_108","108","","","","","","67","<button class=""jspsych-btn""><img src=""stimuli/white_square.png"" style=""width: 200px;height: 200px;""></button>","1","turquoise","darkgreenblue","[""turquoise"",""darkgreenblue"",""low nameability""]","right-left","[""darkgreenblue"",""turquoise""]","6","low nameability","53","right","iti",""
"html-button-response","257","348099","0.0-196.0","CKN_108","108","","","","","","990","","0","brown","yellow","[""brown"",""yellow"",""high nameability""]","right-left","[""yellow"",""brown""]","6","high nameability","54","right","trigger",""
"html-button-response","258","349296","0.0-197.0-0.0","CKN_108","108","","","","","","1187","<button class=""jspsych-btn""><img src=""stimuli/brown.png"" style=""width: 200px;height: 200px;""></button>","1","brown","yellow","[""brown"",""yellow"",""high nameability""]","right-left","[""yellow"",""brown""]","6","high nameability","54","right","response","1"
"html-audio-button-response","259","349505","0.0-197.0-1.0","CKN_108","108","","","","","","null","stimuli/bleep.m4a","null","brown","yellow","[""brown"",""yellow"",""high nameability""]","right-left","[""yellow"",""brown""]","6","high nameability","54","right","audio_feedback","1"
"html-button-response","260","350020","0.0-198.0","CKN_108","108","","","","","","null","<button class=""jspsych-btn""><img src=""stimuli/white_square.png"" style=""width: 200px;height: 200px;""></button>","null","brown","yellow","[""brown"",""yellow"",""high nameability""]","right-left","[""yellow"",""brown""]","6","high nameability","54","right","iti",""
"html-button-response","261","351583","0.0-199.0","CKN_108","108","","","","","","1540","","0","brown","blue","[""brown"",""blue"",""high nameability""]","right-left","[""blue"",""brown""]","6","high nameability","55","right","trigger",""
"html-button-response","262","352651","0.0-200.0-0.0","CKN_108","108","","","","","","1060","<button class=""jspsych-btn""><img src=""stimuli/brown.png"" style=""width: 200px;height: 200px;""></button>","1","brown","blue","[""brown"",""blue"",""high nameability""]","right-left","[""blue"",""brown""]","6","high nameability","55","right","response","1"
"html-audio-button-response","263","352858","0.0-200.0-1.0","CKN_108","108","","","","","","null","stimuli/bleep.m4a","null","brown","blue","[""brown"",""blue"",""high nameability""]","right-left","[""blue"",""brown""]","6","high nameability","55","right","audio_feedback","1"
"html-button-response","264","353375","0.0-201.0","CKN_108","108","","","","","","null","<button class=""jspsych-btn""><img src=""stimuli/white_square.png"" style=""width: 200px;height: 200px;""></button>","null","brown","blue","[""brown"",""blue"",""high nameability""]","right-left","[""blue"",""brown""]","6","high nameability","55","right","iti",""
"html-button-response","265","353537","0.0-202.0","CKN_108","108","","","","","","151","","0","blue","red","[""blue"",""red"",""high nameability""]","right-left","[""red"",""blue""]","6","high nameability","56","right","trigger",""
"html-button-response","266","354697","0.0-203.0-0.0","CKN_108","108","","","","","","1152","<button class=""jspsych-btn""><img src=""stimuli/blue.png"" style=""width: 200px;height: 200px;""></button>","1","blue","red","[""blue"",""red"",""high nameability""]","right-left","[""red"",""blue""]","6","high nameability","56","right","response","1"
"html-audio-button-response","267","354905","0.0-203.0-1.0","CKN_108","108","","","","","","null","stimuli/bleep.m4a","null","blue","red","[""blue"",""red"",""high nameability""]","right-left","[""red"",""blue""]","6","high nameability","56","right","audio_feedback","1"
"html-button-response","268","355420","0.0-204.0","CKN_108","108","","","","","","null","<button class=""jspsych-btn""><img src=""stimuli/white_square.png"" style=""width: 200px;height: 200px;""></button>","null","blue","red","[""blue"",""red"",""high nameability""]","right-left","[""red"",""blue""]","6","high nameability","56","right","iti",""
"html-button-response","269","357438","0.0-205.0","CKN_108","108","","","","","","2009","","0","pink","neonyellow","[""pink"",""neonyellow"",""low nameability""]","left-right","[""pink"",""neonyellow"",""low nameability""]","6","low nameability","57","left","trigger",""
"html-button-response","270","358290","0.0-206.0-0.0","CKN_108","108","","","","","","843","<button class=""jspsych-btn""><img src=""stimuli/pink.png"" style=""width: 200px;height: 200px;""></button>","1","pink","neonyellow","[""pink"",""neonyellow"",""low nameability""]","left-right","[""pink"",""neonyellow"",""low nameability""]","6","low nameability","57","left","response","0"
"html-audio-button-response","271","358923","0.0-206.0-1.0","CKN_108","108","","","","","","null","stimuli/boing.m4a","null","pink","neonyellow","[""pink"",""neonyellow"",""low nameability""]","left-right","[""pink"",""neonyellow"",""low nameability""]","6","low nameability","57","left","audio_feedback","0"
"html-button-response","272","360416","0.0-206.1-0.1","CKN_108","108","","","","","","1466","<button class=""jspsych-btn""><img src=""stimuli/pink.png"" style=""width: 200px;height: 200px;""></button>","0","pink","neonyellow","[""pink"",""neonyellow"",""low nameability""]","left-right","[""pink"",""neonyellow"",""low nameability""]","6","low nameability","57","left","response","1"
"html-audio-button-response","273","360620","0.0-206.1-1.1","CKN_108","108","","","","","","null","stimuli/bleep.m4a","null","pink","neonyellow","[""pink"",""neonyellow"",""low nameability""]","left-right","[""pink"",""neonyellow"",""low nameability""]","6","low nameability","57","left","audio_feedback","1"
"html-button-response","274","361135","0.0-207.0","CKN_108","108","","","","","","null","<button class=""jspsych-btn""><img src=""stimuli/white_square.png"" style=""width: 200px;height: 200px;""></button>","null","pink","neonyellow","[""pink"",""neonyellow"",""low nameability""]","left-right","[""pink"",""neonyellow"",""low nameability""]","6","low nameability","57","left","iti",""
"html-button-response","275","362296","0.0-208.0","CKN_108","108","","","","","","1147","","0","purple","yellow","[""purple"",""yellow"",""high nameability""]","right-left","[""yellow"",""purple""]","6","high nameability","58","right","trigger",""
"html-button-response","276","364169","0.0-209.0-0.0","CKN_108","108","","","","","","1863","<button class=""jspsych-btn""><img src=""stimuli/purple.png"" style=""width: 200px;height: 200px;""></button>","1","purple","yellow","[""purple"",""yellow"",""high nameability""]","right-left","[""yellow"",""purple""]","6","high nameability","58","right","response","1"
"html-audio-button-response","277","364376","0.0-209.0-1.0","CKN_108","108","","","","","","null","stimuli/bleep.m4a","null","purple","yellow","[""purple"",""yellow"",""high nameability""]","right-left","[""yellow"",""purple""]","6","high nameability","58","right","audio_feedback","1"
"html-button-response","278","364899","0.0-210.0","CKN_108","108","","","","","","null","<button class=""jspsych-btn""><img src=""stimuli/white_square.png"" style=""width: 200px;height: 200px;""></button>","null","purple","yellow","[""purple"",""yellow"",""high nameability""]","right-left","[""yellow"",""purple""]","6","high nameability","58","right","iti",""
"html-button-response","279","365309","0.0-211.0","CKN_108","108","","","","","","400","","0","mustard","darkgreenblue","[""mustard"",""darkgreenblue"",""low nameability""]","left-right","[""mustard"",""darkgreenblue"",""low nameability""]","6","low nameability","59","left","trigger",""
"html-button-response","280","366733","0.0-212.0-0.0","CKN_108","108","","","","","","1414","<button class=""jspsych-btn""><img src=""stimuli/mustard.png"" style=""width: 200px;height: 200px;""></button>","0","mustard","darkgreenblue","[""mustard"",""darkgreenblue"",""low nameability""]","left-right","[""mustard"",""darkgreenblue"",""low nameability""]","6","low nameability","59","left","response","1"
"html-audio-button-response","281","366936","0.0-212.0-1.0","CKN_108","108","","","","","","null","stimuli/bleep.m4a","null","mustard","darkgreenblue","[""mustard"",""darkgreenblue"",""low nameability""]","left-right","[""mustard"",""darkgreenblue"",""low nameability""]","6","low nameability","59","left","audio_feedback","1"
"html-button-response","282","367453","0.0-213.0","CKN_108","108","","","","","","null","<button class=""jspsych-btn""><img src=""stimuli/white_square.png"" style=""width: 200px;height: 200px;""></button>","null","mustard","darkgreenblue","[""mustard"",""darkgreenblue"",""low nameability""]","left-right","[""mustard"",""darkgreenblue"",""low nameability""]","6","low nameability","59","left","iti",""
"html-button-response","283","368587","0.0-214.0","CKN_108","108","","","","","","1117","","0","lightred","darkgreenblue","[""lightred"",""darkgreenblue"",""low nameability""]","left-right","[""lightred"",""darkgreenblue"",""low nameability""]","6","low nameability","60","left","trigger",""
"html-button-response","284","372556","0.0-215.0-0.0","CKN_108","108","","","","","","3959","<button class=""jspsych-btn""><img src=""stimuli/lightred.png"" style=""width: 200px;height: 200px;""></button>","0","lightred","darkgreenblue","[""lightred"",""darkgreenblue"",""low nameability""]","left-right","[""lightred"",""darkgreenblue"",""low nameability""]","6","low nameability","60","left","response","1"
"html-audio-button-response","285","372757","0.0-215.0-1.0","CKN_108","108","","","","","","null","stimuli/bleep.m4a","null","lightred","darkgreenblue","[""lightred"",""darkgreenblue"",""low nameability""]","left-right","[""lightred"",""darkgreenblue"",""low nameability""]","6","low nameability","60","left","audio_feedback","1"
"html-button-response","286","373269","0.0-216.0","CKN_108","108","","","","","","87","<button class=""jspsych-btn""><img src=""stimuli/white_square.png"" style=""width: 200px;height: 200px;""></button>","0","lightred","darkgreenblue","[""lightred"",""darkgreenblue"",""low nameability""]","left-right","[""lightred"",""darkgreenblue"",""low nameability""]","6","low nameability","60","left","iti",""
