"trial_type","trial_index","time_elapsed","internal_node_id","subject_id","seed","success","timeout","failed_images","failed_audio","failed_video","rt","stimulus","response","target","foil","choices","combination_order","choices_in_order","round","condition","trial_counter","target_location","trial_kind","correct"
"pavlovia","0","17","0.0-0.0","CKN_108","108","","","","","","","","","","","","","","","","","","",""
"preload","1","542","0.0-1.0","CKN_108","108","true","false","[]","[]","[]","","","","","","","","","","","","","",""
"fullscreen","2","4052","0.0-2.0","CKN_108","108","true","","","","","","","","","","","","","","","","","",""
"html-button-response","3","20637","0.0-3.0","CKN_108","108","","","","","","16565","","0","","","","","","","","","","",""
"html-button-response","4","23585","0.0-4.0","CKN_108","108","","","","","","2935","","0","star","square","[""square"",""star""]","left-right","[""square"",""star""]","1","practice","1","right","trigger",""
"html-button-response","5","30821","0.0-5.0-0.0","CKN_108","108","","","","","","7222","<button class=""jspsych-btn""><img src=""stimuli/star.png"" style=""width: 200px;height: 200px;""></button>","1","star","square","[""square"",""star""]","left-right","[""square"",""star""]","1","practice","1","right","response","1"
"html-audio-button-response","6","31039","0.0-5.0-1.0","CKN_108","108","","","","","","null","stimuli/bleep.m4a","null","star","square","[""square"",""star""]","left-right","[""square"",""star""]","1","practice","1","right","audio_feedback","1"
"html-button-response","7","31555","0.0-6.0","CKN_108","108","","","","","","null","<button class=""jspsych-btn""><img src=""stimuli/white_square.png"" style=""width: 200px;height: 200px;""></button>","null","star","square","[""square"",""star""]","left-right","[""square"",""star""]","1","practice","1","right","iti",""
"html-button-response","8","34082","0.0-7.0","CKN_108","108","","","","","","2510","","0","triangle","pentagram","[""triangle"",""pentagram""]","left-right","[""triangle"",""pentagram""]","1","practice","1","left","trigger",""
"html-button-response","9","43553","0.0-8.0-0.0","CKN_108","108","","","","","","9458","<button class=""jspsych-btn""><img src=""stimuli/triangle.png"" style=""width: 200px;height: 200px;""></button>","0","triangle","pentagram","[""triangle"",""pentagram""]","left-right","[""triangle"",""pentagram""]","1","practice","1","left","response","1"
"html-audio-button-response","10","43753","0.0-8.0-1.0","CKN_108","108","","","","","","null","stimuli/bleep.m4a","null","triangle","pentagram","[""triangle"",""pentagram""]","left-right","[""triangle"",""pentagram""]","1","practice","1","left","audio_feedback","1"
"html-button-response","11","44268","0.0-9.0","CKN_108","108","","","","","","null","<button class=""jspsych-btn""><img src=""stimuli/white_square.png"" style=""width: 200px;height: 200px;""></button>","null","triangle","pentagram","[""triangle"",""pentagram""]","left-right","[""triangle"",""pentagram""]","1","practice","1","left","iti",""
"html-button-response","12","46101","0.0-10.0","CKN_108","108","","","","","","1820","","0","diamond","rectangle","[""rectangle"",""diamond""]","left-right","[""rectangle"",""diamond""]","1","practice","1","right","trigger",""
"html-button-response","13","51392","0.0-11.0-0.0","CKN_108","108","","","","","","5280","<button class=""jspsych-btn""><img src=""stimuli/diamond.png"" style=""width: 200px;height: 200px;""></button>","1","diamond","rectangle","[""rectangle"",""diamond""]","left-right","[""rectangle"",""diamond""]","1","practice","1","right","response","1"
"html-audio-button-response","14","51603","0.0-11.0-1.0","CKN_108","108","","","","","","null","stimuli/bleep.m4a","null","diamond","rectangle","[""rectangle"",""diamond""]","left-right","[""rectangle"",""diamond""]","1","practice","1","right","audio_feedback","1"
"html-button-response","15","52125","0.0-12.0","CKN_108","108","","","","","","null","<button class=""jspsych-btn""><img src=""stimuli/white_square.png"" style=""width: 200px;height: 200px;""></button>","null","diamond","rectangle","[""rectangle"",""diamond""]","left-right","[""rectangle"",""diamond""]","1","practice","1","right","iti",""
"html-button-response","16","53699","0.0-13.0","CKN_108","108","","","","","","1553","","0","pentagram","star","[""pentagram"",""star""]","left-right","[""pentagram"",""star""]","1","practice","1","left","trigger",""
"html-button-response","17","56672","0.0-14.0-0.0","CKN_108","108","","","","","","2962","<button class=""jspsych-btn""><img src=""stimuli/pentagram.png"" style=""width: 200px;height: 200px;""></button>","0","pentagram","star","[""pentagram"",""star""]","left-right","[""pentagram"",""star""]","1","practice","1","left","response","1"
"html-audio-button-response","18","56886","0.0-14.0-1.0","CKN_108","108","","","","","","null","stimuli/bleep.m4a","null","pentagram","star","[""pentagram"",""star""]","left-right","[""pentagram"",""star""]","1","practice","1","left","audio_feedback","1"
"html-button-response","19","57402","0.0-15.0","CKN_108","108","","","","","","null","<button class=""jspsych-btn""><img src=""stimuli/white_square.png"" style=""width: 200px;height: 200px;""></button>","null","pentagram","star","[""pentagram"",""star""]","left-right","[""pentagram"",""star""]","1","practice","1","left","iti",""
"html-button-response","20","59600","0.0-16.0","CKN_108","108","","","","","","2187","","0","","","","","","","","","","",""
"html-button-response","21","60985","0.0-17.0","CKN_108","108","","","","","","1376","","0","lightred","mustard","[""lightred"",""mustard"",""low nameability""]","right-left","[""mustard"",""lightred""]","1","low nameability","1","right","trigger",""
"html-button-response","22","64076","0.0-18.0-0.0","CKN_108","108","","","","","","3079","<button class=""jspsych-btn""><img src=""stimuli/lightred.png"" style=""width: 200px;height: 200px;""></button>","1","lightred","mustard","[""lightred"",""mustard"",""low nameability""]","right-left","[""mustard"",""lightred""]","1","low nameability","1","right","response","1"
"html-audio-button-response","23","64282","0.0-18.0-1.0","CKN_108","108","","","","","","null","stimuli/bleep.m4a","null","lightred","mustard","[""lightred"",""mustard"",""low nameability""]","right-left","[""mustard"",""lightred""]","1","low nameability","1","right","audio_feedback","1"
"html-button-response","24","64801","0.0-19.0","CKN_108","108","","","","","","null","<button class=""jspsych-btn""><img src=""stimuli/white_square.png"" style=""width: 200px;height: 200px;""></button>","null","lightred","mustard","[""lightred"",""mustard"",""low nameability""]","right-left","[""mustard"",""lightred""]","1","low nameability","1","right","iti",""
"html-button-response","25","65995","0.0-20.0","CKN_108","108","","","","","","1184","","0","neonyellow","pink","[""neonyellow"",""pink"",""low nameability""]","right-left","[""pink"",""neonyellow""]","1","low nameability","2","right","trigger",""
"html-button-response","26","67367","0.0-21.0-0.0","CKN_108","108","","","","","","1363","<button class=""jspsych-btn""><img src=""stimuli/neonyellow.png"" style=""width: 200px;height: 200px;""></button>","1","neonyellow","pink","[""neonyellow"",""pink"",""low nameability""]","right-left","[""pink"",""neonyellow""]","1","low nameability","2","right","response","1"
"html-audio-button-response","27","67574","0.0-21.0-1.0","CKN_108","108","","","","","","null","stimuli/bleep.m4a","null","neonyellow","pink","[""neonyellow"",""pink"",""low nameability""]","right-left","[""pink"",""neonyellow""]","1","low nameability","2","right","audio_feedback","1"
"html-button-response","28","68089","0.0-22.0","CKN_108","108","","","","","","null","<button class=""jspsych-btn""><img src=""stimuli/white_square.png"" style=""width: 200px;height: 200px;""></button>","null","neonyellow","pink","[""neonyellow"",""pink"",""low nameability""]","right-left","[""pink"",""neonyellow""]","1","low nameability","2","right","iti",""
"html-button-response","29","69256","0.0-23.0","CKN_108","108","","","","","","1153","","0","neonyellow","darkgreenblue","[""neonyellow"",""darkgreenblue"",""low nameability""]","left-right","[""neonyellow"",""darkgreenblue"",""low nameability""]","1","low nameability","3","left","trigger",""
"html-button-response","30","70813","0.0-24.0-0.0","CKN_108","108","","","","","","1545","<button class=""jspsych-btn""><img src=""stimuli/neonyellow.png"" style=""width: 200px;height: 200px;""></button>","1","neonyellow","darkgreenblue","[""neonyellow"",""darkgreenblue"",""low nameability""]","left-right","[""neonyellow"",""darkgreenblue"",""low nameability""]","1","low nameability","3","left","response","0"
"html-audio-button-response","31","71439","0.0-24.0-1.0","CKN_108","108","","","","","","null","stimuli/boing.m4a","null","neonyellow","darkgreenblue","[""neonyellow"",""darkgreenblue"",""low nameability""]","left-right","[""neonyellow"",""darkgreenblue"",""low nameability""]","1","low nameability","3","left","audio_feedback","0"
"html-button-response","32","73235","0.0-24.1-0.1","CKN_108","108","","","","","","1770","<button class=""jspsych-btn""><img src=""stimuli/neonyellow.png"" style=""width: 200px;height: 200px;""></button>","0","neonyellow","darkgreenblue","[""neonyellow"",""darkgreenblue"",""low nameability""]","left-right","[""neonyellow"",""darkgreenblue"",""low nameability""]","1","low nameability","3","left","response","1"
"html-audio-button-response","33","73442","0.0-24.1-1.1","CKN_108","108","","","","","","null","stimuli/bleep.m4a","null","neonyellow","darkgreenblue","[""neonyellow"",""darkgreenblue"",""low nameability""]","left-right","[""neonyellow"",""darkgreenblue"",""low nameability""]","1","low nameability","3","left","audio_feedback","1"
"html-button-response","34","73952","0.0-25.0","CKN_108","108","","","","","","null","<button class=""jspsych-btn""><img src=""stimuli/white_square.png"" style=""width: 200px;height: 200px;""></button>","null","neonyellow","darkgreenblue","[""neonyellow"",""darkgreenblue"",""low nameability""]","left-right","[""neonyellow"",""darkgreenblue"",""low nameability""]","1","low nameability","3","left","iti",""
"html-button-response","35","76885","0.0-26.0","CKN_108","108","","","","","","2926","","0","mustard","pink","[""mustard"",""pink"",""low nameability""]","right-left","[""pink"",""mustard""]","1","low nameability","4","right","trigger",""
"html-button-response","36","78842","0.0-27.0-0.0","CKN_108","108","","","","","","1950","<button class=""jspsych-btn""><img src=""stimuli/mustard.png"" style=""width: 200px;height: 200px;""></button>","0","mustard","pink","[""mustard"",""pink"",""low nameability""]","right-left","[""pink"",""mustard""]","1","low nameability","4","right","response","0"
"html-audio-button-response","37","79474","0.0-27.0-1.0","CKN_108","108","","","","","","null","stimuli/boing.m4a","null","mustard","pink","[""mustard"",""pink"",""low nameability""]","right-left","[""pink"",""mustard""]","1","low nameability","4","right","audio_feedback","0"
"html-button-response","38","80554","0.0-27.1-0.1","CKN_108","108","","","","","","1061","<button class=""jspsych-btn""><img src=""stimuli/mustard.png"" style=""width: 200px;height: 200px;""></button>","1","mustard","pink","[""mustard"",""pink"",""low nameability""]","right-left","[""pink"",""mustard""]","1","low nameability","4","right","response","1"
"html-audio-button-response","39","80764","0.0-27.1-1.1","CKN_108","108","","","","","","null","stimuli/bleep.m4a","null","mustard","pink","[""mustard"",""pink"",""low nameability""]","right-left","[""pink"",""mustard""]","1","low nameability","4","right","audio_feedback","1"
"html-button-response","40","81275","0.0-28.0","CKN_108","108","","","","","","null","<button class=""jspsych-btn""><img src=""stimuli/white_square.png"" style=""width: 200px;height: 200px;""></button>","null","mustard","pink","[""mustard"",""pink"",""low nameability""]","right-left","[""pink"",""mustard""]","1","low nameability","4","right","iti",""
"html-button-response","41","84111","0.0-29.0","CKN_108","108","","","","","","2825","","0","purple","orange","[""purple"",""orange"",""high nameability""]","left-right","[""purple"",""orange"",""high nameability""]","1","high nameability","5","left","trigger",""
"html-button-response","42","86964","0.0-30.0-0.0","CKN_108","108","","","","","","2844","<button class=""jspsych-btn""><img src=""stimuli/purple.png"" style=""width: 200px;height: 200px;""></button>","0","purple","orange","[""purple"",""orange"",""high nameability""]","left-right","[""purple"",""orange"",""high nameability""]","1","high nameability","5","left","response","1"
"html-audio-button-response","43","87168","0.0-30.0-1.0","CKN_108","108","","","","","","null","stimuli/bleep.m4a","null","purple","orange","[""purple"",""orange"",""high nameability""]","left-right","[""purple"",""orange"",""high nameability""]","1","high nameability","5","left","audio_feedback","1"
"html-button-response","44","87685","0.0-31.0","CKN_108","108","","","","","","null","<button class=""jspsych-btn""><img src=""stimuli/white_square.png"" style=""width: 200px;height: 200px;""></button>","null","purple","orange","[""purple"",""orange"",""high nameability""]","left-right","[""purple"",""orange"",""high nameability""]","1","high nameability","5","left","iti",""
"html-button-response","45","89989","0.0-32.0","CKN_108","108","","","","","","2296","","0","darkgreenblue","mustard","[""darkgreenblue"",""mustard"",""low nameability""]","right-left","[""mustard"",""darkgreenblue""]","1","low nameability","6","right","trigger",""
"html-button-response","46","92305","0.0-33.0-0.0","CKN_108","108","","","","","","2308","<button class=""jspsych-btn""><img src=""stimuli/darkgreenblue.png"" style=""width: 200px;height: 200px;""></button>","1","darkgreenblue","mustard","[""darkgreenblue"",""mustard"",""low nameability""]","right-left","[""mustard"",""darkgreenblue""]","1","low nameability","6","right","response","1"
"html-audio-button-response","47","92514","0.0-33.0-1.0","CKN_108","108","","","","","","null","stimuli/bleep.m4a","null","darkgreenblue","mustard","[""darkgreenblue"",""mustard"",""low nameability""]","right-left","[""mustard"",""darkgreenblue""]","1","low nameability","6","right","audio_feedback","1"
"html-button-response","48","93031","0.0-34.0","CKN_108","108","","","","","","null","<button class=""jspsych-btn""><img src=""stimuli/white_square.png"" style=""width: 200px;height: 200px;""></button>","null","darkgreenblue","mustard","[""darkgreenblue"",""mustard"",""low nameability""]","right-left","[""mustard"",""darkgreenblue""]","1","low nameability","6","right","iti",""
"html-button-response","49","93871","0.0-35.0","CKN_108","108","","","","","","830","","0","orange","blue","[""orange"",""blue"",""high nameability""]","left-right","[""orange"",""blue"",""high nameability""]","1","high nameability","7","left","trigger",""
"html-button-response","50","95690","0.0-36.0-0.0","CKN_108","108","","","","","","1812","<button class=""jspsych-btn""><img src=""stimuli/orange.png"" style=""width: 200px;height: 200px;""></button>","0","orange","blue","[""orange"",""blue"",""high nameability""]","left-right","[""orange"",""blue"",""high nameability""]","1","high nameability","7","left","response","1"
"html-audio-button-response","51","95893","0.0-36.0-1.0","CKN_108","108","","","","","","null","stimuli/bleep.m4a","null","orange","blue","[""orange"",""blue"",""high nameability""]","left-right","[""orange"",""blue"",""high nameability""]","1","high nameability","7","left","audio_feedback","1"
"html-button-response","52","96411","0.0-37.0","CKN_108","108","","","","","","null","<button class=""jspsych-btn""><img src=""stimuli/white_square.png"" style=""width: 200px;height: 200px;""></button>","null","orange","blue","[""orange"",""blue"",""high nameability""]","left-right","[""orange"",""blue"",""high nameability""]","1","high nameability","7","left","iti",""
"html-button-response","53","97766","0.0-38.0","CKN_108","108","","","","","","1342","","0","pink","turquoise","[""pink"",""turquoise"",""low nameability""]","right-left","[""turquoise"",""pink""]","1","low nameability","8","right","trigger",""
"html-button-response","54","99863","0.0-39.0-0.0","CKN_108","108","","","","","","2089","<button class=""jspsych-btn""><img src=""stimuli/pink.png"" style=""width: 200px;height: 200px;""></button>","1","pink","turquoise","[""pink"",""turquoise"",""low nameability""]","right-left","[""turquoise"",""pink""]","1","low nameability","8","right","response","1"
"html-audio-button-response","55","100070","0.0-39.0-1.0","CKN_108","108","","","","","","null","stimuli/bleep.m4a","null","pink","turquoise","[""pink"",""turquoise"",""low nameability""]","right-left","[""turquoise"",""pink""]","1","low nameability","8","right","audio_feedback","1"
"html-button-response","56","100590","0.0-40.0","CKN_108","108","","","","","","null","<button class=""jspsych-btn""><img src=""stimuli/white_square.png"" style=""width: 200px;height: 200px;""></button>","null","pink","turquoise","[""pink"",""turquoise"",""low nameability""]","right-left","[""turquoise"",""pink""]","1","low nameability","8","right","iti",""
"html-button-response","57","101600","0.0-41.0","CKN_108","108","","","","","","997","","0","pink","lightred","[""pink"",""lightred"",""low nameability""]","left-right","[""pink"",""lightred"",""low nameability""]","1","low nameability","9","left","trigger",""
"html-button-response","58","103593","0.0-42.0-0.0","CKN_108","108","","","","","","1987","<button class=""jspsych-btn""><img src=""stimuli/pink.png"" style=""width: 200px;height: 200px;""></button>","0","pink","lightred","[""pink"",""lightred"",""low nameability""]","left-right","[""pink"",""lightred"",""low nameability""]","1","low nameability","9","left","response","1"
"html-audio-button-response","59","103793","0.0-42.0-1.0","CKN_108","108","","","","","","null","stimuli/bleep.m4a","null","pink","lightred","[""pink"",""lightred"",""low nameability""]","left-right","[""pink"",""lightred"",""low nameability""]","1","low nameability","9","left","audio_feedback","1"
"html-button-response","60","104305","0.0-43.0","CKN_108","108","","","","","","null","<button class=""jspsych-btn""><img src=""stimuli/white_square.png"" style=""width: 200px;height: 200px;""></button>","null","pink","lightred","[""pink"",""lightred"",""low nameability""]","left-right","[""pink"",""lightred"",""low nameability""]","1","low nameability","9","left","iti",""
"html-button-response","61","106569","0.0-44.0","CKN_108","108","","","","","","2247","","0","pink","mustard","[""pink"",""mustard"",""low nameability""]","right-left","[""mustard"",""pink""]","1","low nameability","10","right","trigger",""
"html-button-response","62","109487","0.0-45.0-0.0","CKN_108","108","","","","","","2908","<button class=""jspsych-btn""><img src=""stimuli/pink.png"" style=""width: 200px;height: 200px;""></button>","1","pink","mustard","[""pink"",""mustard"",""low nameability""]","right-left","[""mustard"",""pink""]","1","low nameability","10","right","response","1"
"html-audio-button-response","63","109687","0.0-45.0-1.0","CKN_108","108","","","","","","null","stimuli/bleep.m4a","null","pink","mustard","[""pink"",""mustard"",""low nameability""]","right-left","[""mustard"",""pink""]","1","low nameability","10","right","audio_feedback","1"
"html-button-response","64","110193","0.0-46.0","CKN_108","108","","","","","","null","<button class=""jspsych-btn""><img src=""stimuli/white_square.png"" style=""width: 200px;height: 200px;""></button>","null","pink","mustard","[""pink"",""mustard"",""low nameability""]","right-left","[""mustard"",""pink""]","1","low nameability","10","right","iti",""
"pavlovia","65","110233","0.0-47.0","CKN_108","108","","","","","","","","","","","","","","","","","","",""
"pavlovia","66","110240","0.0-48.0","CKN_108","108","","","","","","","","","","","","","","","","","","",""
"html-audio-button-response","67","116913","0.0-49.0","CKN_108","108","","","","","","6704","stimuli/tada.m4a","0","","","","","","","","","","",""
"html-button-response","68","118821","0.0-50.0","CKN_108","108","","","","","","1902","","0","","","","","","","","","","",""
"html-button-response","69","120929","0.0-51.0","CKN_108","108","","","","","","2101","","0","turquoise","lightred","[""turquoise"",""lightred"",""low nameability""]","left-right","[""turquoise"",""lightred"",""low nameability""]","2","low nameability","11","left","trigger",""
"html-button-response","70","123678","0.0-52.0-0.0","CKN_108","108","","","","","","2740","<button class=""jspsych-btn""><img src=""stimuli/turquoise.png"" style=""width: 200px;height: 200px;""></button>","0","turquoise","lightred","[""turquoise"",""lightred"",""low nameability""]","left-right","[""turquoise"",""lightred"",""low nameability""]","2","low nameability","11","left","response","1"
"html-audio-button-response","71","123885","0.0-52.0-1.0","CKN_108","108","","","","","","null","stimuli/bleep.m4a","null","turquoise","lightred","[""turquoise"",""lightred"",""low nameability""]","left-right","[""turquoise"",""lightred"",""low nameability""]","2","low nameability","11","left","audio_feedback","1"
"html-button-response","72","124399","0.0-53.0","CKN_108","108","","","","","","null","<button class=""jspsych-btn""><img src=""stimuli/white_square.png"" style=""width: 200px;height: 200px;""></button>","null","turquoise","lightred","[""turquoise"",""lightred"",""low nameability""]","left-right","[""turquoise"",""lightred"",""low nameability""]","2","low nameability","11","left","iti",""
"html-button-response","73","125347","0.0-54.0","CKN_108","108","","","","","","937","","0","lightred","neonyellow","[""lightred"",""neonyellow"",""low nameability""]","right-left","[""neonyellow"",""lightred""]","2","low nameability","12","right","trigger",""
"html-button-response","74","128561","0.0-55.0-0.0","CKN_108","108","","","","","","3205","<button class=""jspsych-btn""><img src=""stimuli/lightred.png"" style=""width: 200px;height: 200px;""></button>","1","lightred","neonyellow","[""lightred"",""neonyellow"",""low nameability""]","right-left","[""neonyellow"",""lightred""]","2","low nameability","12","right","response","1"
"html-audio-button-response","75","128761","0.0-55.0-1.0","CKN_108","108","","","","","","null","stimuli/bleep.m4a","null","lightred","neonyellow","[""lightred"",""neonyellow"",""low nameability""]","right-left","[""neonyellow"",""lightred""]","2","low nameability","12","right","audio_feedback","1"
"html-button-response","76","129278","0.0-56.0","CKN_108","108","","","","","","null","<button class=""jspsych-btn""><img src=""stimuli/white_square.png"" style=""width: 200px;height: 200px;""></button>","null","lightred","neonyellow","[""lightred"",""neonyellow"",""low nameability""]","right-left","[""neonyellow"",""lightred""]","2","low nameability","12","right","iti",""
"html-button-response","77","130403","0.0-57.0","CKN_108","108","","","","","","1114","","0","yellow","brown","[""yellow"",""brown"",""high nameability""]","right-left","[""brown"",""yellow""]","2","high nameability","13","right","trigger",""
"html-button-response","78","134117","0.0-58.0-0.0","CKN_108","108","","","","","","3708","<button class=""jspsych-btn""><img src=""stimuli/yellow.png"" style=""width: 200px;height: 200px;""></button>","1","yellow","brown","[""yellow"",""brown"",""high nameability""]","right-left","[""brown"",""yellow""]","2","high nameability","13","right","response","1"
"html-audio-button-response","79","134320","0.0-58.0-1.0","CKN_108","108","","","","","","null","stimuli/bleep.m4a","null","yellow","brown","[""yellow"",""brown"",""high nameability""]","right-left","[""brown"",""yellow""]","2","high nameability","13","right","audio_feedback","1"
"html-button-response","80","134829","0.0-59.0","CKN_108","108","","","","","","null","<button class=""jspsych-btn""><img src=""stimuli/white_square.png"" style=""width: 200px;height: 200px;""></button>","null","yellow","brown","[""yellow"",""brown"",""high nameability""]","right-left","[""brown"",""yellow""]","2","high nameability","13","right","iti",""
"html-button-response","81","135983","0.0-60.0","CKN_108","108","","","","","","1133","","0","yellow","purple","[""yellow"",""purple"",""high nameability""]","left-right","[""yellow"",""purple"",""high nameability""]","2","high nameability","14","left","trigger",""
"html-button-response","82","137680","0.0-61.0-0.0","CKN_108","108","","","","","","1691","<button class=""jspsych-btn""><img src=""stimuli/yellow.png"" style=""width: 200px;height: 200px;""></button>","0","yellow","purple","[""yellow"",""purple"",""high nameability""]","left-right","[""yellow"",""purple"",""high nameability""]","2","high nameability","14","left","response","1"
"html-audio-button-response","83","137881","0.0-61.0-1.0","CKN_108","108","","","","","","null","stimuli/bleep.m4a","null","yellow","purple","[""yellow"",""purple"",""high nameability""]","left-right","[""yellow"",""purple"",""high nameability""]","2","high nameability","14","left","audio_feedback","1"
"html-button-response","84","138397","0.0-62.0","CKN_108","108","","","","","","null","<button class=""jspsych-btn""><img src=""stimuli/white_square.png"" style=""width: 200px;height: 200px;""></button>","null","yellow","purple","[""yellow"",""purple"",""high nameability""]","left-right","[""yellow"",""purple"",""high nameability""]","2","high nameability","14","left","iti",""
"html-button-response","85","140550","0.0-63.0","CKN_108","108","","","","","","2140","","0","neonyellow","mustard","[""neonyellow"",""mustard"",""low nameability""]","right-left","[""mustard"",""neonyellow""]","2","low nameability","15","right","trigger",""
"html-button-response","86","142427","0.0-64.0-0.0","CKN_108","108","","","","","","1867","<button class=""jspsych-btn""><img src=""stimuli/neonyellow.png"" style=""width: 200px;height: 200px;""></button>","1","neonyellow","mustard","[""neonyellow"",""mustard"",""low nameability""]","right-left","[""mustard"",""neonyellow""]","2","low nameability","15","right","response","1"
"html-audio-button-response","87","142635","0.0-64.0-1.0","CKN_108","108","","","","","","null","stimuli/bleep.m4a","null","neonyellow","mustard","[""neonyellow"",""mustard"",""low nameability""]","right-left","[""mustard"",""neonyellow""]","2","low nameability","15","right","audio_feedback","1"
"html-button-response","88","143147","0.0-65.0","CKN_108","108","","","","","","null","<button class=""jspsych-btn""><img src=""stimuli/white_square.png"" style=""width: 200px;height: 200px;""></button>","null","neonyellow","mustard","[""neonyellow"",""mustard"",""low nameability""]","right-left","[""mustard"",""neonyellow""]","2","low nameability","15","right","iti",""
"html-button-response","89","144018","0.0-66.0","CKN_108","108","","","","","","857","","0","turquoise","mustard","[""turquoise"",""mustard"",""low nameability""]","right-left","[""mustard"",""turquoise""]","2","low nameability","16","right","trigger",""
"html-button-response","90","146985","0.0-67.0-0.0","CKN_108","108","","","","","","2958","<button class=""jspsych-btn""><img src=""stimuli/turquoise.png"" style=""width: 200px;height: 200px;""></button>","1","turquoise","mustard","[""turquoise"",""mustard"",""low nameability""]","right-left","[""mustard"",""turquoise""]","2","low nameability","16","right","response","1"
"html-audio-button-response","91","147185","0.0-67.0-1.0","CKN_108","108","","","","","","null","stimuli/bleep.m4a","null","turquoise","mustard","[""turquoise"",""mustard"",""low nameability""]","right-left","[""mustard"",""turquoise""]","2","low nameability","16","right","audio_feedback","1"
"html-button-response","92","147700","0.0-68.0","CKN_108","108","","","","","","null","<button class=""jspsych-btn""><img src=""stimuli/white_square.png"" style=""width: 200px;height: 200px;""></button>","null","turquoise","mustard","[""turquoise"",""mustard"",""low nameability""]","right-left","[""mustard"",""turquoise""]","2","low nameability","16","right","iti",""
"html-button-response","93","148564","0.0-69.0","CKN_108","108","","","","","","854","","0","brown","red","[""brown"",""red"",""high nameability""]","left-right","[""brown"",""red"",""high nameability""]","2","high nameability","17","left","trigger",""
"html-button-response","94","151446","0.0-70.0-0.0","CKN_108","108","","","","","","2876","<button class=""jspsych-btn""><img src=""stimuli/brown.png"" style=""width: 200px;height: 200px;""></button>","0","brown","red","[""brown"",""red"",""high nameability""]","left-right","[""brown"",""red"",""high nameability""]","2","high nameability","17","left","response","1"
"html-audio-button-response","95","151653","0.0-70.0-1.0","CKN_108","108","","","","","","null","stimuli/bleep.m4a","null","brown","red","[""brown"",""red"",""high nameability""]","left-right","[""brown"",""red"",""high nameability""]","2","high nameability","17","left","audio_feedback","1"
"html-button-response","96","152164","0.0-71.0","CKN_108","108","","","","","","null","<button class=""jspsych-btn""><img src=""stimuli/white_square.png"" style=""width: 200px;height: 200px;""></button>","null","brown","red","[""brown"",""red"",""high nameability""]","left-right","[""brown"",""red"",""high nameability""]","2","high nameability","17","left","iti",""
"html-button-response","97","154273","0.0-72.0","CKN_108","108","","","","","","2094","","0","red","purple","[""red"",""purple"",""high nameability""]","left-right","[""red"",""purple"",""high nameability""]","2","high nameability","18","left","trigger",""
"html-button-response","98","156880","0.0-73.0-0.0","CKN_108","108","","","","","","2600","<button class=""jspsych-btn""><img src=""stimuli/red.png"" style=""width: 200px;height: 200px;""></button>","0","red","purple","[""red"",""purple"",""high nameability""]","left-right","[""red"",""purple"",""high nameability""]","2","high nameability","18","left","response","1"
"html-audio-button-response","99","157080","0.0-73.0-1.0","CKN_108","108","","","","","","null","stimuli/bleep.m4a","null","red","purple","[""red"",""purple"",""high nameability""]","left-right","[""red"",""purple"",""high nameability""]","2","high nameability","18","left","audio_feedback","1"
"html-button-response","100","157593","0.0-74.0","CKN_108","108","","","","","","null","<button class=""jspsych-btn""><img src=""stimuli/white_square.png"" style=""width: 200px;height: 200px;""></button>","null","red","purple","[""red"",""purple"",""high nameability""]","left-right","[""red"",""purple"",""high nameability""]","2","high nameability","18","left","iti",""
"html-button-response","101","158868","0.0-75.0","CKN_108","108","","","","","","1263","","0","mustard","lightred","[""mustard"",""lightred"",""low nameability""]","right-left","[""lightred"",""mustard""]","2","low nameability","19","right","trigger",""
"html-button-response","102","162187","0.0-76.0-0.0","CKN_108","108","","","","","","3313","<button class=""jspsych-btn""><img src=""stimuli/mustard.png"" style=""width: 200px;height: 200px;""></button>","1","mustard","lightred","[""mustard"",""lightred"",""low nameability""]","right-left","[""lightred"",""mustard""]","2","low nameability","19","right","response","1"
"html-audio-button-response","103","162393","0.0-76.0-1.0","CKN_108","108","","","","","","null","stimuli/bleep.m4a","null","mustard","lightred","[""mustard"",""lightred"",""low nameability""]","right-left","[""lightred"",""mustard""]","2","low nameability","19","right","audio_feedback","1"
"html-button-response","104","162905","0.0-77.0","CKN_108","108","","","","","","null","<button class=""jspsych-btn""><img src=""stimuli/white_square.png"" style=""width: 200px;height: 200px;""></button>","null","mustard","lightred","[""mustard"",""lightred"",""low nameability""]","right-left","[""lightred"",""mustard""]","2","low nameability","19","right","iti",""
"html-button-response","105","163862","0.0-78.0","CKN_108","108","","","","","","945","","0","mustard","turquoise","[""mustard"",""turquoise"",""low nameability""]","right-left","[""turquoise"",""mustard""]","2","low nameability","20","right","trigger",""
"html-button-response","106","165787","0.0-79.0-0.0","CKN_108","108","","","","","","1919","<button class=""jspsych-btn""><img src=""stimuli/mustard.png"" style=""width: 200px;height: 200px;""></button>","1","mustard","turquoise","[""mustard"",""turquoise"",""low nameability""]","right-left","[""turquoise"",""mustard""]","2","low nameability","20","right","response","1"
"html-audio-button-response","107","165989","0.0-79.0-1.0","CKN_108","108","","","","","","null","stimuli/bleep.m4a","null","mustard","turquoise","[""mustard"",""turquoise"",""low nameability""]","right-left","[""turquoise"",""mustard""]","2","low nameability","20","right","audio_feedback","1"
"html-button-response","108","166499","0.0-80.0","CKN_108","108","","","","","","null","<button class=""jspsych-btn""><img src=""stimuli/white_square.png"" style=""width: 200px;height: 200px;""></button>","null","mustard","turquoise","[""mustard"",""turquoise"",""low nameability""]","right-left","[""turquoise"",""mustard""]","2","low nameability","20","right","iti",""
"pavlovia","109","166572","0.0-81.0","CKN_108","108","","","","","","","","","","","","","","","","","","",""
"pavlovia","110","166585","0.0-82.0","CKN_108","108","","","","","","","","","","","","","","","","","","",""
"html-audio-button-response","111","172826","0.0-83.0","CKN_108","108","","","","","","6307","stimuli/tada.m4a","0","","","","","","","","","","",""
"html-button-response","112","173609","0.0-84.0","CKN_108","108","","","","","","773","","0","","","","","","","","","","",""
"html-button-response","113","175584","0.0-85.0","CKN_108","108","","","","","","1968","","0","lightred","pink","[""lightred"",""pink"",""low nameability""]","right-left","[""pink"",""lightred""]","3","low nameability","21","right","trigger",""
"html-button-response","114","177512","0.0-86.0-0.0","CKN_108","108","","","","","","1921","<button class=""jspsych-btn""><img src=""stimuli/lightred.png"" style=""width: 200px;height: 200px;""></button>","1","lightred","pink","[""lightred"",""pink"",""low nameability""]","right-left","[""pink"",""lightred""]","3","low nameability","21","right","response","1"
"html-audio-button-response","115","177714","0.0-86.0-1.0","CKN_108","108","","","","","","null","stimuli/bleep.m4a","null","lightred","pink","[""lightred"",""pink"",""low nameability""]","right-left","[""pink"",""lightred""]","3","low nameability","21","right","audio_feedback","1"
"html-button-response","116","178225","0.0-87.0","CKN_108","108","","","","","","null","<button class=""jspsych-btn""><img src=""stimuli/white_square.png"" style=""width: 200px;height: 200px;""></button>","null","lightred","pink","[""lightred"",""pink"",""low nameability""]","right-left","[""pink"",""lightred""]","3","low nameability","21","right","iti",""
"html-button-response","117","179303","0.0-88.0","CKN_108","108","","","","","","1067","","0","blue","orange","[""blue"",""orange"",""high nameability""]","right-left","[""orange"",""blue""]","3","high nameability","22","right","trigger",""
"html-button-response","118","180984","0.0-89.0-0.0","CKN_108","108","","","","","","1674","<button class=""jspsych-btn""><img src=""stimuli/blue.png"" style=""width: 200px;height: 200px;""></button>","1","blue","orange","[""blue"",""orange"",""high nameability""]","right-left","[""orange"",""blue""]","3","high nameability","22","right","response","1"
"html-audio-button-response","119","181185","0.0-89.0-1.0","CKN_108","108","","","","","","null","stimuli/bleep.m4a","null","blue","orange","[""blue"",""orange"",""high nameability""]","right-left","[""orange"",""blue""]","3","high nameability","22","right","audio_feedback","1"
"html-button-response","120","181698","0.0-90.0","CKN_108","108","","","","","","null","<button class=""jspsych-btn""><img src=""stimuli/white_square.png"" style=""width: 200px;height: 200px;""></button>","null","blue","orange","[""blue"",""orange"",""high nameability""]","right-left","[""orange"",""blue""]","3","high nameability","22","right","iti",""
"html-button-response","121","182615","0.0-91.0","CKN_108","108","","","","","","905","","0","orange","brown","[""orange"",""brown"",""high nameability""]","left-right","[""orange"",""brown"",""high nameability""]","3","high nameability","23","left","trigger",""
"html-button-response","122","185531","0.0-92.0-0.0","CKN_108","108","","","","","","2909","<button class=""jspsych-btn""><img src=""stimuli/orange.png"" style=""width: 200px;height: 200px;""></button>","0","orange","brown","[""orange"",""brown"",""high nameability""]","left-right","[""orange"",""brown"",""high nameability""]","3","high nameability","23","left","response","1"
"html-audio-button-response","123","185733","0.0-92.0-1.0","CKN_108","108","","","","","","null","stimuli/bleep.m4a","null","orange","brown","[""orange"",""brown"",""high nameability""]","left-right","[""orange"",""brown"",""high nameability""]","3","high nameability","23","left","audio_feedback","1"
"html-button-response","124","186250","0.0-93.0","CKN_108","108","","","","","","null","<button class=""jspsych-btn""><img src=""stimuli/white_square.png"" style=""width: 200px;height: 200px;""></button>","null","orange","brown","[""orange"",""brown"",""high nameability""]","left-right","[""orange"",""brown"",""high nameability""]","3","high nameability","23","left","iti",""
"html-button-response","125","187358","0.0-94.0","CKN_108","108","","","","","","1093","","0","blue","purple","[""blue"",""purple"",""high nameability""]","left-right","[""blue"",""purple"",""high nameability""]","3","high nameability","24","left","trigger",""
"html-button-response","126","188784","0.0-95.0-0.0","CKN_108","108","","","","","","1418","<button class=""jspsych-btn""><img src=""stimuli/blue.png"" style=""width: 200px;height: 200px;""></button>","0","blue","purple","[""blue"",""purple"",""high nameability""]","left-right","[""blue"",""purple"",""high nameability""]","3","high nameability","24","left","response","1"
"html-audio-button-response","127","188985","0.0-95.0-1.0","CKN_108","108","","","","","","null","stimuli/bleep.m4a","null","blue","purple","[""blue"",""purple"",""high nameability""]","left-right","[""blue"",""purple"",""high nameability""]","3","high nameability","24","left","audio_feedback","1"
"html-button-response","128","189495","0.0-96.0","CKN_108","108","","","","","","null","<button class=""jspsych-btn""><img src=""stimuli/white_square.png"" style=""width: 200px;height: 200px;""></button>","null","blue","purple","[""blue"",""purple"",""high nameability""]","left-right","[""blue"",""purple"",""high nameability""]","3","high nameability","24","left","iti",""
"html-button-response","129","193559","0.0-97.0","CKN_108","108","","","","","","4050","","0","red","brown","[""red"",""brown"",""high nameability""]","left-right","[""red"",""brown"",""high nameability""]","3","high nameability","25","left","trigger",""
"html-button-response","130","195558","0.0-98.0-0.0","CKN_108","108","","","","","","1980","<button class=""jspsych-btn""><img src=""stimuli/red.png"" style=""width: 200px;height: 200px;""></button>","0","red","brown","[""red"",""brown"",""high nameability""]","left-right","[""red"",""brown"",""high nameability""]","3","high nameability","25","left","response","1"
"html-audio-button-response","131","195767","0.0-98.0-1.0","CKN_108","108","","","","","","null","stimuli/bleep.m4a","null","red","brown","[""red"",""brown"",""high nameability""]","left-right","[""red"",""brown"",""high nameability""]","3","high nameability","25","left","audio_feedback","1"
"html-button-response","132","196295","0.0-99.0","CKN_108","108","","","","","","null","<button class=""jspsych-btn""><img src=""stimuli/white_square.png"" style=""width: 200px;height: 200px;""></button>","null","red","brown","[""red"",""brown"",""high nameability""]","left-right","[""red"",""brown"",""high nameability""]","3","high nameability","25","left","iti",""
"html-button-response","133","197259","0.0-100.0","CKN_108","108","","","","","","944","","0","mustard","neonyellow","[""mustard"",""neonyellow"",""low nameability""]","right-left","[""neonyellow"",""mustard""]","3","low nameability","26","right","trigger",""
"html-button-response","134","198796","0.0-101.0-0.0","CKN_108","108","","","","","","1522","<button class=""jspsych-btn""><img src=""stimuli/mustard.png"" style=""width: 200px;height: 200px;""></button>","1","mustard","neonyellow","[""mustard"",""neonyellow"",""low nameability""]","right-left","[""neonyellow"",""mustard""]","3","low nameability","26","right","response","1"
"html-audio-button-response","135","199015","0.0-101.0-1.0","CKN_108","108","","","","","","null","stimuli/bleep.m4a","null","mustard","neonyellow","[""mustard"",""neonyellow"",""low nameability""]","right-left","[""neonyellow"",""mustard""]","3","low nameability","26","right","audio_feedback","1"
"html-button-response","136","199533","0.0-102.0","CKN_108","108","","","","","","null","<button class=""jspsych-btn""><img src=""stimuli/white_square.png"" style=""width: 200px;height: 200px;""></button>","null","mustard","neonyellow","[""mustard"",""neonyellow"",""low nameability""]","right-left","[""neonyellow"",""mustard""]","3","low nameability","26","right","iti",""
"html-button-response","137","200429","0.0-103.0","CKN_108","108","","","","","","874","","0","orange","yellow","[""orange"",""yellow"",""high nameability""]","left-right","[""orange"",""yellow"",""high nameability""]","3","high nameability","27","left","trigger",""
"html-button-response","138","202456","0.0-104.0-0.0","CKN_108","108","","","","","","2015","<button class=""jspsych-btn""><img src=""stimuli/orange.png"" style=""width: 200px;height: 200px;""></button>","0","orange","yellow","[""orange"",""yellow"",""high nameability""]","left-right","[""orange"",""yellow"",""high nameability""]","3","high nameability","27","left","response","1"
"html-audio-button-response","139","202666","0.0-104.0-1.0","CKN_108","108","","","","","","null","stimuli/bleep.m4a","null","orange","yellow","[""orange"",""yellow"",""high nameability""]","left-right","[""orange"",""yellow"",""high nameability""]","3","high nameability","27","left","audio_feedback","1"
"html-button-response","140","203185","0.0-105.0","CKN_108","108","","","","","","null","<button class=""jspsych-btn""><img src=""stimuli/white_square.png"" style=""width: 200px;height: 200px;""></button>","null","orange","yellow","[""orange"",""yellow"",""high nameability""]","left-right","[""orange"",""yellow"",""high nameability""]","3","high nameability","27","left","iti",""
"html-button-response","141","204202","0.0-106.0","CKN_108","108","","","","","","1007","","0","purple","red","[""purple"",""red"",""high nameability""]","left-right","[""purple"",""red"",""high nameability""]","3","high nameability","28","left","trigger",""
"html-button-response","142","205379","0.0-107.0-0.0","CKN_108","108","","","","","","1168","<button class=""jspsych-btn""><img src=""stimuli/purple.png"" style=""width: 200px;height: 200px;""></button>","1","purple","red","[""purple"",""red"",""high nameability""]","left-right","[""purple"",""red"",""high nameability""]","3","high nameability","28","left","response","0"
"html-audio-button-response","143","206007","0.0-107.0-1.0","CKN_108","108","","","","","","null","stimuli/boing.m4a","null","purple","red","[""purple"",""red"",""high nameability""]","left-right","[""purple"",""red"",""high nameability""]","3","high nameability","28","left","audio_feedback","0"
"html-button-response","144","206850","0.0-107.1-0.1","CKN_108","108","","","","","","826","<button class=""jspsych-btn""><img src=""stimuli/purple.png"" style=""width: 200px;height: 200px;""></button>","0","purple","red","[""purple"",""red"",""high nameability""]","left-right","[""purple"",""red"",""high nameability""]","3","high nameability","28","left","response","1"
"html-audio-button-response","145","207056","0.0-107.1-1.1","CKN_108","108","","","","","","null","stimuli/bleep.m4a","null","purple","red","[""purple"",""red"",""high nameability""]","left-right","[""purple"",""red"",""high nameability""]","3","high nameability","28","left","audio_feedback","1"
"html-button-response","146","207567","0.0-108.0","CKN_108","108","","","","","","null","<button class=""jspsych-btn""><img src=""stimuli/white_square.png"" style=""width: 200px;height: 200px;""></button>","null","purple","red","[""purple"",""red"",""high nameability""]","left-right","[""purple"",""red"",""high nameability""]","3","high nameability","28","left","iti",""
"html-button-response","147","208629","0.0-109.0","CKN_108","108","","","","","","1049","","0","turquoise","neonyellow","[""turquoise"",""neonyellow"",""low nameability""]","left-right","[""turquoise"",""neonyellow"",""low nameability""]","3","low nameability","29","left","trigger",""
"html-button-response","148","210792","0.0-110.0-0.0","CKN_108","108","","","","","","2152","<button class=""jspsych-btn""><img src=""stimuli/turquoise.png"" style=""width: 200px;height: 200px;""></button>","0","turquoise","neonyellow","[""turquoise"",""neonyellow"",""low nameability""]","left-right","[""turquoise"",""neonyellow"",""low nameability""]","3","low nameability","29","left","response","1"
"html-audio-button-response","149","210998","0.0-110.0-1.0","CKN_108","108","","","","","","null","stimuli/bleep.m4a","null","turquoise","neonyellow","[""turquoise"",""neonyellow"",""low nameability""]","left-right","[""turquoise"",""neonyellow"",""low nameability""]","3","low nameability","29","left","audio_feedback","1"
"html-button-response","150","211518","0.0-111.0","CKN_108","108","","","","","","null","<button class=""jspsych-btn""><img src=""stimuli/white_square.png"" style=""width: 200px;height: 200px;""></button>","null","turquoise","neonyellow","[""turquoise"",""neonyellow"",""low nameability""]","left-right","[""turquoise"",""neonyellow"",""low nameability""]","3","low nameability","29","left","iti",""
"html-button-response","151","212673","0.0-112.0","CKN_108","108","","","","","","1142","","0","yellow","red","[""yellow"",""red"",""high nameability""]","right-left","[""red"",""yellow""]","3","high nameability","30","right","trigger",""
"html-button-response","152","214259","0.0-113.0-0.0","CKN_108","108","","","","","","1578","<button class=""jspsych-btn""><img src=""stimuli/yellow.png"" style=""width: 200px;height: 200px;""></button>","1","yellow","red","[""yellow"",""red"",""high nameability""]","right-left","[""red"",""yellow""]","3","high nameability","30","right","response","1"
"html-audio-button-response","153","214460","0.0-113.0-1.0","CKN_108","108","","","","","","null","stimuli/bleep.m4a","null","yellow","red","[""yellow"",""red"",""high nameability""]","right-left","[""red"",""yellow""]","3","high nameability","30","right","audio_feedback","1"
"html-button-response","154","214972","0.0-114.0","CKN_108","108","","","","","","null","<button class=""jspsych-btn""><img src=""stimuli/white_square.png"" style=""width: 200px;height: 200px;""></button>","null","yellow","red","[""yellow"",""red"",""high nameability""]","right-left","[""red"",""yellow""]","3","high nameability","30","right","iti",""
"pavlovia","155","215065","0.0-115.0","CKN_108","108","","","","","","","","","","","","","","","","","","",""
"pavlovia","156","215076","0.0-116.0","CKN_108","108","","","","","","","","","","","","","","","","","","",""
"html-audio-button-response","157","220379","0.0-117.0","CKN_108","108","","","","","","5392","stimuli/tada.m4a","0","","","","","","","","","","",""
"html-button-response","158","221079","0.0-118.0","CKN_108","108","","","","","","692","","0","","","","","","","","","","",""
"html-button-response","159","223147","0.0-119.0","CKN_108","108","","","","","","2060","","0","purple","blue","[""purple"",""blue"",""high nameability""]","right-left","[""blue"",""purple""]","4","high nameability","31","right","trigger",""
"html-button-response","160","229541","0.0-120.0-0.0","CKN_108","108","","","","","","6387","<button class=""jspsych-btn""><img src=""stimuli/purple.png"" style=""width: 200px;height: 200px;""></button>","1","purple","blue","[""purple"",""blue"",""high nameability""]","right-left","[""blue"",""purple""]","4","high nameability","31","right","response","1"
"html-audio-button-response","161","229749","0.0-120.0-1.0","CKN_108","108","","","","","","null","stimuli/bleep.m4a","null","purple","blue","[""purple"",""blue"",""high nameability""]","right-left","[""blue"",""purple""]","4","high nameability","31","right","audio_feedback","1"
"html-button-response","162","230264","0.0-121.0","CKN_108","108","","","","","","null","<button class=""jspsych-btn""><img src=""stimuli/white_square.png"" style=""width: 200px;height: 200px;""></button>","null","purple","blue","[""purple"",""blue"",""high nameability""]","right-left","[""blue"",""purple""]","4","high nameability","31","right","iti",""
"html-button-response","163","231020","0.0-122.0","CKN_108","108","","","","","","748","","0","yellow","blue","[""yellow"",""blue"",""high nameability""]","left-right","[""yellow"",""blue"",""high nameability""]","4","high nameability","32","left","trigger",""
"html-button-response","164","232521","0.0-123.0-0.0","CKN_108","108","","","","","","1492","<button class=""jspsych-btn""><img src=""stimuli/yellow.png"" style=""width: 200px;height: 200px;""></button>","0","yellow","blue","[""yellow"",""blue"",""high nameability""]","left-right","[""yellow"",""blue"",""high nameability""]","4","high nameability","32","left","response","1"
"html-audio-button-response","165","232724","0.0-123.0-1.0","CKN_108","108","","","","","","null","stimuli/bleep.m4a","null","yellow","blue","[""yellow"",""blue"",""high nameability""]","left-right","[""yellow"",""blue"",""high nameability""]","4","high nameability","32","left","audio_feedback","1"
"html-button-response","166","233237","0.0-124.0","CKN_108","108","","","","","","null","<button class=""jspsych-btn""><img src=""stimuli/white_square.png"" style=""width: 200px;height: 200px;""></button>","null","yellow","blue","[""yellow"",""blue"",""high nameability""]","left-right","[""yellow"",""blue"",""high nameability""]","4","high nameability","32","left","iti",""
"html-button-response","167","235397","0.0-125.0","CKN_108","108","","","","","","2149","","0","lightred","turquoise","[""lightred"",""turquoise"",""low nameability""]","left-right","[""lightred"",""turquoise"",""low nameability""]","4","low nameability","33","left","trigger",""
"html-button-response","168","236894","0.0-126.0-0.0","CKN_108","108","","","","","","1487","<button class=""jspsych-btn""><img src=""stimuli/lightred.png"" style=""width: 200px;height: 200px;""></button>","0","lightred","turquoise","[""lightred"",""turquoise"",""low nameability""]","left-right","[""lightred"",""turquoise"",""low nameability""]","4","low nameability","33","left","response","1"
"html-audio-button-response","169","237098","0.0-126.0-1.0","CKN_108","108","","","","","","null","stimuli/bleep.m4a","null","lightred","turquoise","[""lightred"",""turquoise"",""low nameability""]","left-right","[""lightred"",""turquoise"",""low nameability""]","4","low nameability","33","left","audio_feedback","1"
"html-button-response","170","237613","0.0-127.0","CKN_108","108","","","","","","null","<button class=""jspsych-btn""><img src=""stimuli/white_square.png"" style=""width: 200px;height: 200px;""></button>","null","lightred","turquoise","[""lightred"",""turquoise"",""low nameability""]","left-right","[""lightred"",""turquoise"",""low nameability""]","4","low nameability","33","left","iti",""
"html-button-response","171","238666","0.0-128.0","CKN_108","108","","","","","","1042","","0","red","yellow","[""red"",""yellow"",""high nameability""]","left-right","[""red"",""yellow"",""high nameability""]","4","high nameability","34","left","trigger",""
"html-button-response","172","240283","0.0-129.0-0.0","CKN_108","108","","","","","","1607","<button class=""jspsych-btn""><img src=""stimuli/red.png"" style=""width: 200px;height: 200px;""></button>","0","red","yellow","[""red"",""yellow"",""high nameability""]","left-right","[""red"",""yellow"",""high nameability""]","4","high nameability","34","left","response","1"
"html-audio-button-response","173","240488","0.0-129.0-1.0","CKN_108","108","","","","","","null","stimuli/bleep.m4a","null","red","yellow","[""red"",""yellow"",""high nameability""]","left-right","[""red"",""yellow"",""high nameability""]","4","high nameability","34","left","audio_feedback","1"
"html-button-response","174","241004","0.0-130.0","CKN_108","108","","","","","","null","<button class=""jspsych-btn""><img src=""stimuli/white_square.png"" style=""width: 200px;height: 200px;""></button>","null","red","yellow","[""red"",""yellow"",""high nameability""]","left-right","[""red"",""yellow"",""high nameability""]","4","high nameability","34","left","iti",""
"html-button-response","175","242012","0.0-131.0","CKN_108","108","","","","","","997","","0","yellow","orange","[""yellow"",""orange"",""high nameability""]","left-right","[""yellow"",""orange"",""high nameability""]","4","high nameability","35","left","trigger",""
"html-button-response","176","244155","0.0-132.0-0.0","CKN_108","108","","","","","","2136","<button class=""jspsych-btn""><img src=""stimuli/yellow.png"" style=""width: 200px;height: 200px;""></button>","0","yellow","orange","[""yellow"",""orange"",""high nameability""]","left-right","[""yellow"",""orange"",""high nameability""]","4","high nameability","35","left","response","1"
"html-audio-button-response","177","244357","0.0-132.0-1.0","CKN_108","108","","","","","","null","stimuli/bleep.m4a","null","yellow","orange","[""yellow"",""orange"",""high nameability""]","left-right","[""yellow"",""orange"",""high nameability""]","4","high nameability","35","left","audio_feedback","1"
"html-button-response","178","244869","0.0-133.0","CKN_108","108","","","","","","173","<button class=""jspsych-btn""><img src=""stimuli/white_square.png"" style=""width: 200px;height: 200px;""></button>","0","yellow","orange","[""yellow"",""orange"",""high nameability""]","left-right","[""yellow"",""orange"",""high nameability""]","4","high nameability","35","left","iti",""
"html-button-response","179","246971","0.0-134.0","CKN_108","108","","","","","","2084","","0","red","orange","[""red"",""orange"",""high nameability""]","left-right","[""red"",""orange"",""high nameability""]","4","high nameability","36","left","trigger",""
"html-button-response","180","251696","0.0-135.0-0.0","CKN_108","108","","","","","","4718","<button class=""jspsych-btn""><img src=""stimuli/red.png"" style=""width: 200px;height: 200px;""></button>","0","red","orange","[""red"",""orange"",""high nameability""]","left-right","[""red"",""orange"",""high nameability""]","4","high nameability","36","left","response","1"
"html-audio-button-response","181","251903","0.0-135.0-1.0","CKN_108","108","","","","","","null","stimuli/bleep.m4a","null","red","orange","[""red"",""orange"",""high nameability""]","left-right","[""red"",""orange"",""high nameability""]","4","high nameability","36","left","audio_feedback","1"
"html-button-response","182","252421","0.0-136.0","CKN_108","108","","","","","","null","<button class=""jspsych-btn""><img src=""stimuli/white_square.png"" style=""width: 200px;height: 200px;""></button>","null","red","orange","[""red"",""orange"",""high nameability""]","left-right","[""red"",""orange"",""high nameability""]","4","high nameability","36","left","iti",""
"html-button-response","183","253216","0.0-137.0","CKN_108","108","","","","","","789","","0","neonyellow","turquoise","[""neonyellow"",""turquoise"",""low nameability""]","right-left","[""turquoise"",""neonyellow""]","4","low nameability","37","right","trigger",""
"html-button-response","184","255379","0.0-138.0-0.0","CKN_108","108","","","","","","2151","<button class=""jspsych-btn""><img src=""stimuli/neonyellow.png"" style=""width: 200px;height: 200px;""></button>","1","neonyellow","turquoise","[""neonyellow"",""turquoise"",""low nameability""]","right-left","[""turquoise"",""neonyellow""]","4","low nameability","37","right","response","1"
"html-audio-button-response","185","255591","0.0-138.0-1.0","CKN_108","108","","","","","","null","stimuli/bleep.m4a","null","neonyellow","turquoise","[""neonyellow"",""turquoise"",""low nameability""]","right-left","[""turquoise"",""neonyellow""]","4","low nameability","37","right","audio_feedback","1"
"html-button-response","186","256113","0.0-139.0","CKN_108","108","","","","","","null","<button class=""jspsych-btn""><img src=""stimuli/white_square.png"" style=""width: 200px;height: 200px;""></button>","null","neonyellow","turquoise","[""neonyellow"",""turquoise"",""low nameability""]","right-left","[""turquoise"",""neonyellow""]","4","low nameability","37","right","iti",""
"html-button-response","187","256532","0.0-140.0","CKN_108","108","","","","","","399","","0","darkgreenblue","neonyellow","[""darkgreenblue"",""neonyellow"",""low nameability""]","right-left","[""neonyellow"",""darkgreenblue""]","4","low nameability","38","right","trigger",""
"html-button-response","188","258279","0.0-141.0-0.0","CKN_108","108","","","","","","1737","<button class=""jspsych-btn""><img src=""stimuli/darkgreenblue.png"" style=""width: 200px;height: 200px;""></button>","1","darkgreenblue","neonyellow","[""darkgreenblue"",""neonyellow"",""low nameability""]","right-left","[""neonyellow"",""darkgreenblue""]","4","low nameability","38","right","response","1"
"html-audio-button-response","189","258489","0.0-141.0-1.0","CKN_108","108","","","","","","null","stimuli/bleep.m4a","null","darkgreenblue","neonyellow","[""darkgreenblue"",""neonyellow"",""low nameability""]","right-left","[""neonyellow"",""darkgreenblue""]","4","low nameability","38","right","audio_feedback","1"
"html-button-response","190","259018","0.0-142.0","CKN_108","108","","","","","","null","<button class=""jspsych-btn""><img src=""stimuli/white_square.png"" style=""width: 200px;height: 200px;""></button>","null","darkgreenblue","neonyellow","[""darkgreenblue"",""neonyellow"",""low nameability""]","right-left","[""neonyellow"",""darkgreenblue""]","4","low nameability","38","right","iti",""
"html-button-response","191","259961","0.0-143.0","CKN_108","108","","","","","","916","","0","orange","purple","[""orange"",""purple"",""high nameability""]","right-left","[""purple"",""orange""]","4","high nameability","39","right","trigger",""
"html-button-response","192","261592","0.0-144.0-0.0","CKN_108","108","","","","","","1621","<button class=""jspsych-btn""><img src=""stimuli/orange.png"" style=""width: 200px;height: 200px;""></button>","1","orange","purple","[""orange"",""purple"",""high nameability""]","right-left","[""purple"",""orange""]","4","high nameability","39","right","response","1"
"html-audio-button-response","193","261799","0.0-144.0-1.0","CKN_108","108","","","","","","null","stimuli/bleep.m4a","null","orange","purple","[""orange"",""purple"",""high nameability""]","right-left","[""purple"",""orange""]","4","high nameability","39","right","audio_feedback","1"
"html-button-response","194","262324","0.0-145.0","CKN_108","108","","","","","","null","<button class=""jspsych-btn""><img src=""stimuli/white_square.png"" style=""width: 200px;height: 200px;""></button>","null","orange","purple","[""orange"",""purple"",""high nameability""]","right-left","[""purple"",""orange""]","4","high nameability","39","right","iti",""
"html-button-response","195","263284","0.0-146.0","CKN_108","108","","","","","","945","","0","brown","orange","[""brown"",""orange"",""high nameability""]","left-right","[""brown"",""orange"",""high nameability""]","4","high nameability","40","left","trigger",""
"html-button-response","196","265923","0.0-147.0-0.0","CKN_108","108","","","","","","2629","<button class=""jspsych-btn""><img src=""stimuli/brown.png"" style=""width: 200px;height: 200px;""></button>","0","brown","orange","[""brown"",""orange"",""high nameability""]","left-right","[""brown"",""orange"",""high nameability""]","4","high nameability","40","left","response","1"
"html-audio-button-response","197","266124","0.0-147.0-1.0","CKN_108","108","","","","","","null","stimuli/bleep.m4a","null","brown","orange","[""brown"",""orange"",""high nameability""]","left-right","[""brown"",""orange"",""high nameability""]","4","high nameability","40","left","audio_feedback","1"
"html-button-response","198","266640","0.0-148.0","CKN_108","108","","","","","","null","<button class=""jspsych-btn""><img src=""stimuli/white_square.png"" style=""width: 200px;height: 200px;""></button>","null","brown","orange","[""brown"",""orange"",""high nameability""]","left-right","[""brown"",""orange"",""high nameability""]","4","high nameability","40","left","iti",""
"pavlovia","199","266724","0.0-149.0","CKN_108","108","","","","","","","","","","","","","","","","","","",""
"pavlovia","200","266732","0.0-150.0","CKN_108","108","","","","","","","","","","","","","","","","","","",""
"html-audio-button-response","201","271466","0.0-151.0","CKN_108","108","","","","","","4829","stimuli/tada.m4a","0","","","","","","","","","","",""
"html-button-response","202","272555","0.0-152.0","CKN_108","108","","","","","","1080","","0","","","","","","","","","","",""
"html-button-response","203","275082","0.0-153.0","CKN_108","108","","","","","","2519","","0","pink","darkgreenblue","[""pink"",""darkgreenblue"",""low nameability""]","left-right","[""pink"",""darkgreenblue"",""low nameability""]","5","low nameability","41","left","trigger",""
"html-button-response","204","276583","0.0-154.0-0.0","CKN_108","108","","","","","","1494","<button class=""jspsych-btn""><img src=""stimuli/pink.png"" style=""width: 200px;height: 200px;""></button>","0","pink","darkgreenblue","[""pink"",""darkgreenblue"",""low nameability""]","left-right","[""pink"",""darkgreenblue"",""low nameability""]","5","low nameability","41","left","response","1"
"html-audio-button-response","205","276787","0.0-154.0-1.0","CKN_108","108","","","","","","null","stimuli/bleep.m4a","null","pink","darkgreenblue","[""pink"",""darkgreenblue"",""low nameability""]","left-right","[""pink"",""darkgreenblue"",""low nameability""]","5","low nameability","41","left","audio_feedback","1"
"html-button-response","206","277302","0.0-155.0","CKN_108","108","","","","","","null","<button class=""jspsych-btn""><img src=""stimuli/white_square.png"" style=""width: 200px;height: 200px;""></button>","null","pink","darkgreenblue","[""pink"",""darkgreenblue"",""low nameability""]","left-right","[""pink"",""darkgreenblue"",""low nameability""]","5","low nameability","41","left","iti",""
"html-button-response","207","278257","0.0-156.0","CKN_108","108","","","","","","939","","0","purple","brown","[""purple"",""brown"",""high nameability""]","right-left","[""brown"",""purple""]","5","high nameability","42","right","trigger",""
"html-button-response","208","279916","0.0-157.0-0.0","CKN_108","108","","","","","","1651","<button class=""jspsych-btn""><img src=""stimuli/purple.png"" style=""width: 200px;height: 200px;""></button>","1","purple","brown","[""purple"",""brown"",""high nameability""]","right-left","[""brown"",""purple""]","5","high nameability","42","right","response","1"
"html-audio-button-response","209","280117","0.0-157.0-1.0","CKN_108","108","","","","","","null","stimuli/bleep.m4a","null","purple","brown","[""purple"",""brown"",""high nameability""]","right-left","[""brown"",""purple""]","5","high nameability","42","right","audio_feedback","1"
"html-button-response","210","280629","0.0-158.0","CKN_108","108","","","","","","null","<button class=""jspsych-btn""><img src=""stimuli/white_square.png"" style=""width: 200px;height: 200px;""></button>","null","purple","brown","[""purple"",""brown"",""high nameability""]","right-left","[""brown"",""purple""]","5","high nameability","42","right","iti",""
"html-button-response","211","281912","0.0-159.0","CKN_108","108","","","","","","1265","","0","blue","brown","[""blue"",""brown"",""high nameability""]","left-right","[""blue"",""brown"",""high nameability""]","5","high nameability","43","left","trigger",""
"html-button-response","212","283336","0.0-160.0-0.0","CKN_108","108","","","","","","1413","<button class=""jspsych-btn""><img src=""stimuli/blue.png"" style=""width: 200px;height: 200px;""></button>","0","blue","brown","[""blue"",""brown"",""high nameability""]","left-right","[""blue"",""brown"",""high nameability""]","5","high nameability","43","left","response","1"
"html-audio-button-response","213","283537","0.0-160.0-1.0","CKN_108","108","","","","","","null","stimuli/bleep.m4a","null","blue","brown","[""blue"",""brown"",""high nameability""]","left-right","[""blue"",""brown"",""high nameability""]","5","high nameability","43","left","audio_feedback","1"
"html-button-response","214","284051","0.0-161.0","CKN_108","108","","","","","","null","<button class=""jspsych-btn""><img src=""stimuli/white_square.png"" style=""width: 200px;height: 200px;""></button>","null","blue","brown","[""blue"",""brown"",""high nameability""]","left-right","[""blue"",""brown"",""high nameability""]","5","high nameability","43","left","iti",""
"html-button-response","215","285795","0.0-162.0","CKN_108","108","","","","","","1723","","0","turquoise","pink","[""turquoise"",""pink"",""low nameability""]","right-left","[""pink"",""turquoise""]","5","low nameability","44","right","trigger",""
"html-button-response","216","287509","0.0-163.0-0.0","CKN_108","108","","","","","","1702","<button class=""jspsych-btn""><img src=""stimuli/turquoise.png"" style=""width: 200px;height: 200px;""></button>","1","turquoise","pink","[""turquoise"",""pink"",""low nameability""]","right-left","[""pink"",""turquoise""]","5","low nameability","44","right","response","1"
"html-audio-button-response","217","287711","0.0-163.0-1.0","CKN_108","108","","","","","","null","stimuli/bleep.m4a","null","turquoise","pink","[""turquoise"",""pink"",""low nameability""]","right-left","[""pink"",""turquoise""]","5","low nameability","44","right","audio_feedback","1"
"html-button-response","218","288227","0.0-164.0","CKN_108","108","","","","","","null","<button class=""jspsych-btn""><img src=""stimuli/white_square.png"" style=""width: 200px;height: 200px;""></button>","null","turquoise","pink","[""turquoise"",""pink"",""low nameability""]","right-left","[""pink"",""turquoise""]","5","low nameability","44","right","iti",""
"html-button-response","219","290169","0.0-165.0","CKN_108","108","","","","","","1926","","0","orange","red","[""orange"",""red"",""high nameability""]","right-left","[""red"",""orange""]","5","high nameability","45","right","trigger",""
"html-button-response","220","291709","0.0-166.0-0.0","CKN_108","108","","","","","","1533","<button class=""jspsych-btn""><img src=""stimuli/orange.png"" style=""width: 200px;height: 200px;""></button>","1","orange","red","[""orange"",""red"",""high nameability""]","right-left","[""red"",""orange""]","5","high nameability","45","right","response","1"
"html-audio-button-response","221","291909","0.0-166.0-1.0","CKN_108","108","","","","","","null","stimuli/bleep.m4a","null","orange","red","[""orange"",""red"",""high nameability""]","right-left","[""red"",""orange""]","5","high nameability","45","right","audio_feedback","1"
"html-button-response","222","292425","0.0-167.0","CKN_108","108","","","","","","null","<button class=""jspsych-btn""><img src=""stimuli/white_square.png"" style=""width: 200px;height: 200px;""></button>","null","orange","red","[""orange"",""red"",""high nameability""]","right-left","[""red"",""orange""]","5","high nameability","45","right","iti",""
"html-button-response","223","293421","0.0-168.0","CKN_108","108","","","","","","992","","0","darkgreenblue","turquoise","[""darkgreenblue"",""turquoise"",""low nameability""]","right-left","[""turquoise"",""darkgreenblue""]","5","low nameability","46","right","trigger",""
"html-button-response","224","294747","0.0-169.0-0.0","CKN_108","108","","","","","","1318","<button class=""jspsych-btn""><img src=""stimuli/darkgreenblue.png"" style=""width: 200px;height: 200px;""></button>","1","darkgreenblue","turquoise","[""darkgreenblue"",""turquoise"",""low nameability""]","right-left","[""turquoise"",""darkgreenblue""]","5","low nameability","46","right","response","1"
"html-audio-button-response","225","294956","0.0-169.0-1.0","CKN_108","108","","","","","","null","stimuli/bleep.m4a","null","darkgreenblue","turquoise","[""darkgreenblue"",""turquoise"",""low nameability""]","right-left","[""turquoise"",""darkgreenblue""]","5","low nameability","46","right","audio_feedback","1"
"html-button-response","226","295471","0.0-170.0","CKN_108","108","","","","","","null","<button class=""jspsych-btn""><img src=""stimuli/white_square.png"" style=""width: 200px;height: 200px;""></button>","null","darkgreenblue","turquoise","[""darkgreenblue"",""turquoise"",""low nameability""]","right-left","[""turquoise"",""darkgreenblue""]","5","low nameability","46","right","iti",""
"html-button-response","227","295830","0.0-171.0","CKN_108","108","","","","","","347","","0","blue","yellow","[""blue"",""yellow"",""high nameability""]","left-right","[""blue"",""yellow"",""high nameability""]","5","high nameability","47","left","trigger",""
"html-button-response","228","297512","0.0-172.0-0.0","CKN_108","108","","","","","","1674","<button class=""jspsych-btn""><img src=""stimuli/blue.png"" style=""width: 200px;height: 200px;""></button>","0","blue","yellow","[""blue"",""yellow"",""high nameability""]","left-right","[""blue"",""yellow"",""high nameability""]","5","high nameability","47","left","response","1"
"html-audio-button-response","229","297717","0.0-172.0-1.0","CKN_108","108","","","","","","null","stimuli/bleep.m4a","null","blue","yellow","[""blue"",""yellow"",""high nameability""]","left-right","[""blue"",""yellow"",""high nameability""]","5","high nameability","47","left","audio_feedback","1"
"html-button-response","230","298228","0.0-173.0","CKN_108","108","","","","","","null","<button class=""jspsych-btn""><img src=""stimuli/white_square.png"" style=""width: 200px;height: 200px;""></button>","null","blue","yellow","[""blue"",""yellow"",""high nameability""]","left-right","[""blue"",""yellow"",""high nameability""]","5","high nameability","47","left","iti",""
"html-button-response","231","301396","0.0-174.0","CKN_108","108","","","","","","3151","","0","darkgreenblue","lightred","[""darkgreenblue"",""lightred"",""low nameability""]","left-right","[""darkgreenblue"",""lightred"",""low nameability""]","5","low nameability","48","left","trigger",""
"html-button-response","232","302594","0.0-175.0-0.0","CKN_108","108","","","","","","1190","<button class=""jspsych-btn""><img src=""stimuli/darkgreenblue.png"" style=""width: 200px;height: 200px;""></button>","0","darkgreenblue","lightred","[""darkgreenblue"",""lightred"",""low nameability""]","left-right","[""darkgreenblue"",""lightred"",""low nameability""]","5","low nameability","48","left","response","1"
"html-audio-button-response","233","302800","0.0-175.0-1.0","CKN_108","108","","","","","","null","stimuli/bleep.m4a","null","darkgreenblue","lightred","[""darkgreenblue"",""lightred"",""low nameability""]","left-right","[""darkgreenblue"",""lightred"",""low nameability""]","5","low nameability","48","left","audio_feedback","1"
"html-button-response","234","303314","0.0-176.0","CKN_108","108","","","","","","null","<button class=""jspsych-btn""><img src=""stimuli/white_square.png"" style=""width: 200px;height: 200px;""></button>","null","darkgreenblue","lightred","[""darkgreenblue"",""lightred"",""low nameability""]","left-right","[""darkgreenblue"",""lightred"",""low nameability""]","5","low nameability","48","left","iti",""
"html-button-response","235","304224","0.0-177.0","CKN_108","108","","","","","","897","","0","darkgreenblue","pink","[""darkgreenblue"",""pink"",""low nameability""]","left-right","[""darkgreenblue"",""pink"",""low nameability""]","5","low nameability","49","left","trigger",""
"html-button-response","236","305397","0.0-178.0-0.0","CKN_108","108","","","","","","1161","<button class=""jspsych-btn""><img src=""stimuli/darkgreenblue.png"" style=""width: 200px;height: 200px;""></button>","0","darkgreenblue","pink","[""darkgreenblue"",""pink"",""low nameability""]","left-right","[""darkgreenblue"",""pink"",""low nameability""]","5","low nameability","49","left","response","1"
"html-audio-button-response","237","305600","0.0-178.0-1.0","CKN_108","108","","","","","","null","stimuli/bleep.m4a","null","darkgreenblue","pink","[""darkgreenblue"",""pink"",""low nameability""]","left-right","[""darkgreenblue"",""pink"",""low nameability""]","5","low nameability","49","left","audio_feedback","1"
"html-button-response","238","306112","0.0-179.0","CKN_108","108","","","","","","null","<button class=""jspsych-btn""><img src=""stimuli/white_square.png"" style=""width: 200px;height: 200px;""></button>","null","darkgreenblue","pink","[""darkgreenblue"",""pink"",""low nameability""]","left-right","[""darkgreenblue"",""pink"",""low nameability""]","5","low nameability","49","left","iti",""
"html-button-response","239","306956","0.0-180.0","CKN_108","108","","","","","","831","","0","neonyellow","lightred","[""neonyellow"",""lightred"",""low nameability""]","right-left","[""lightred"",""neonyellow""]","5","low nameability","50","right","trigger",""
"html-button-response","240","309516","0.0-181.0-0.0","CKN_108","108","","","","","","2550","<button class=""jspsych-btn""><img src=""stimuli/neonyellow.png"" style=""width: 200px;height: 200px;""></button>","1","neonyellow","lightred","[""neonyellow"",""lightred"",""low nameability""]","right-left","[""lightred"",""neonyellow""]","5","low nameability","50","right","response","1"
"html-audio-button-response","241","309718","0.0-181.0-1.0","CKN_108","108","","","","","","null","stimuli/bleep.m4a","null","neonyellow","lightred","[""neonyellow"",""lightred"",""low nameability""]","right-left","[""lightred"",""neonyellow""]","5","low nameability","50","right","audio_feedback","1"
"html-button-response","242","310236","0.0-182.0","CKN_108","108","","","","","","null","<button class=""jspsych-btn""><img src=""stimuli/white_square.png"" style=""width: 200px;height: 200px;""></button>","null","neonyellow","lightred","[""neonyellow"",""lightred"",""low nameability""]","right-left","[""lightred"",""neonyellow""]","5","low nameability","50","right","iti",""
"pavlovia","243","310324","0.0-183.0","CKN_108","108","","","","","","","","","","","","","","","","","","",""
"pavlovia","244","310331","0.0-184.0","CKN_108","108","","","","","","","","","","","","","","","","","","",""
"html-audio-button-response","245","314691","0.0-185.0","CKN_108","108","","","","","","4456","stimuli/tada.m4a","0","","","","","","","","","","",""
"html-button-response","246","315749","0.0-186.0","CKN_108","108","","","","","","1048","","0","","","","","","","","","","",""
"html-button-response","247","317348","0.0-187.0","CKN_108","108","","","","","","1588","","0","red","blue","[""red"",""blue"",""high nameability""]","left-right","[""red"",""blue"",""high nameability""]","6","high nameability","51","left","trigger",""
"html-button-response","248","318533","0.0-188.0-0.0","CKN_108","108","","","","","","1175","<button class=""jspsych-btn""><img src=""stimuli/red.png"" style=""width: 200px;height: 200px;""></button>","0","red","blue","[""red"",""blue"",""high nameability""]","left-right","[""red"",""blue"",""high nameability""]","6","high nameability","51","left","response","1"
"html-audio-button-response","249","318742","0.0-188.0-1.0","CKN_108","108","","","","","","null","stimuli/bleep.m4a","null","red","blue","[""red"",""blue"",""high nameability""]","left-right","[""red"",""blue"",""high nameability""]","6","high nameability","51","left","audio_feedback","1"
"html-button-response","250","319260","0.0-189.0","CKN_108","108","","","","","","null","<button class=""jspsych-btn""><img src=""stimuli/white_square.png"" style=""width: 200px;height: 200px;""></button>","null","red","blue","[""red"",""blue"",""high nameability""]","left-right","[""red"",""blue"",""high nameability""]","6","high nameability","51","left","iti",""
"html-button-response","251","320215","0.0-190.0","CKN_108","108","","","","","","941","","0","brown","purple","[""brown"",""purple"",""high nameability""]","left-right","[""brown"",""purple"",""high nameability""]","6","high nameability","52","left","trigger",""
"html-button-response","252","323005","0.0-191.0-0.0","CKN_108","108","","","","","","2775","<button class=""jspsych-btn""><img src=""stimuli/brown.png"" style=""width: 200px;height: 200px;""></button>","0","brown","purple","[""brown"",""purple"",""high nameability""]","left-right","[""brown"",""purple"",""high nameability""]","6","high nameability","52","left","response","1"
"html-audio-button-response","253","323213","0.0-191.0-1.0","CKN_108","108","","","","","","null","stimuli/bleep.m4a","null","brown","purple","[""brown"",""purple"",""high nameability""]","left-right","[""brown"",""purple"",""high nameability""]","6","high nameability","52","left","audio_feedback","1"
"html-button-response","254","323737","0.0-192.0","CKN_108","108","","","","","","null","<button class=""jspsych-btn""><img src=""stimuli/white_square.png"" style=""width: 200px;height: 200px;""></button>","null","brown","purple","[""brown"",""purple"",""high nameability""]","left-right","[""brown"",""purple"",""high nameability""]","6","high nameability","52","left","iti",""
"html-button-response","255","324594","0.0-193.0","CKN_108","108","","","","","","841","","0","turquoise","darkgreenblue","[""turquoise"",""darkgreenblue"",""low nameability""]","right-left","[""darkgreenblue"",""turquoise""]","6","low nameability","53","right","trigger",""
"html-button-response","256","327547","0.0-194.0-0.0","CKN_108","108","","","","","","2945","<button class=""jspsych-btn""><img src=""stimuli/turquoise.png"" style=""width: 200px;height: 200px;""></button>","1","turquoise","darkgreenblue","[""turquoise"",""darkgreenblue"",""low nameability""]","right-left","[""darkgreenblue"",""turquoise""]","6","low nameability","53","right","response","1"
"html-audio-button-response","257","327755","0.0-194.0-1.0","CKN_108","108","","","","","","null","stimuli/bleep.m4a","null","turquoise","darkgreenblue","[""turquoise"",""darkgreenblue"",""low nameability""]","right-left","[""darkgreenblue"",""turquoise""]","6","low nameability","53","right","audio_feedback","1"
"html-button-response","258","328278","0.0-195.0","CKN_108","108","","","","","","null","<button class=""jspsych-btn""><img src=""stimuli/white_square.png"" style=""width: 200px;height: 200px;""></button>","null","turquoise","darkgreenblue","[""turquoise"",""darkgreenblue"",""low nameability""]","right-left","[""darkgreenblue"",""turquoise""]","6","low nameability","53","right","iti",""
"html-button-response","259","329161","0.0-196.0","CKN_108","108","","","","","","868","","0","brown","yellow","[""brown"",""yellow"",""high nameability""]","right-left","[""yellow"",""brown""]","6","high nameability","54","right","trigger",""
"html-button-response","260","330274","0.0-197.0-0.0","CKN_108","108","","","","","","1100","<button class=""jspsych-btn""><img src=""stimuli/brown.png"" style=""width: 200px;height: 200px;""></button>","1","brown","yellow","[""brown"",""yellow"",""high nameability""]","right-left","[""yellow"",""brown""]","6","high nameability","54","right","response","1"
"html-audio-button-response","261","330478","0.0-197.0-1.0","CKN_108","108","","","","","","null","stimuli/bleep.m4a","null","brown","yellow","[""brown"",""yellow"",""high nameability""]","right-left","[""yellow"",""brown""]","6","high nameability","54","right","audio_feedback","1"
"html-button-response","262","330994","0.0-198.0","CKN_108","108","","","","","","null","<button class=""jspsych-btn""><img src=""stimuli/white_square.png"" style=""width: 200px;height: 200px;""></button>","null","brown","yellow","[""brown"",""yellow"",""high nameability""]","right-left","[""yellow"",""brown""]","6","high nameability","54","right","iti",""
"html-button-response","263","331935","0.0-199.0","CKN_108","108","","","","","","926","","0","brown","blue","[""brown"",""blue"",""high nameability""]","right-left","[""blue"",""brown""]","6","high nameability","55","right","trigger",""
"html-button-response","264","336119","0.0-200.0-0.0","CKN_108","108","","","","","","4178","<button class=""jspsych-btn""><img src=""stimuli/brown.png"" style=""width: 200px;height: 200px;""></button>","1","brown","blue","[""brown"",""blue"",""high nameability""]","right-left","[""blue"",""brown""]","6","high nameability","55","right","response","1"
"html-audio-button-response","265","336321","0.0-200.0-1.0","CKN_108","108","","","","","","null","stimuli/bleep.m4a","null","brown","blue","[""brown"",""blue"",""high nameability""]","right-left","[""blue"",""brown""]","6","high nameability","55","right","audio_feedback","1"
"html-button-response","266","336833","0.0-201.0","CKN_108","108","","","","","","178","<button class=""jspsych-btn""><img src=""stimuli/white_square.png"" style=""width: 200px;height: 200px;""></button>","1","brown","blue","[""brown"",""blue"",""high nameability""]","right-left","[""blue"",""brown""]","6","high nameability","55","right","iti",""
"html-button-response","267","339510","0.0-202.0","CKN_108","108","","","","","","2667","","0","blue","red","[""blue"",""red"",""high nameability""]","right-left","[""red"",""blue""]","6","high nameability","56","right","trigger",""
"html-button-response","268","340826","0.0-203.0-0.0","CKN_108","108","","","","","","1309","<button class=""jspsych-btn""><img src=""stimuli/blue.png"" style=""width: 200px;height: 200px;""></button>","1","blue","red","[""blue"",""red"",""high nameability""]","right-left","[""red"",""blue""]","6","high nameability","56","right","response","1"
"html-audio-button-response","269","341030","0.0-203.0-1.0","CKN_108","108","","","","","","null","stimuli/bleep.m4a","null","blue","red","[""blue"",""red"",""high nameability""]","right-left","[""red"",""blue""]","6","high nameability","56","right","audio_feedback","1"
"html-button-response","270","341543","0.0-204.0","CKN_108","108","","","","","","null","<button class=""jspsych-btn""><img src=""stimuli/white_square.png"" style=""width: 200px;height: 200px;""></button>","null","blue","red","[""blue"",""red"",""high nameability""]","right-left","[""red"",""blue""]","6","high nameability","56","right","iti",""
"html-button-response","271","342281","0.0-205.0","CKN_108","108","","","","","","729","","0","pink","neonyellow","[""pink"",""neonyellow"",""low nameability""]","left-right","[""pink"",""neonyellow"",""low nameability""]","6","low nameability","57","left","trigger",""
"html-button-response","272","344471","0.0-206.0-0.0","CKN_108","108","","","","","","2182","<button class=""jspsych-btn""><img src=""stimuli/pink.png"" style=""width: 200px;height: 200px;""></button>","0","pink","neonyellow","[""pink"",""neonyellow"",""low nameability""]","left-right","[""pink"",""neonyellow"",""low nameability""]","6","low nameability","57","left","response","1"
"html-audio-button-response","273","344674","0.0-206.0-1.0","CKN_108","108","","","","","","null","stimuli/bleep.m4a","null","pink","neonyellow","[""pink"",""neonyellow"",""low nameability""]","left-right","[""pink"",""neonyellow"",""low nameability""]","6","low nameability","57","left","audio_feedback","1"
"html-button-response","274","345186","0.0-207.0","CKN_108","108","","","","","","null","<button class=""jspsych-btn""><img src=""stimuli/white_square.png"" style=""width: 200px;height: 200px;""></button>","null","pink","neonyellow","[""pink"",""neonyellow"",""low nameability""]","left-right","[""pink"",""neonyellow"",""low nameability""]","6","low nameability","57","left","iti",""
"html-button-response","275","346430","0.0-208.0","CKN_108","108","","","","","","1227","","0","purple","yellow","[""purple"",""yellow"",""high nameability""]","right-left","[""yellow"",""purple""]","6","high nameability","58","right","trigger",""
"html-button-response","276","347925","0.0-209.0-0.0","CKN_108","108","","","","","","1484","<button class=""jspsych-btn""><img src=""stimuli/purple.png"" style=""width: 200px;height: 200px;""></button>","1","purple","yellow","[""purple"",""yellow"",""high nameability""]","right-left","[""yellow"",""purple""]","6","high nameability","58","right","response","1"
"html-audio-button-response","277","348131","0.0-209.0-1.0","CKN_108","108","","","","","","null","stimuli/bleep.m4a","null","purple","yellow","[""purple"",""yellow"",""high nameability""]","right-left","[""yellow"",""purple""]","6","high nameability","58","right","audio_feedback","1"
"html-button-response","278","348644","0.0-210.0","CKN_108","108","","","","","","null","<button class=""jspsych-btn""><img src=""stimuli/white_square.png"" style=""width: 200px;height: 200px;""></button>","null","purple","yellow","[""purple"",""yellow"",""high nameability""]","right-left","[""yellow"",""purple""]","6","high nameability","58","right","iti",""
"html-button-response","279","349652","0.0-211.0","CKN_108","108","","","","","","985","","0","mustard","darkgreenblue","[""mustard"",""darkgreenblue"",""low nameability""]","left-right","[""mustard"",""darkgreenblue"",""low nameability""]","6","low nameability","59","left","trigger",""
"html-button-response","280","351911","0.0-212.0-0.0","CKN_108","108","","","","","","2251","<button class=""jspsych-btn""><img src=""stimuli/mustard.png"" style=""width: 200px;height: 200px;""></button>","0","mustard","darkgreenblue","[""mustard"",""darkgreenblue"",""low nameability""]","left-right","[""mustard"",""darkgreenblue"",""low nameability""]","6","low nameability","59","left","response","1"
"html-audio-button-response","281","352116","0.0-212.0-1.0","CKN_108","108","","","","","","null","stimuli/bleep.m4a","null","mustard","darkgreenblue","[""mustard"",""darkgreenblue"",""low nameability""]","left-right","[""mustard"",""darkgreenblue"",""low nameability""]","6","low nameability","59","left","audio_feedback","1"
"html-button-response","282","352633","0.0-213.0","CKN_108","108","","","","","","null","<button class=""jspsych-btn""><img src=""stimuli/white_square.png"" style=""width: 200px;height: 200px;""></button>","null","mustard","darkgreenblue","[""mustard"",""darkgreenblue"",""low nameability""]","left-right","[""mustard"",""darkgreenblue"",""low nameability""]","6","low nameability","59","left","iti",""
"html-button-response","283","354475","0.0-214.0","CKN_108","108","","","","","","1828","","0","lightred","darkgreenblue","[""lightred"",""darkgreenblue"",""low nameability""]","left-right","[""lightred"",""darkgreenblue"",""low nameability""]","6","low nameability","60","left","trigger",""
"html-button-response","284","356902","0.0-215.0-0.0","CKN_108","108","","","","","","2421","<button class=""jspsych-btn""><img src=""stimuli/lightred.png"" style=""width: 200px;height: 200px;""></button>","0","lightred","darkgreenblue","[""lightred"",""darkgreenblue"",""low nameability""]","left-right","[""lightred"",""darkgreenblue"",""low nameability""]","6","low nameability","60","left","response","1"
"html-audio-button-response","285","357107","0.0-215.0-1.0","CKN_108","108","","","","","","null","stimuli/bleep.m4a","null","lightred","darkgreenblue","[""lightred"",""darkgreenblue"",""low nameability""]","left-right","[""lightred"",""darkgreenblue"",""low nameability""]","6","low nameability","60","left","audio_feedback","1"
"html-button-response","286","357623","0.0-216.0","CKN_108","108","","","","","","null","<button class=""jspsych-btn""><img src=""stimuli/white_square.png"" style=""width: 200px;height: 200px;""></button>","null","lightred","darkgreenblue","[""lightred"",""darkgreenblue"",""low nameability""]","left-right","[""lightred"",""darkgreenblue"",""low nameability""]","6","low nameability","60","left","iti",""
