"trial_type","trial_index","time_elapsed","internal_node_id","subject_id","seed","success","timeout","failed_images","failed_audio","failed_video","rt","stimulus","response","target","foil","choices","combination_order","choices_in_order","round","condition","trial_counter","target_location","trial_kind","correct"
"pavlovia","0","18","0.0-0.0","CKN_128","128","","","","","","","","","","","","","","","","","","",""
"preload","1","1915","0.0-1.0","CKN_128","128","true","false","[]","[]","[]","","","","","","","","","","","","","",""
"fullscreen","2","3738","0.0-2.0","CKN_128","128","true","","","","","","","","","","","","","","","","","",""
"html-button-response","3","25852","0.0-3.0","CKN_128","128","","","","","","22095","","0","","","","","","","","","","",""
"html-button-response","4","32516","0.0-4.0","CKN_128","128","","","","","","6653","","0","star","square","[""square"",""star""]","left-right","[""square"",""star""]","1","practice","1","right","trigger",""
"html-button-response","5","43438","0.0-5.0-0.0","CKN_128","128","","","","","","10911","<button class=""jspsych-btn""><img src=""stimuli/star.png"" style=""width: 200px;height: 200px;""></button>","1","star","square","[""square"",""star""]","left-right","[""square"",""star""]","1","practice","1","right","response","1"
"html-audio-button-response","6","43653","0.0-5.0-1.0","CKN_128","128","","","","","","null","stimuli/bleep.m4a","null","star","square","[""square"",""star""]","left-right","[""square"",""star""]","1","practice","1","right","audio_feedback","1"
"html-button-response","7","44170","0.0-6.0","CKN_128","128","","","","","","null","<button class=""jspsych-btn""><img src=""stimuli/white_square.png"" style=""width: 200px;height: 200px;""></button>","null","star","square","[""square"",""star""]","left-right","[""square"",""star""]","1","practice","1","right","iti",""
"html-button-response","8","50783","0.0-7.0","CKN_128","128","","","","","","6601","","0","triangle","pentagram","[""triangle"",""pentagram""]","left-right","[""triangle"",""pentagram""]","1","practice","1","left","trigger",""
"html-button-response","9","56857","0.0-8.0-0.0","CKN_128","128","","","","","","6061","<button class=""jspsych-btn""><img src=""stimuli/triangle.png"" style=""width: 200px;height: 200px;""></button>","0","triangle","pentagram","[""triangle"",""pentagram""]","left-right","[""triangle"",""pentagram""]","1","practice","1","left","response","1"
"html-audio-button-response","10","57071","0.0-8.0-1.0","CKN_128","128","","","","","","null","stimuli/bleep.m4a","null","triangle","pentagram","[""triangle"",""pentagram""]","left-right","[""triangle"",""pentagram""]","1","practice","1","left","audio_feedback","1"
"html-button-response","11","57591","0.0-9.0","CKN_128","128","","","","","","null","<button class=""jspsych-btn""><img src=""stimuli/white_square.png"" style=""width: 200px;height: 200px;""></button>","null","triangle","pentagram","[""triangle"",""pentagram""]","left-right","[""triangle"",""pentagram""]","1","practice","1","left","iti",""
"html-button-response","12","60661","0.0-10.0","CKN_128","128","","","","","","3051","","0","diamond","rectangle","[""rectangle"",""diamond""]","left-right","[""rectangle"",""diamond""]","1","practice","1","right","trigger",""
"html-button-response","13","69379","0.0-11.0-0.0","CKN_128","128","","","","","","8710","<button class=""jspsych-btn""><img src=""stimuli/diamond.png"" style=""width: 200px;height: 200px;""></button>","1","diamond","rectangle","[""rectangle"",""diamond""]","left-right","[""rectangle"",""diamond""]","1","practice","1","right","response","1"
"html-audio-button-response","14","69583","0.0-11.0-1.0","CKN_128","128","","","","","","null","stimuli/bleep.m4a","null","diamond","rectangle","[""rectangle"",""diamond""]","left-right","[""rectangle"",""diamond""]","1","practice","1","right","audio_feedback","1"
"html-button-response","15","70100","0.0-12.0","CKN_128","128","","","","","","null","<button class=""jspsych-btn""><img src=""stimuli/white_square.png"" style=""width: 200px;height: 200px;""></button>","null","diamond","rectangle","[""rectangle"",""diamond""]","left-right","[""rectangle"",""diamond""]","1","practice","1","right","iti",""
"html-button-response","16","75351","0.0-13.0","CKN_128","128","","","","","","5241","","0","pentagram","star","[""pentagram"",""star""]","left-right","[""pentagram"",""star""]","1","practice","1","left","trigger",""
"html-button-response","17","82813","0.0-14.0-0.0","CKN_128","128","","","","","","7454","<button class=""jspsych-btn""><img src=""stimuli/pentagram.png"" style=""width: 200px;height: 200px;""></button>","0","pentagram","star","[""pentagram"",""star""]","left-right","[""pentagram"",""star""]","1","practice","1","left","response","1"
"html-audio-button-response","18","83014","0.0-14.0-1.0","CKN_128","128","","","","","","null","stimuli/bleep.m4a","null","pentagram","star","[""pentagram"",""star""]","left-right","[""pentagram"",""star""]","1","practice","1","left","audio_feedback","1"
"html-button-response","19","83530","0.0-15.0","CKN_128","128","","","","","","null","<button class=""jspsych-btn""><img src=""stimuli/white_square.png"" style=""width: 200px;height: 200px;""></button>","null","pentagram","star","[""pentagram"",""star""]","left-right","[""pentagram"",""star""]","1","practice","1","left","iti",""
"html-button-response","20","91551","0.0-16.0","CKN_128","128","","","","","","8014","","0","","","","","","","","","","",""
"html-button-response","21","96513","0.0-17.0","CKN_128","128","","","","","","4952","","0","orange","blue","[""orange"",""blue"",""high nameability""]","right-left","[""blue"",""orange""]","1","high nameability","1","right","trigger",""
"html-button-response","22","100806","0.0-18.0-0.0","CKN_128","128","","","","","","4281","<button class=""jspsych-btn""><img src=""stimuli/orange.png"" style=""width: 200px;height: 200px;""></button>","1","orange","blue","[""orange"",""blue"",""high nameability""]","right-left","[""blue"",""orange""]","1","high nameability","1","right","response","1"
"html-audio-button-response","23","101016","0.0-18.0-1.0","CKN_128","128","","","","","","null","stimuli/bleep.m4a","null","orange","blue","[""orange"",""blue"",""high nameability""]","right-left","[""blue"",""orange""]","1","high nameability","1","right","audio_feedback","1"
"html-button-response","24","101532","0.0-19.0","CKN_128","128","","","","","","null","<button class=""jspsych-btn""><img src=""stimuli/white_square.png"" style=""width: 200px;height: 200px;""></button>","null","orange","blue","[""orange"",""blue"",""high nameability""]","right-left","[""blue"",""orange""]","1","high nameability","1","right","iti",""
"html-button-response","25","103608","0.0-20.0","CKN_128","128","","","","","","2061","","0","red","yellow","[""red"",""yellow"",""high nameability""]","right-left","[""yellow"",""red""]","1","high nameability","2","right","trigger",""
"html-button-response","26","106537","0.0-21.0-0.0","CKN_128","128","","","","","","2919","<button class=""jspsych-btn""><img src=""stimuli/red.png"" style=""width: 200px;height: 200px;""></button>","0","red","yellow","[""red"",""yellow"",""high nameability""]","right-left","[""yellow"",""red""]","1","high nameability","2","right","response","0"
"html-audio-button-response","27","107171","0.0-21.0-1.0","CKN_128","128","","","","","","null","stimuli/boing.m4a","null","red","yellow","[""red"",""yellow"",""high nameability""]","right-left","[""yellow"",""red""]","1","high nameability","2","right","audio_feedback","0"
"html-button-response","28","110450","0.0-21.1-0.1","CKN_128","128","","","","","","3254","<button class=""jspsych-btn""><img src=""stimuli/red.png"" style=""width: 200px;height: 200px;""></button>","1","red","yellow","[""red"",""yellow"",""high nameability""]","right-left","[""yellow"",""red""]","1","high nameability","2","right","response","1"
"html-audio-button-response","29","110654","0.0-21.1-1.1","CKN_128","128","","","","","","null","stimuli/bleep.m4a","null","red","yellow","[""red"",""yellow"",""high nameability""]","right-left","[""yellow"",""red""]","1","high nameability","2","right","audio_feedback","1"
"html-button-response","30","111166","0.0-22.0","CKN_128","128","","","","","","null","<button class=""jspsych-btn""><img src=""stimuli/white_square.png"" style=""width: 200px;height: 200px;""></button>","null","red","yellow","[""red"",""yellow"",""high nameability""]","right-left","[""yellow"",""red""]","1","high nameability","2","right","iti",""
"html-button-response","31","117343","0.0-23.0","CKN_128","128","","","","","","6170","","0","purple","orange","[""purple"",""orange"",""high nameability""]","left-right","[""purple"",""orange"",""high nameability""]","1","high nameability","3","left","trigger",""
"html-button-response","32","124229","0.0-24.0-0.0","CKN_128","128","","","","","","6878","<button class=""jspsych-btn""><img src=""stimuli/purple.png"" style=""width: 200px;height: 200px;""></button>","0","purple","orange","[""purple"",""orange"",""high nameability""]","left-right","[""purple"",""orange"",""high nameability""]","1","high nameability","3","left","response","1"
"html-audio-button-response","33","124430","0.0-24.0-1.0","CKN_128","128","","","","","","null","stimuli/bleep.m4a","null","purple","orange","[""purple"",""orange"",""high nameability""]","left-right","[""purple"",""orange"",""high nameability""]","1","high nameability","3","left","audio_feedback","1"
"html-button-response","34","124943","0.0-25.0","CKN_128","128","","","","","","null","<button class=""jspsych-btn""><img src=""stimuli/white_square.png"" style=""width: 200px;height: 200px;""></button>","null","purple","orange","[""purple"",""orange"",""high nameability""]","left-right","[""purple"",""orange"",""high nameability""]","1","high nameability","3","left","iti",""
"html-button-response","35","129558","0.0-26.0","CKN_128","128","","","","","","4603","","0","yellow","brown","[""yellow"",""brown"",""high nameability""]","right-left","[""brown"",""yellow""]","1","high nameability","4","right","trigger",""
"html-button-response","36","131178","0.0-27.0-0.0","CKN_128","128","","","","","","1611","<button class=""jspsych-btn""><img src=""stimuli/yellow.png"" style=""width: 200px;height: 200px;""></button>","1","yellow","brown","[""yellow"",""brown"",""high nameability""]","right-left","[""brown"",""yellow""]","1","high nameability","4","right","response","1"
"html-audio-button-response","37","131381","0.0-27.0-1.0","CKN_128","128","","","","","","null","stimuli/bleep.m4a","null","yellow","brown","[""yellow"",""brown"",""high nameability""]","right-left","[""brown"",""yellow""]","1","high nameability","4","right","audio_feedback","1"
"html-button-response","38","131898","0.0-28.0","CKN_128","128","","","","","","null","<button class=""jspsych-btn""><img src=""stimuli/white_square.png"" style=""width: 200px;height: 200px;""></button>","null","yellow","brown","[""yellow"",""brown"",""high nameability""]","right-left","[""brown"",""yellow""]","1","high nameability","4","right","iti",""
"html-button-response","39","137115","0.0-29.0","CKN_128","128","","","","","","5204","","0","pink","lightred","[""pink"",""lightred"",""low nameability""]","right-left","[""lightred"",""pink""]","1","low nameability","5","right","trigger",""
"html-button-response","40","138992","0.0-30.0-0.0","CKN_128","128","","","","","","1868","<button class=""jspsych-btn""><img src=""stimuli/pink.png"" style=""width: 200px;height: 200px;""></button>","1","pink","lightred","[""pink"",""lightred"",""low nameability""]","right-left","[""lightred"",""pink""]","1","low nameability","5","right","response","1"
"html-audio-button-response","41","139197","0.0-30.0-1.0","CKN_128","128","","","","","","null","stimuli/bleep.m4a","null","pink","lightred","[""pink"",""lightred"",""low nameability""]","right-left","[""lightred"",""pink""]","1","low nameability","5","right","audio_feedback","1"
"html-button-response","42","139712","0.0-31.0","CKN_128","128","","","","","","null","<button class=""jspsych-btn""><img src=""stimuli/white_square.png"" style=""width: 200px;height: 200px;""></button>","null","pink","lightred","[""pink"",""lightred"",""low nameability""]","right-left","[""lightred"",""pink""]","1","low nameability","5","right","iti",""
"html-button-response","43","142914","0.0-32.0","CKN_128","128","","","","","","3193","","0","yellow","purple","[""yellow"",""purple"",""high nameability""]","left-right","[""yellow"",""purple"",""high nameability""]","1","high nameability","6","left","trigger",""
"html-button-response","44","146044","0.0-33.0-0.0","CKN_128","128","","","","","","3118","<button class=""jspsych-btn""><img src=""stimuli/yellow.png"" style=""width: 200px;height: 200px;""></button>","0","yellow","purple","[""yellow"",""purple"",""high nameability""]","left-right","[""yellow"",""purple"",""high nameability""]","1","high nameability","6","left","response","1"
"html-audio-button-response","45","146249","0.0-33.0-1.0","CKN_128","128","","","","","","null","stimuli/bleep.m4a","null","yellow","purple","[""yellow"",""purple"",""high nameability""]","left-right","[""yellow"",""purple"",""high nameability""]","1","high nameability","6","left","audio_feedback","1"
"html-button-response","46","146765","0.0-34.0","CKN_128","128","","","","","","null","<button class=""jspsych-btn""><img src=""stimuli/white_square.png"" style=""width: 200px;height: 200px;""></button>","null","yellow","purple","[""yellow"",""purple"",""high nameability""]","left-right","[""yellow"",""purple"",""high nameability""]","1","high nameability","6","left","iti",""
"html-button-response","47","149300","0.0-35.0","CKN_128","128","","","","","","2525","","0","red","brown","[""red"",""brown"",""high nameability""]","right-left","[""brown"",""red""]","1","high nameability","7","right","trigger",""
"html-button-response","48","154205","0.0-36.0-0.0","CKN_128","128","","","","","","4898","<button class=""jspsych-btn""><img src=""stimuli/red.png"" style=""width: 200px;height: 200px;""></button>","1","red","brown","[""red"",""brown"",""high nameability""]","right-left","[""brown"",""red""]","1","high nameability","7","right","response","1"
"html-audio-button-response","49","154407","0.0-36.0-1.0","CKN_128","128","","","","","","null","stimuli/bleep.m4a","null","red","brown","[""red"",""brown"",""high nameability""]","right-left","[""brown"",""red""]","1","high nameability","7","right","audio_feedback","1"
"html-button-response","50","154919","0.0-37.0","CKN_128","128","","","","","","null","<button class=""jspsych-btn""><img src=""stimuli/white_square.png"" style=""width: 200px;height: 200px;""></button>","null","red","brown","[""red"",""brown"",""high nameability""]","right-left","[""brown"",""red""]","1","high nameability","7","right","iti",""
"html-button-response","51","158192","0.0-38.0","CKN_128","128","","","","","","3262","","0","yellow","blue","[""yellow"",""blue"",""high nameability""]","left-right","[""yellow"",""blue"",""high nameability""]","1","high nameability","8","left","trigger",""
"html-button-response","52","167255","0.0-39.0-0.0","CKN_128","128","","","","","","9054","<button class=""jspsych-btn""><img src=""stimuli/yellow.png"" style=""width: 200px;height: 200px;""></button>","0","yellow","blue","[""yellow"",""blue"",""high nameability""]","left-right","[""yellow"",""blue"",""high nameability""]","1","high nameability","8","left","response","1"
"html-audio-button-response","53","167462","0.0-39.0-1.0","CKN_128","128","","","","","","null","stimuli/bleep.m4a","null","yellow","blue","[""yellow"",""blue"",""high nameability""]","left-right","[""yellow"",""blue"",""high nameability""]","1","high nameability","8","left","audio_feedback","1"
"html-button-response","54","167976","0.0-40.0","CKN_128","128","","","","","","null","<button class=""jspsych-btn""><img src=""stimuli/white_square.png"" style=""width: 200px;height: 200px;""></button>","null","yellow","blue","[""yellow"",""blue"",""high nameability""]","left-right","[""yellow"",""blue"",""high nameability""]","1","high nameability","8","left","iti",""
"html-button-response","55","170923","0.0-41.0","CKN_128","128","","","","","","2932","","0","blue","purple","[""blue"",""purple"",""high nameability""]","right-left","[""purple"",""blue""]","1","high nameability","9","right","trigger",""
"html-button-response","56","174735","0.0-42.0-0.0","CKN_128","128","","","","","","3802","<button class=""jspsych-btn""><img src=""stimuli/blue.png"" style=""width: 200px;height: 200px;""></button>","1","blue","purple","[""blue"",""purple"",""high nameability""]","right-left","[""purple"",""blue""]","1","high nameability","9","right","response","1"
"html-audio-button-response","57","174939","0.0-42.0-1.0","CKN_128","128","","","","","","null","stimuli/bleep.m4a","null","blue","purple","[""blue"",""purple"",""high nameability""]","right-left","[""purple"",""blue""]","1","high nameability","9","right","audio_feedback","1"
"html-button-response","58","175454","0.0-43.0","CKN_128","128","","","","","","null","<button class=""jspsych-btn""><img src=""stimuli/white_square.png"" style=""width: 200px;height: 200px;""></button>","null","blue","purple","[""blue"",""purple"",""high nameability""]","right-left","[""purple"",""blue""]","1","high nameability","9","right","iti",""
"html-button-response","59","186203","0.0-44.0","CKN_128","128","","","","","","10738","","0","mustard","lightred","[""mustard"",""lightred"",""low nameability""]","left-right","[""mustard"",""lightred"",""low nameability""]","1","low nameability","10","left","trigger",""
"html-button-response","60","189507","0.0-45.0-0.0","CKN_128","128","","","","","","3296","<button class=""jspsych-btn""><img src=""stimuli/mustard.png"" style=""width: 200px;height: 200px;""></button>","0","mustard","lightred","[""mustard"",""lightred"",""low nameability""]","left-right","[""mustard"",""lightred"",""low nameability""]","1","low nameability","10","left","response","1"
"html-audio-button-response","61","189710","0.0-45.0-1.0","CKN_128","128","","","","","","null","stimuli/bleep.m4a","null","mustard","lightred","[""mustard"",""lightred"",""low nameability""]","left-right","[""mustard"",""lightred"",""low nameability""]","1","low nameability","10","left","audio_feedback","1"
"html-button-response","62","190221","0.0-46.0","CKN_128","128","","","","","","null","<button class=""jspsych-btn""><img src=""stimuli/white_square.png"" style=""width: 200px;height: 200px;""></button>","null","mustard","lightred","[""mustard"",""lightred"",""low nameability""]","left-right","[""mustard"",""lightred"",""low nameability""]","1","low nameability","10","left","iti",""
"pavlovia","63","190309","0.0-47.0","CKN_128","128","","","","","","","","","","","","","","","","","","",""
"pavlovia","64","190317","0.0-48.0","CKN_128","128","","","","","","","","","","","","","","","","","","",""
"html-audio-button-response","65","197909","0.0-49.0","CKN_128","128","","","","","","7664","stimuli/tada.m4a","0","","","","","","","","","","",""
"html-button-response","66","198746","0.0-50.0","CKN_128","128","","","","","","828","","0","","","","","","","","","","",""
"html-button-response","67","200574","0.0-51.0","CKN_128","128","","","","","","1821","","0","darkgreenblue","neonyellow","[""darkgreenblue"",""neonyellow"",""low nameability""]","right-left","[""neonyellow"",""darkgreenblue""]","2","low nameability","11","right","trigger",""
"html-button-response","68","203408","0.0-52.0-0.0","CKN_128","128","","","","","","2824","<button class=""jspsych-btn""><img src=""stimuli/darkgreenblue.png"" style=""width: 200px;height: 200px;""></button>","1","darkgreenblue","neonyellow","[""darkgreenblue"",""neonyellow"",""low nameability""]","right-left","[""neonyellow"",""darkgreenblue""]","2","low nameability","11","right","response","1"
"html-audio-button-response","69","203604","0.0-52.0-1.0","CKN_128","128","","","","","","null","stimuli/bleep.m4a","null","darkgreenblue","neonyellow","[""darkgreenblue"",""neonyellow"",""low nameability""]","right-left","[""neonyellow"",""darkgreenblue""]","2","low nameability","11","right","audio_feedback","1"
"html-button-response","70","204120","0.0-53.0","CKN_128","128","","","","","","null","<button class=""jspsych-btn""><img src=""stimuli/white_square.png"" style=""width: 200px;height: 200px;""></button>","null","darkgreenblue","neonyellow","[""darkgreenblue"",""neonyellow"",""low nameability""]","right-left","[""neonyellow"",""darkgreenblue""]","2","low nameability","11","right","iti",""
"html-button-response","71","210902","0.0-54.0","CKN_128","128","","","","","","6768","","0","pink","mustard","[""pink"",""mustard"",""low nameability""]","right-left","[""mustard"",""pink""]","2","low nameability","12","right","trigger",""
"html-button-response","72","211534","0.0-55.0-0.0","CKN_128","128","","","","","","625","<button class=""jspsych-btn""><img src=""stimuli/pink.png"" style=""width: 200px;height: 200px;""></button>","1","pink","mustard","[""pink"",""mustard"",""low nameability""]","right-left","[""mustard"",""pink""]","2","low nameability","12","right","response","1"
"html-audio-button-response","73","211740","0.0-55.0-1.0","CKN_128","128","","","","","","null","stimuli/bleep.m4a","null","pink","mustard","[""pink"",""mustard"",""low nameability""]","right-left","[""mustard"",""pink""]","2","low nameability","12","right","audio_feedback","1"
"html-button-response","74","212250","0.0-56.0","CKN_128","128","","","","","","null","<button class=""jspsych-btn""><img src=""stimuli/white_square.png"" style=""width: 200px;height: 200px;""></button>","null","pink","mustard","[""pink"",""mustard"",""low nameability""]","right-left","[""mustard"",""pink""]","2","low nameability","12","right","iti",""
"html-button-response","75","213648","0.0-57.0","CKN_128","128","","","","","","1393","","0","mustard","darkgreenblue","[""mustard"",""darkgreenblue"",""low nameability""]","left-right","[""mustard"",""darkgreenblue"",""low nameability""]","2","low nameability","13","left","trigger",""
"html-button-response","76","217080","0.0-58.0-0.0","CKN_128","128","","","","","","3425","<button class=""jspsych-btn""><img src=""stimuli/mustard.png"" style=""width: 200px;height: 200px;""></button>","0","mustard","darkgreenblue","[""mustard"",""darkgreenblue"",""low nameability""]","left-right","[""mustard"",""darkgreenblue"",""low nameability""]","2","low nameability","13","left","response","1"
"html-audio-button-response","77","217284","0.0-58.0-1.0","CKN_128","128","","","","","","null","stimuli/bleep.m4a","null","mustard","darkgreenblue","[""mustard"",""darkgreenblue"",""low nameability""]","left-right","[""mustard"",""darkgreenblue"",""low nameability""]","2","low nameability","13","left","audio_feedback","1"
"html-button-response","78","217796","0.0-59.0","CKN_128","128","","","","","","null","<button class=""jspsych-btn""><img src=""stimuli/white_square.png"" style=""width: 200px;height: 200px;""></button>","null","mustard","darkgreenblue","[""mustard"",""darkgreenblue"",""low nameability""]","left-right","[""mustard"",""darkgreenblue"",""low nameability""]","2","low nameability","13","left","iti",""
"html-button-response","79","220731","0.0-60.0","CKN_128","128","","","","","","2918","","0","yellow","orange","[""yellow"",""orange"",""high nameability""]","left-right","[""yellow"",""orange"",""high nameability""]","2","high nameability","14","left","trigger",""
"html-button-response","80","222444","0.0-61.0-0.0","CKN_128","128","","","","","","1706","<button class=""jspsych-btn""><img src=""stimuli/yellow.png"" style=""width: 200px;height: 200px;""></button>","0","yellow","orange","[""yellow"",""orange"",""high nameability""]","left-right","[""yellow"",""orange"",""high nameability""]","2","high nameability","14","left","response","1"
"html-audio-button-response","81","222649","0.0-61.0-1.0","CKN_128","128","","","","","","null","stimuli/bleep.m4a","null","yellow","orange","[""yellow"",""orange"",""high nameability""]","left-right","[""yellow"",""orange"",""high nameability""]","2","high nameability","14","left","audio_feedback","1"
"html-button-response","82","223159","0.0-62.0","CKN_128","128","","","","","","null","<button class=""jspsych-btn""><img src=""stimuli/white_square.png"" style=""width: 200px;height: 200px;""></button>","null","yellow","orange","[""yellow"",""orange"",""high nameability""]","left-right","[""yellow"",""orange"",""high nameability""]","2","high nameability","14","left","iti",""
"html-button-response","83","223970","0.0-63.0","CKN_128","128","","","","","","805","","0","turquoise","pink","[""turquoise"",""pink"",""low nameability""]","left-right","[""turquoise"",""pink"",""low nameability""]","2","low nameability","15","left","trigger",""
"html-button-response","84","226936","0.0-64.0-0.0","CKN_128","128","","","","","","2957","<button class=""jspsych-btn""><img src=""stimuli/turquoise.png"" style=""width: 200px;height: 200px;""></button>","0","turquoise","pink","[""turquoise"",""pink"",""low nameability""]","left-right","[""turquoise"",""pink"",""low nameability""]","2","low nameability","15","left","response","1"
"html-audio-button-response","85","227140","0.0-64.0-1.0","CKN_128","128","","","","","","null","stimuli/bleep.m4a","null","turquoise","pink","[""turquoise"",""pink"",""low nameability""]","left-right","[""turquoise"",""pink"",""low nameability""]","2","low nameability","15","left","audio_feedback","1"
"html-button-response","86","227657","0.0-65.0","CKN_128","128","","","","","","null","<button class=""jspsych-btn""><img src=""stimuli/white_square.png"" style=""width: 200px;height: 200px;""></button>","null","turquoise","pink","[""turquoise"",""pink"",""low nameability""]","left-right","[""turquoise"",""pink"",""low nameability""]","2","low nameability","15","left","iti",""
"html-button-response","87","234078","0.0-66.0","CKN_128","128","","","","","","6406","","0","brown","orange","[""brown"",""orange"",""high nameability""]","right-left","[""orange"",""brown""]","2","high nameability","16","right","trigger",""
"html-button-response","88","234770","0.0-67.0-0.0","CKN_128","128","","","","","","686","<button class=""jspsych-btn""><img src=""stimuli/brown.png"" style=""width: 200px;height: 200px;""></button>","0","brown","orange","[""brown"",""orange"",""high nameability""]","right-left","[""orange"",""brown""]","2","high nameability","16","right","response","0"
"html-audio-button-response","89","235394","0.0-67.0-1.0","CKN_128","128","","","","","","null","stimuli/boing.m4a","null","brown","orange","[""brown"",""orange"",""high nameability""]","right-left","[""orange"",""brown""]","2","high nameability","16","right","audio_feedback","0"
"html-button-response","90","239461","0.0-67.1-0.1","CKN_128","128","","","","","","4058","<button class=""jspsych-btn""><img src=""stimuli/brown.png"" style=""width: 200px;height: 200px;""></button>","1","brown","orange","[""brown"",""orange"",""high nameability""]","right-left","[""orange"",""brown""]","2","high nameability","16","right","response","1"
"html-audio-button-response","91","239663","0.0-67.1-1.1","CKN_128","128","","","","","","null","stimuli/bleep.m4a","null","brown","orange","[""brown"",""orange"",""high nameability""]","right-left","[""orange"",""brown""]","2","high nameability","16","right","audio_feedback","1"
"html-button-response","92","240180","0.0-68.0","CKN_128","128","","","","","","null","<button class=""jspsych-btn""><img src=""stimuli/white_square.png"" style=""width: 200px;height: 200px;""></button>","null","brown","orange","[""brown"",""orange"",""high nameability""]","right-left","[""orange"",""brown""]","2","high nameability","16","right","iti",""
"html-button-response","93","243129","0.0-69.0","CKN_128","128","","","","","","2935","","0","blue","red","[""blue"",""red"",""high nameability""]","right-left","[""red"",""blue""]","2","high nameability","17","right","trigger",""
"html-button-response","94","244899","0.0-70.0-0.0","CKN_128","128","","","","","","1763","<button class=""jspsych-btn""><img src=""stimuli/blue.png"" style=""width: 200px;height: 200px;""></button>","1","blue","red","[""blue"",""red"",""high nameability""]","right-left","[""red"",""blue""]","2","high nameability","17","right","response","1"
"html-audio-button-response","95","245098","0.0-70.0-1.0","CKN_128","128","","","","","","null","stimuli/bleep.m4a","null","blue","red","[""blue"",""red"",""high nameability""]","right-left","[""red"",""blue""]","2","high nameability","17","right","audio_feedback","1"
"html-button-response","96","245609","0.0-71.0","CKN_128","128","","","","","","null","<button class=""jspsych-btn""><img src=""stimuli/white_square.png"" style=""width: 200px;height: 200px;""></button>","null","blue","red","[""blue"",""red"",""high nameability""]","right-left","[""red"",""blue""]","2","high nameability","17","right","iti",""
"html-button-response","97","247175","0.0-72.0","CKN_128","128","","","","","","1557","","0","turquoise","neonyellow","[""turquoise"",""neonyellow"",""low nameability""]","right-left","[""neonyellow"",""turquoise""]","2","low nameability","18","right","trigger",""
"html-button-response","98","248383","0.0-73.0-0.0","CKN_128","128","","","","","","1200","<button class=""jspsych-btn""><img src=""stimuli/turquoise.png"" style=""width: 200px;height: 200px;""></button>","1","turquoise","neonyellow","[""turquoise"",""neonyellow"",""low nameability""]","right-left","[""neonyellow"",""turquoise""]","2","low nameability","18","right","response","1"
"html-audio-button-response","99","248588","0.0-73.0-1.0","CKN_128","128","","","","","","null","stimuli/bleep.m4a","null","turquoise","neonyellow","[""turquoise"",""neonyellow"",""low nameability""]","right-left","[""neonyellow"",""turquoise""]","2","low nameability","18","right","audio_feedback","1"
"html-button-response","100","249098","0.0-74.0","CKN_128","128","","","","","","null","<button class=""jspsych-btn""><img src=""stimuli/white_square.png"" style=""width: 200px;height: 200px;""></button>","null","turquoise","neonyellow","[""turquoise"",""neonyellow"",""low nameability""]","right-left","[""neonyellow"",""turquoise""]","2","low nameability","18","right","iti",""
"html-button-response","101","250750","0.0-75.0","CKN_128","128","","","","","","1636","","0","darkgreenblue","mustard","[""darkgreenblue"",""mustard"",""low nameability""]","right-left","[""mustard"",""darkgreenblue""]","2","low nameability","19","right","trigger",""
"html-button-response","102","251745","0.0-76.0-0.0","CKN_128","128","","","","","","988","<button class=""jspsych-btn""><img src=""stimuli/darkgreenblue.png"" style=""width: 200px;height: 200px;""></button>","1","darkgreenblue","mustard","[""darkgreenblue"",""mustard"",""low nameability""]","right-left","[""mustard"",""darkgreenblue""]","2","low nameability","19","right","response","1"
"html-audio-button-response","103","251946","0.0-76.0-1.0","CKN_128","128","","","","","","null","stimuli/bleep.m4a","null","darkgreenblue","mustard","[""darkgreenblue"",""mustard"",""low nameability""]","right-left","[""mustard"",""darkgreenblue""]","2","low nameability","19","right","audio_feedback","1"
"html-button-response","104","252457","0.0-77.0","CKN_128","128","","","","","","null","<button class=""jspsych-btn""><img src=""stimuli/white_square.png"" style=""width: 200px;height: 200px;""></button>","null","darkgreenblue","mustard","[""darkgreenblue"",""mustard"",""low nameability""]","right-left","[""mustard"",""darkgreenblue""]","2","low nameability","19","right","iti",""
"html-button-response","105","254177","0.0-78.0","CKN_128","128","","","","","","1707","","0","turquoise","mustard","[""turquoise"",""mustard"",""low nameability""]","left-right","[""turquoise"",""mustard"",""low nameability""]","2","low nameability","20","left","trigger",""
"html-button-response","106","255055","0.0-79.0-0.0","CKN_128","128","","","","","","869","<button class=""jspsych-btn""><img src=""stimuli/turquoise.png"" style=""width: 200px;height: 200px;""></button>","1","turquoise","mustard","[""turquoise"",""mustard"",""low nameability""]","left-right","[""turquoise"",""mustard"",""low nameability""]","2","low nameability","20","left","response","0"
"html-audio-button-response","107","255678","0.0-79.0-1.0","CKN_128","128","","","","","","null","stimuli/boing.m4a","null","turquoise","mustard","[""turquoise"",""mustard"",""low nameability""]","left-right","[""turquoise"",""mustard"",""low nameability""]","2","low nameability","20","left","audio_feedback","0"
"html-button-response","108","258648","0.0-79.1-0.1","CKN_128","128","","","","","","2957","<button class=""jspsych-btn""><img src=""stimuli/turquoise.png"" style=""width: 200px;height: 200px;""></button>","0","turquoise","mustard","[""turquoise"",""mustard"",""low nameability""]","left-right","[""turquoise"",""mustard"",""low nameability""]","2","low nameability","20","left","response","1"
"html-audio-button-response","109","258852","0.0-79.1-1.1","CKN_128","128","","","","","","null","stimuli/bleep.m4a","null","turquoise","mustard","[""turquoise"",""mustard"",""low nameability""]","left-right","[""turquoise"",""mustard"",""low nameability""]","2","low nameability","20","left","audio_feedback","1"
"html-button-response","110","259369","0.0-80.0","CKN_128","128","","","","","","null","<button class=""jspsych-btn""><img src=""stimuli/white_square.png"" style=""width: 200px;height: 200px;""></button>","null","turquoise","mustard","[""turquoise"",""mustard"",""low nameability""]","left-right","[""turquoise"",""mustard"",""low nameability""]","2","low nameability","20","left","iti",""
"pavlovia","111","259424","0.0-81.0","CKN_128","128","","","","","","","","","","","","","","","","","","",""
"pavlovia","112","259432","0.0-82.0","CKN_128","128","","","","","","","","","","","","","","","","","","",""
"html-audio-button-response","113","264801","0.0-83.0","CKN_128","128","","","","","","5421","stimuli/tada.m4a","0","","","","","","","","","","",""
"html-button-response","114","265244","0.0-84.0","CKN_128","128","","","","","","437","","0","","","","","","","","","","",""
"html-button-response","115","267673","0.0-85.0","CKN_128","128","","","","","","2420","","0","brown","blue","[""brown"",""blue"",""high nameability""]","left-right","[""brown"",""blue"",""high nameability""]","3","high nameability","21","left","trigger",""
"html-button-response","116","270861","0.0-86.0-0.0","CKN_128","128","","","","","","3179","<button class=""jspsych-btn""><img src=""stimuli/brown.png"" style=""width: 200px;height: 200px;""></button>","0","brown","blue","[""brown"",""blue"",""high nameability""]","left-right","[""brown"",""blue"",""high nameability""]","3","high nameability","21","left","response","1"
"html-audio-button-response","117","271062","0.0-86.0-1.0","CKN_128","128","","","","","","null","stimuli/bleep.m4a","null","brown","blue","[""brown"",""blue"",""high nameability""]","left-right","[""brown"",""blue"",""high nameability""]","3","high nameability","21","left","audio_feedback","1"
"html-button-response","118","271574","0.0-87.0","CKN_128","128","","","","","","null","<button class=""jspsych-btn""><img src=""stimuli/white_square.png"" style=""width: 200px;height: 200px;""></button>","null","brown","blue","[""brown"",""blue"",""high nameability""]","left-right","[""brown"",""blue"",""high nameability""]","3","high nameability","21","left","iti",""
"html-button-response","119","272855","0.0-88.0","CKN_128","128","","","","","","1275","","0","blue","orange","[""blue"",""orange"",""high nameability""]","left-right","[""blue"",""orange"",""high nameability""]","3","high nameability","22","left","trigger",""
"html-button-response","120","278138","0.0-89.0-0.0","CKN_128","128","","","","","","5275","<button class=""jspsych-btn""><img src=""stimuli/blue.png"" style=""width: 200px;height: 200px;""></button>","0","blue","orange","[""blue"",""orange"",""high nameability""]","left-right","[""blue"",""orange"",""high nameability""]","3","high nameability","22","left","response","1"
"html-audio-button-response","121","278339","0.0-89.0-1.0","CKN_128","128","","","","","","null","stimuli/bleep.m4a","null","blue","orange","[""blue"",""orange"",""high nameability""]","left-right","[""blue"",""orange"",""high nameability""]","3","high nameability","22","left","audio_feedback","1"
"html-button-response","122","278853","0.0-90.0","CKN_128","128","","","","","","null","<button class=""jspsych-btn""><img src=""stimuli/white_square.png"" style=""width: 200px;height: 200px;""></button>","null","blue","orange","[""blue"",""orange"",""high nameability""]","left-right","[""blue"",""orange"",""high nameability""]","3","high nameability","22","left","iti",""
"html-button-response","123","283009","0.0-91.0","CKN_128","128","","","","","","4147","","0","lightred","darkgreenblue","[""lightred"",""darkgreenblue"",""low nameability""]","right-left","[""darkgreenblue"",""lightred""]","3","low nameability","23","right","trigger",""
"html-button-response","124","285765","0.0-92.0-0.0","CKN_128","128","","","","","","2749","<button class=""jspsych-btn""><img src=""stimuli/lightred.png"" style=""width: 200px;height: 200px;""></button>","1","lightred","darkgreenblue","[""lightred"",""darkgreenblue"",""low nameability""]","right-left","[""darkgreenblue"",""lightred""]","3","low nameability","23","right","response","1"
"html-audio-button-response","125","285967","0.0-92.0-1.0","CKN_128","128","","","","","","null","stimuli/bleep.m4a","null","lightred","darkgreenblue","[""lightred"",""darkgreenblue"",""low nameability""]","right-left","[""darkgreenblue"",""lightred""]","3","low nameability","23","right","audio_feedback","1"
"html-button-response","126","286475","0.0-93.0","CKN_128","128","","","","","","479","<button class=""jspsych-btn""><img src=""stimuli/white_square.png"" style=""width: 200px;height: 200px;""></button>","1","lightred","darkgreenblue","[""lightred"",""darkgreenblue"",""low nameability""]","right-left","[""darkgreenblue"",""lightred""]","3","low nameability","23","right","iti",""
"html-button-response","127","286826","0.0-94.0","CKN_128","128","","","","","","344","","0","neonyellow","pink","[""neonyellow"",""pink"",""low nameability""]","left-right","[""neonyellow"",""pink"",""low nameability""]","3","low nameability","24","left","trigger",""
"html-button-response","128","287454","0.0-95.0-0.0","CKN_128","128","","","","","","618","<button class=""jspsych-btn""><img src=""stimuli/neonyellow.png"" style=""width: 200px;height: 200px;""></button>","1","neonyellow","pink","[""neonyellow"",""pink"",""low nameability""]","left-right","[""neonyellow"",""pink"",""low nameability""]","3","low nameability","24","left","response","0"
"html-audio-button-response","129","288073","0.0-95.0-1.0","CKN_128","128","","","","","","null","stimuli/boing.m4a","null","neonyellow","pink","[""neonyellow"",""pink"",""low nameability""]","left-right","[""neonyellow"",""pink"",""low nameability""]","3","low nameability","24","left","audio_feedback","0"
"html-button-response","130","292182","0.0-95.1-0.1","CKN_128","128","","","","","","4103","<button class=""jspsych-btn""><img src=""stimuli/neonyellow.png"" style=""width: 200px;height: 200px;""></button>","0","neonyellow","pink","[""neonyellow"",""pink"",""low nameability""]","left-right","[""neonyellow"",""pink"",""low nameability""]","3","low nameability","24","left","response","1"
"html-audio-button-response","131","292382","0.0-95.1-1.1","CKN_128","128","","","","","","null","stimuli/bleep.m4a","null","neonyellow","pink","[""neonyellow"",""pink"",""low nameability""]","left-right","[""neonyellow"",""pink"",""low nameability""]","3","low nameability","24","left","audio_feedback","1"
"html-button-response","132","292894","0.0-96.0","CKN_128","128","","","","","","null","<button class=""jspsych-btn""><img src=""stimuli/white_square.png"" style=""width: 200px;height: 200px;""></button>","null","neonyellow","pink","[""neonyellow"",""pink"",""low nameability""]","left-right","[""neonyellow"",""pink"",""low nameability""]","3","low nameability","24","left","iti",""
"html-button-response","133","294097","0.0-97.0","CKN_128","128","","","","","","1193","","0","lightred","neonyellow","[""lightred"",""neonyellow"",""low nameability""]","right-left","[""neonyellow"",""lightred""]","3","low nameability","25","right","trigger",""
"html-button-response","134","302734","0.0-98.0-0.0","CKN_128","128","","","","","","8622","<button class=""jspsych-btn""><img src=""stimuli/lightred.png"" style=""width: 200px;height: 200px;""></button>","1","lightred","neonyellow","[""lightred"",""neonyellow"",""low nameability""]","right-left","[""neonyellow"",""lightred""]","3","low nameability","25","right","response","1"
"html-audio-button-response","135","302949","0.0-98.0-1.0","CKN_128","128","","","","","","null","stimuli/bleep.m4a","null","lightred","neonyellow","[""lightred"",""neonyellow"",""low nameability""]","right-left","[""neonyellow"",""lightred""]","3","low nameability","25","right","audio_feedback","1"
"html-button-response","136","303473","0.0-99.0","CKN_128","128","","","","","","null","<button class=""jspsych-btn""><img src=""stimuli/white_square.png"" style=""width: 200px;height: 200px;""></button>","null","lightred","neonyellow","[""lightred"",""neonyellow"",""low nameability""]","right-left","[""neonyellow"",""lightred""]","3","low nameability","25","right","iti",""
"html-button-response","137","306093","0.0-100.0","CKN_128","128","","","","","","2602","","0","red","blue","[""red"",""blue"",""high nameability""]","left-right","[""red"",""blue"",""high nameability""]","3","high nameability","26","left","trigger",""
"html-button-response","138","308746","0.0-101.0-0.0","CKN_128","128","","","","","","2644","<button class=""jspsych-btn""><img src=""stimuli/red.png"" style=""width: 200px;height: 200px;""></button>","0","red","blue","[""red"",""blue"",""high nameability""]","left-right","[""red"",""blue"",""high nameability""]","3","high nameability","26","left","response","1"
"html-audio-button-response","139","308955","0.0-101.0-1.0","CKN_128","128","","","","","","null","stimuli/bleep.m4a","null","red","blue","[""red"",""blue"",""high nameability""]","left-right","[""red"",""blue"",""high nameability""]","3","high nameability","26","left","audio_feedback","1"
"html-button-response","140","309465","0.0-102.0","CKN_128","128","","","","","","null","<button class=""jspsych-btn""><img src=""stimuli/white_square.png"" style=""width: 200px;height: 200px;""></button>","null","red","blue","[""red"",""blue"",""high nameability""]","left-right","[""red"",""blue"",""high nameability""]","3","high nameability","26","left","iti",""
"html-button-response","141","313322","0.0-103.0","CKN_128","128","","","","","","3849","","0","brown","red","[""brown"",""red"",""high nameability""]","right-left","[""red"",""brown""]","3","high nameability","27","right","trigger",""
"html-button-response","142","314743","0.0-104.0-0.0","CKN_128","128","","","","","","1407","<button class=""jspsych-btn""><img src=""stimuli/brown.png"" style=""width: 200px;height: 200px;""></button>","1","brown","red","[""brown"",""red"",""high nameability""]","right-left","[""red"",""brown""]","3","high nameability","27","right","response","1"
"html-audio-button-response","143","314948","0.0-104.0-1.0","CKN_128","128","","","","","","null","stimuli/bleep.m4a","null","brown","red","[""brown"",""red"",""high nameability""]","right-left","[""red"",""brown""]","3","high nameability","27","right","audio_feedback","1"
"html-button-response","144","315466","0.0-105.0","CKN_128","128","","","","","","null","<button class=""jspsych-btn""><img src=""stimuli/white_square.png"" style=""width: 200px;height: 200px;""></button>","null","brown","red","[""brown"",""red"",""high nameability""]","right-left","[""red"",""brown""]","3","high nameability","27","right","iti",""
"html-button-response","145","321980","0.0-106.0","CKN_128","128","","","","","","6504","","0","neonyellow","darkgreenblue","[""neonyellow"",""darkgreenblue"",""low nameability""]","right-left","[""darkgreenblue"",""neonyellow""]","3","low nameability","28","right","trigger",""
"html-button-response","146","323939","0.0-107.0-0.0","CKN_128","128","","","","","","1948","<button class=""jspsych-btn""><img src=""stimuli/neonyellow.png"" style=""width: 200px;height: 200px;""></button>","1","neonyellow","darkgreenblue","[""neonyellow"",""darkgreenblue"",""low nameability""]","right-left","[""darkgreenblue"",""neonyellow""]","3","low nameability","28","right","response","1"
"html-audio-button-response","147","324143","0.0-107.0-1.0","CKN_128","128","","","","","","null","stimuli/bleep.m4a","null","neonyellow","darkgreenblue","[""neonyellow"",""darkgreenblue"",""low nameability""]","right-left","[""darkgreenblue"",""neonyellow""]","3","low nameability","28","right","audio_feedback","1"
"html-button-response","148","324653","0.0-108.0","CKN_128","128","","","","","","null","<button class=""jspsych-btn""><img src=""stimuli/white_square.png"" style=""width: 200px;height: 200px;""></button>","null","neonyellow","darkgreenblue","[""neonyellow"",""darkgreenblue"",""low nameability""]","right-left","[""darkgreenblue"",""neonyellow""]","3","low nameability","28","right","iti",""
"html-button-response","149","330189","0.0-109.0","CKN_128","128","","","","","","5531","","0","brown","purple","[""brown"",""purple"",""high nameability""]","right-left","[""purple"",""brown""]","3","high nameability","29","right","trigger",""
"html-button-response","150","338852","0.0-110.0-0.0","CKN_128","128","","","","","","8656","<button class=""jspsych-btn""><img src=""stimuli/brown.png"" style=""width: 200px;height: 200px;""></button>","1","brown","purple","[""brown"",""purple"",""high nameability""]","right-left","[""purple"",""brown""]","3","high nameability","29","right","response","1"
"html-audio-button-response","151","339059","0.0-110.0-1.0","CKN_128","128","","","","","","null","stimuli/bleep.m4a","null","brown","purple","[""brown"",""purple"",""high nameability""]","right-left","[""purple"",""brown""]","3","high nameability","29","right","audio_feedback","1"
"html-button-response","152","339572","0.0-111.0","CKN_128","128","","","","","","null","<button class=""jspsych-btn""><img src=""stimuli/white_square.png"" style=""width: 200px;height: 200px;""></button>","null","brown","purple","[""brown"",""purple"",""high nameability""]","right-left","[""purple"",""brown""]","3","high nameability","29","right","iti",""
"html-button-response","153","345033","0.0-112.0","CKN_128","128","","","","","","5451","","0","pink","turquoise","[""pink"",""turquoise"",""low nameability""]","right-left","[""turquoise"",""pink""]","3","low nameability","30","right","trigger",""
"html-button-response","154","349326","0.0-113.0-0.0","CKN_128","128","","","","","","4285","<button class=""jspsych-btn""><img src=""stimuli/pink.png"" style=""width: 200px;height: 200px;""></button>","1","pink","turquoise","[""pink"",""turquoise"",""low nameability""]","right-left","[""turquoise"",""pink""]","3","low nameability","30","right","response","1"
"html-audio-button-response","155","349527","0.0-113.0-1.0","CKN_128","128","","","","","","null","stimuli/bleep.m4a","null","pink","turquoise","[""pink"",""turquoise"",""low nameability""]","right-left","[""turquoise"",""pink""]","3","low nameability","30","right","audio_feedback","1"
"html-button-response","156","350037","0.0-114.0","CKN_128","128","","","","","","null","<button class=""jspsych-btn""><img src=""stimuli/white_square.png"" style=""width: 200px;height: 200px;""></button>","null","pink","turquoise","[""pink"",""turquoise"",""low nameability""]","right-left","[""turquoise"",""pink""]","3","low nameability","30","right","iti",""
"pavlovia","157","350125","0.0-115.0","CKN_128","128","","","","","","","","","","","","","","","","","","",""
"pavlovia","158","350133","0.0-116.0","CKN_128","128","","","","","","","","","","","","","","","","","","",""
"html-audio-button-response","159","355410","0.0-117.0","CKN_128","128","","","","","","5363","stimuli/tada.m4a","0","","","","","","","","","","",""
"html-button-response","160","363790","0.0-118.0","CKN_128","128","","","","","","8368","","0","","","","","","","","","","",""
"html-button-response","161","365398","0.0-119.0","CKN_128","128","","","","","","1591","","0","darkgreenblue","lightred","[""darkgreenblue"",""lightred"",""low nameability""]","right-left","[""lightred"",""darkgreenblue""]","4","low nameability","31","right","trigger",""
"html-button-response","162","370701","0.0-120.0-0.0","CKN_128","128","","","","","","5288","<button class=""jspsych-btn""><img src=""stimuli/darkgreenblue.png"" style=""width: 200px;height: 200px;""></button>","1","darkgreenblue","lightred","[""darkgreenblue"",""lightred"",""low nameability""]","right-left","[""lightred"",""darkgreenblue""]","4","low nameability","31","right","response","1"
"html-audio-button-response","163","370907","0.0-120.0-1.0","CKN_128","128","","","","","","null","stimuli/bleep.m4a","null","darkgreenblue","lightred","[""darkgreenblue"",""lightred"",""low nameability""]","right-left","[""lightred"",""darkgreenblue""]","4","low nameability","31","right","audio_feedback","1"
"html-button-response","164","371425","0.0-121.0","CKN_128","128","","","","","","null","<button class=""jspsych-btn""><img src=""stimuli/white_square.png"" style=""width: 200px;height: 200px;""></button>","null","darkgreenblue","lightred","[""darkgreenblue"",""lightred"",""low nameability""]","right-left","[""lightred"",""darkgreenblue""]","4","low nameability","31","right","iti",""
"html-button-response","165","376378","0.0-122.0","CKN_128","128","","","","","","4945","","0","mustard","pink","[""mustard"",""pink"",""low nameability""]","left-right","[""mustard"",""pink"",""low nameability""]","4","low nameability","32","left","trigger",""
"html-button-response","166","380986","0.0-123.0-0.0","CKN_128","128","","","","","","4594","<button class=""jspsych-btn""><img src=""stimuli/mustard.png"" style=""width: 200px;height: 200px;""></button>","0","mustard","pink","[""mustard"",""pink"",""low nameability""]","left-right","[""mustard"",""pink"",""low nameability""]","4","low nameability","32","left","response","1"
"html-audio-button-response","167","381198","0.0-123.0-1.0","CKN_128","128","","","","","","null","stimuli/bleep.m4a","null","mustard","pink","[""mustard"",""pink"",""low nameability""]","left-right","[""mustard"",""pink"",""low nameability""]","4","low nameability","32","left","audio_feedback","1"
"html-button-response","168","381715","0.0-124.0","CKN_128","128","","","","","","null","<button class=""jspsych-btn""><img src=""stimuli/white_square.png"" style=""width: 200px;height: 200px;""></button>","null","mustard","pink","[""mustard"",""pink"",""low nameability""]","left-right","[""mustard"",""pink"",""low nameability""]","4","low nameability","32","left","iti",""
"html-button-response","169","382761","0.0-125.0","CKN_128","128","","","","","","1038","","0","purple","brown","[""purple"",""brown"",""high nameability""]","right-left","[""brown"",""purple""]","4","high nameability","33","right","trigger",""
"html-button-response","170","384877","0.0-126.0-0.0","CKN_128","128","","","","","","2105","<button class=""jspsych-btn""><img src=""stimuli/purple.png"" style=""width: 200px;height: 200px;""></button>","1","purple","brown","[""purple"",""brown"",""high nameability""]","right-left","[""brown"",""purple""]","4","high nameability","33","right","response","1"
"html-audio-button-response","171","385079","0.0-126.0-1.0","CKN_128","128","","","","","","null","stimuli/bleep.m4a","null","purple","brown","[""purple"",""brown"",""high nameability""]","right-left","[""brown"",""purple""]","4","high nameability","33","right","audio_feedback","1"
"html-button-response","172","385588","0.0-127.0","CKN_128","128","","","","","","null","<button class=""jspsych-btn""><img src=""stimuli/white_square.png"" style=""width: 200px;height: 200px;""></button>","null","purple","brown","[""purple"",""brown"",""high nameability""]","right-left","[""brown"",""purple""]","4","high nameability","33","right","iti",""
"html-button-response","173","385998","0.0-128.0","CKN_128","128","","","","","","405","","0","neonyellow","mustard","[""neonyellow"",""mustard"",""low nameability""]","left-right","[""neonyellow"",""mustard"",""low nameability""]","4","low nameability","34","left","trigger",""
"html-button-response","174","392360","0.0-129.0-0.0","CKN_128","128","","","","","","6354","<button class=""jspsych-btn""><img src=""stimuli/neonyellow.png"" style=""width: 200px;height: 200px;""></button>","0","neonyellow","mustard","[""neonyellow"",""mustard"",""low nameability""]","left-right","[""neonyellow"",""mustard"",""low nameability""]","4","low nameability","34","left","response","1"
"html-audio-button-response","175","392566","0.0-129.0-1.0","CKN_128","128","","","","","","null","stimuli/bleep.m4a","null","neonyellow","mustard","[""neonyellow"",""mustard"",""low nameability""]","left-right","[""neonyellow"",""mustard"",""low nameability""]","4","low nameability","34","left","audio_feedback","1"
"html-button-response","176","393083","0.0-130.0","CKN_128","128","","","","","","null","<button class=""jspsych-btn""><img src=""stimuli/white_square.png"" style=""width: 200px;height: 200px;""></button>","null","neonyellow","mustard","[""neonyellow"",""mustard"",""low nameability""]","left-right","[""neonyellow"",""mustard"",""low nameability""]","4","low nameability","34","left","iti",""
"html-button-response","177","396799","0.0-131.0","CKN_128","128","","","","","","3699","","0","lightred","pink","[""lightred"",""pink"",""low nameability""]","left-right","[""lightred"",""pink"",""low nameability""]","4","low nameability","35","left","trigger",""
"html-button-response","178","399086","0.0-132.0-0.0","CKN_128","128","","","","","","2281","<button class=""jspsych-btn""><img src=""stimuli/lightred.png"" style=""width: 200px;height: 200px;""></button>","0","lightred","pink","[""lightred"",""pink"",""low nameability""]","left-right","[""lightred"",""pink"",""low nameability""]","4","low nameability","35","left","response","1"
"html-audio-button-response","179","399292","0.0-132.0-1.0","CKN_128","128","","","","","","null","stimuli/bleep.m4a","null","lightred","pink","[""lightred"",""pink"",""low nameability""]","left-right","[""lightred"",""pink"",""low nameability""]","4","low nameability","35","left","audio_feedback","1"
"html-button-response","180","399802","0.0-133.0","CKN_128","128","","","","","","247","<button class=""jspsych-btn""><img src=""stimuli/white_square.png"" style=""width: 200px;height: 200px;""></button>","0","lightred","pink","[""lightred"",""pink"",""low nameability""]","left-right","[""lightred"",""pink"",""low nameability""]","4","low nameability","35","left","iti",""
"html-button-response","181","406823","0.0-134.0","CKN_128","128","","","","","","7008","","0","pink","darkgreenblue","[""pink"",""darkgreenblue"",""low nameability""]","left-right","[""pink"",""darkgreenblue"",""low nameability""]","4","low nameability","36","left","trigger",""
"html-button-response","182","408645","0.0-135.0-0.0","CKN_128","128","","","","","","1811","<button class=""jspsych-btn""><img src=""stimuli/pink.png"" style=""width: 200px;height: 200px;""></button>","0","pink","darkgreenblue","[""pink"",""darkgreenblue"",""low nameability""]","left-right","[""pink"",""darkgreenblue"",""low nameability""]","4","low nameability","36","left","response","1"
"html-audio-button-response","183","408853","0.0-135.0-1.0","CKN_128","128","","","","","","null","stimuli/bleep.m4a","null","pink","darkgreenblue","[""pink"",""darkgreenblue"",""low nameability""]","left-right","[""pink"",""darkgreenblue"",""low nameability""]","4","low nameability","36","left","audio_feedback","1"
"html-button-response","184","409365","0.0-136.0","CKN_128","128","","","","","","null","<button class=""jspsych-btn""><img src=""stimuli/white_square.png"" style=""width: 200px;height: 200px;""></button>","null","pink","darkgreenblue","[""pink"",""darkgreenblue"",""low nameability""]","left-right","[""pink"",""darkgreenblue"",""low nameability""]","4","low nameability","36","left","iti",""
"html-button-response","185","412058","0.0-137.0","CKN_128","128","","","","","","2680","","0","purple","blue","[""purple"",""blue"",""high nameability""]","right-left","[""blue"",""purple""]","4","high nameability","37","right","trigger",""
"html-button-response","186","415987","0.0-138.0-0.0","CKN_128","128","","","","","","3919","<button class=""jspsych-btn""><img src=""stimuli/purple.png"" style=""width: 200px;height: 200px;""></button>","1","purple","blue","[""purple"",""blue"",""high nameability""]","right-left","[""blue"",""purple""]","4","high nameability","37","right","response","1"
"html-audio-button-response","187","416194","0.0-138.0-1.0","CKN_128","128","","","","","","null","stimuli/bleep.m4a","null","purple","blue","[""purple"",""blue"",""high nameability""]","right-left","[""blue"",""purple""]","4","high nameability","37","right","audio_feedback","1"
"html-button-response","188","416706","0.0-139.0","CKN_128","128","","","","","","null","<button class=""jspsych-btn""><img src=""stimuli/white_square.png"" style=""width: 200px;height: 200px;""></button>","null","purple","blue","[""purple"",""blue"",""high nameability""]","right-left","[""blue"",""purple""]","4","high nameability","37","right","iti",""
"html-button-response","189","421131","0.0-140.0","CKN_128","128","","","","","","4421","","0","blue","yellow","[""blue"",""yellow"",""high nameability""]","left-right","[""blue"",""yellow"",""high nameability""]","4","high nameability","38","left","trigger",""
"html-button-response","190","423088","0.0-141.0-0.0","CKN_128","128","","","","","","1952","<button class=""jspsych-btn""><img src=""stimuli/blue.png"" style=""width: 200px;height: 200px;""></button>","0","blue","yellow","[""blue"",""yellow"",""high nameability""]","left-right","[""blue"",""yellow"",""high nameability""]","4","high nameability","38","left","response","1"
"html-audio-button-response","191","423291","0.0-141.0-1.0","CKN_128","128","","","","","","null","stimuli/bleep.m4a","null","blue","yellow","[""blue"",""yellow"",""high nameability""]","left-right","[""blue"",""yellow"",""high nameability""]","4","high nameability","38","left","audio_feedback","1"
"html-button-response","192","423805","0.0-142.0","CKN_128","128","","","","","","null","<button class=""jspsych-btn""><img src=""stimuli/white_square.png"" style=""width: 200px;height: 200px;""></button>","null","blue","yellow","[""blue"",""yellow"",""high nameability""]","left-right","[""blue"",""yellow"",""high nameability""]","4","high nameability","38","left","iti",""
"html-button-response","193","428700","0.0-143.0","CKN_128","128","","","","","","4884","","0","mustard","neonyellow","[""mustard"",""neonyellow"",""low nameability""]","left-right","[""mustard"",""neonyellow"",""low nameability""]","4","low nameability","39","left","trigger",""
"html-button-response","194","436339","0.0-144.0-0.0","CKN_128","128","","","","","","7628","<button class=""jspsych-btn""><img src=""stimuli/mustard.png"" style=""width: 200px;height: 200px;""></button>","0","mustard","neonyellow","[""mustard"",""neonyellow"",""low nameability""]","left-right","[""mustard"",""neonyellow"",""low nameability""]","4","low nameability","39","left","response","1"
"html-audio-button-response","195","436542","0.0-144.0-1.0","CKN_128","128","","","","","","null","stimuli/bleep.m4a","null","mustard","neonyellow","[""mustard"",""neonyellow"",""low nameability""]","left-right","[""mustard"",""neonyellow"",""low nameability""]","4","low nameability","39","left","audio_feedback","1"
"html-button-response","196","437057","0.0-145.0","CKN_128","128","","","","","","null","<button class=""jspsych-btn""><img src=""stimuli/white_square.png"" style=""width: 200px;height: 200px;""></button>","null","mustard","neonyellow","[""mustard"",""neonyellow"",""low nameability""]","left-right","[""mustard"",""neonyellow"",""low nameability""]","4","low nameability","39","left","iti",""
"html-button-response","197","438091","0.0-146.0","CKN_128","128","","","","","","1027","","0","orange","red","[""orange"",""red"",""high nameability""]","right-left","[""red"",""orange""]","4","high nameability","40","right","trigger",""
"html-button-response","198","440449","0.0-147.0-0.0","CKN_128","128","","","","","","2349","<button class=""jspsych-btn""><img src=""stimuli/orange.png"" style=""width: 200px;height: 200px;""></button>","0","orange","red","[""orange"",""red"",""high nameability""]","right-left","[""red"",""orange""]","4","high nameability","40","right","response","0"
"html-audio-button-response","199","441078","0.0-147.0-1.0","CKN_128","128","","","","","","null","stimuli/boing.m4a","null","orange","red","[""orange"",""red"",""high nameability""]","right-left","[""red"",""orange""]","4","high nameability","40","right","audio_feedback","0"
"html-button-response","200","443876","0.0-147.1-0.1","CKN_128","128","","","","","","2780","<button class=""jspsych-btn""><img src=""stimuli/orange.png"" style=""width: 200px;height: 200px;""></button>","1","orange","red","[""orange"",""red"",""high nameability""]","right-left","[""red"",""orange""]","4","high nameability","40","right","response","1"
"html-audio-button-response","201","444081","0.0-147.1-1.1","CKN_128","128","","","","","","null","stimuli/bleep.m4a","null","orange","red","[""orange"",""red"",""high nameability""]","right-left","[""red"",""orange""]","4","high nameability","40","right","audio_feedback","1"
"html-button-response","202","444596","0.0-148.0","CKN_128","128","","","","","","241","<button class=""jspsych-btn""><img src=""stimuli/white_square.png"" style=""width: 200px;height: 200px;""></button>","1","orange","red","[""orange"",""red"",""high nameability""]","right-left","[""red"",""orange""]","4","high nameability","40","right","iti",""
"pavlovia","203","444659","0.0-149.0","CKN_128","128","","","","","","","","","","","","","","","","","","",""
"pavlovia","204","444665","0.0-150.0","CKN_128","128","","","","","","","","","","","","","","","","","","",""
"html-audio-button-response","205","451073","0.0-151.0","CKN_128","128","","","","","","6469","stimuli/tada.m4a","0","","","","","","","","","","",""
"html-button-response","206","457119","0.0-152.0","CKN_128","128","","","","","","6039","","0","","","","","","","","","","",""
"html-button-response","207","463511","0.0-153.0","CKN_128","128","","","","","","6383","","0","turquoise","darkgreenblue","[""turquoise"",""darkgreenblue"",""low nameability""]","left-right","[""turquoise"",""darkgreenblue"",""low nameability""]","5","low nameability","41","left","trigger",""
"html-button-response","208","469708","0.0-154.0-0.0","CKN_128","128","","","","","","6189","<button class=""jspsych-btn""><img src=""stimuli/turquoise.png"" style=""width: 200px;height: 200px;""></button>","0","turquoise","darkgreenblue","[""turquoise"",""darkgreenblue"",""low nameability""]","left-right","[""turquoise"",""darkgreenblue"",""low nameability""]","5","low nameability","41","left","response","1"
"html-audio-button-response","209","469914","0.0-154.0-1.0","CKN_128","128","","","","","","null","stimuli/bleep.m4a","null","turquoise","darkgreenblue","[""turquoise"",""darkgreenblue"",""low nameability""]","left-right","[""turquoise"",""darkgreenblue"",""low nameability""]","5","low nameability","41","left","audio_feedback","1"
"html-button-response","210","470428","0.0-155.0","CKN_128","128","","","","","","null","<button class=""jspsych-btn""><img src=""stimuli/white_square.png"" style=""width: 200px;height: 200px;""></button>","null","turquoise","darkgreenblue","[""turquoise"",""darkgreenblue"",""low nameability""]","left-right","[""turquoise"",""darkgreenblue"",""low nameability""]","5","low nameability","41","left","iti",""
"html-button-response","211","472420","0.0-156.0","CKN_128","128","","","","","","1981","","0","yellow","red","[""yellow"",""red"",""high nameability""]","left-right","[""yellow"",""red"",""high nameability""]","5","high nameability","42","left","trigger",""
"html-button-response","212","476090","0.0-157.0-0.0","CKN_128","128","","","","","","3656","<button class=""jspsych-btn""><img src=""stimuli/yellow.png"" style=""width: 200px;height: 200px;""></button>","0","yellow","red","[""yellow"",""red"",""high nameability""]","left-right","[""yellow"",""red"",""high nameability""]","5","high nameability","42","left","response","1"
"html-audio-button-response","213","476295","0.0-157.0-1.0","CKN_128","128","","","","","","null","stimuli/bleep.m4a","null","yellow","red","[""yellow"",""red"",""high nameability""]","left-right","[""yellow"",""red"",""high nameability""]","5","high nameability","42","left","audio_feedback","1"
"html-button-response","214","476807","0.0-158.0","CKN_128","128","","","","","","null","<button class=""jspsych-btn""><img src=""stimuli/white_square.png"" style=""width: 200px;height: 200px;""></button>","null","yellow","red","[""yellow"",""red"",""high nameability""]","left-right","[""yellow"",""red"",""high nameability""]","5","high nameability","42","left","iti",""
"html-button-response","215","477265","0.0-159.0","CKN_128","128","","","","","","445","","0","orange","brown","[""orange"",""brown"",""high nameability""]","right-left","[""brown"",""orange""]","5","high nameability","43","right","trigger",""
"html-button-response","216","478666","0.0-160.0-0.0","CKN_128","128","","","","","","1391","<button class=""jspsych-btn""><img src=""stimuli/orange.png"" style=""width: 200px;height: 200px;""></button>","1","orange","brown","[""orange"",""brown"",""high nameability""]","right-left","[""brown"",""orange""]","5","high nameability","43","right","response","1"
"html-audio-button-response","217","478867","0.0-160.0-1.0","CKN_128","128","","","","","","null","stimuli/bleep.m4a","null","orange","brown","[""orange"",""brown"",""high nameability""]","right-left","[""brown"",""orange""]","5","high nameability","43","right","audio_feedback","1"
"html-button-response","218","479383","0.0-161.0","CKN_128","128","","","","","","null","<button class=""jspsych-btn""><img src=""stimuli/white_square.png"" style=""width: 200px;height: 200px;""></button>","null","orange","brown","[""orange"",""brown"",""high nameability""]","right-left","[""brown"",""orange""]","5","high nameability","43","right","iti",""
"html-button-response","219","485653","0.0-162.0","CKN_128","128","","","","","","6257","","0","lightred","mustard","[""lightred"",""mustard"",""low nameability""]","left-right","[""lightred"",""mustard"",""low nameability""]","5","low nameability","44","left","trigger",""
"html-button-response","220","486805","0.0-163.0-0.0","CKN_128","128","","","","","","1144","<button class=""jspsych-btn""><img src=""stimuli/lightred.png"" style=""width: 200px;height: 200px;""></button>","0","lightred","mustard","[""lightred"",""mustard"",""low nameability""]","left-right","[""lightred"",""mustard"",""low nameability""]","5","low nameability","44","left","response","1"
"html-audio-button-response","221","487007","0.0-163.0-1.0","CKN_128","128","","","","","","null","stimuli/bleep.m4a","null","lightred","mustard","[""lightred"",""mustard"",""low nameability""]","left-right","[""lightred"",""mustard"",""low nameability""]","5","low nameability","44","left","audio_feedback","1"
"html-button-response","222","487518","0.0-164.0","CKN_128","128","","","","","","null","<button class=""jspsych-btn""><img src=""stimuli/white_square.png"" style=""width: 200px;height: 200px;""></button>","null","lightred","mustard","[""lightred"",""mustard"",""low nameability""]","left-right","[""lightred"",""mustard"",""low nameability""]","5","low nameability","44","left","iti",""
"html-button-response","223","492975","0.0-165.0","CKN_128","128","","","","","","5446","","0","neonyellow","turquoise","[""neonyellow"",""turquoise"",""low nameability""]","left-right","[""neonyellow"",""turquoise"",""low nameability""]","5","low nameability","45","left","trigger",""
"html-button-response","224","494982","0.0-166.0-0.0","CKN_128","128","","","","","","1999","<button class=""jspsych-btn""><img src=""stimuli/neonyellow.png"" style=""width: 200px;height: 200px;""></button>","0","neonyellow","turquoise","[""neonyellow"",""turquoise"",""low nameability""]","left-right","[""neonyellow"",""turquoise"",""low nameability""]","5","low nameability","45","left","response","1"
"html-audio-button-response","225","495189","0.0-166.0-1.0","CKN_128","128","","","","","","null","stimuli/bleep.m4a","null","neonyellow","turquoise","[""neonyellow"",""turquoise"",""low nameability""]","left-right","[""neonyellow"",""turquoise"",""low nameability""]","5","low nameability","45","left","audio_feedback","1"
"html-button-response","226","495698","0.0-167.0","CKN_128","128","","","","","","null","<button class=""jspsych-btn""><img src=""stimuli/white_square.png"" style=""width: 200px;height: 200px;""></button>","null","neonyellow","turquoise","[""neonyellow"",""turquoise"",""low nameability""]","left-right","[""neonyellow"",""turquoise"",""low nameability""]","5","low nameability","45","left","iti",""
"html-button-response","227","496380","0.0-168.0","CKN_128","128","","","","","","677","","0","orange","yellow","[""orange"",""yellow"",""high nameability""]","right-left","[""yellow"",""orange""]","5","high nameability","46","right","trigger",""
"html-button-response","228","499942","0.0-169.0-0.0","CKN_128","128","","","","","","3557","<button class=""jspsych-btn""><img src=""stimuli/orange.png"" style=""width: 200px;height: 200px;""></button>","1","orange","yellow","[""orange"",""yellow"",""high nameability""]","right-left","[""yellow"",""orange""]","5","high nameability","46","right","response","1"
"html-audio-button-response","229","500143","0.0-169.0-1.0","CKN_128","128","","","","","","null","stimuli/bleep.m4a","null","orange","yellow","[""orange"",""yellow"",""high nameability""]","right-left","[""yellow"",""orange""]","5","high nameability","46","right","audio_feedback","1"
"html-button-response","230","500654","0.0-170.0","CKN_128","128","","","","","","201","<button class=""jspsych-btn""><img src=""stimuli/white_square.png"" style=""width: 200px;height: 200px;""></button>","1","orange","yellow","[""orange"",""yellow"",""high nameability""]","right-left","[""yellow"",""orange""]","5","high nameability","46","right","iti",""
"html-button-response","231","502047","0.0-171.0","CKN_128","128","","","","","","1383","","0","brown","yellow","[""brown"",""yellow"",""high nameability""]","left-right","[""brown"",""yellow"",""high nameability""]","5","high nameability","47","left","trigger",""
"html-button-response","232","508470","0.0-172.0-0.0","CKN_128","128","","","","","","6415","<button class=""jspsych-btn""><img src=""stimuli/brown.png"" style=""width: 200px;height: 200px;""></button>","0","brown","yellow","[""brown"",""yellow"",""high nameability""]","left-right","[""brown"",""yellow"",""high nameability""]","5","high nameability","47","left","response","1"
"html-audio-button-response","233","508675","0.0-172.0-1.0","CKN_128","128","","","","","","null","stimuli/bleep.m4a","null","brown","yellow","[""brown"",""yellow"",""high nameability""]","left-right","[""brown"",""yellow"",""high nameability""]","5","high nameability","47","left","audio_feedback","1"
"html-button-response","234","509193","0.0-173.0","CKN_128","128","","","","","","null","<button class=""jspsych-btn""><img src=""stimuli/white_square.png"" style=""width: 200px;height: 200px;""></button>","null","brown","yellow","[""brown"",""yellow"",""high nameability""]","left-right","[""brown"",""yellow"",""high nameability""]","5","high nameability","47","left","iti",""
"html-button-response","235","510270","0.0-174.0","CKN_128","128","","","","","","1068","","0","neonyellow","lightred","[""neonyellow"",""lightred"",""low nameability""]","left-right","[""neonyellow"",""lightred"",""low nameability""]","5","low nameability","48","left","trigger",""
"html-button-response","236","518258","0.0-175.0-0.0","CKN_128","128","","","","","","7976","<button class=""jspsych-btn""><img src=""stimuli/neonyellow.png"" style=""width: 200px;height: 200px;""></button>","0","neonyellow","lightred","[""neonyellow"",""lightred"",""low nameability""]","left-right","[""neonyellow"",""lightred"",""low nameability""]","5","low nameability","48","left","response","1"
"html-audio-button-response","237","518457","0.0-175.0-1.0","CKN_128","128","","","","","","null","stimuli/bleep.m4a","null","neonyellow","lightred","[""neonyellow"",""lightred"",""low nameability""]","left-right","[""neonyellow"",""lightred"",""low nameability""]","5","low nameability","48","left","audio_feedback","1"
"html-button-response","238","518965","0.0-176.0","CKN_128","128","","","","","","222","<button class=""jspsych-btn""><img src=""stimuli/white_square.png"" style=""width: 200px;height: 200px;""></button>","0","neonyellow","lightred","[""neonyellow"",""lightred"",""low nameability""]","left-right","[""neonyellow"",""lightred"",""low nameability""]","5","low nameability","48","left","iti",""
"html-button-response","239","519642","0.0-177.0","CKN_128","128","","","","","","670","","0","mustard","turquoise","[""mustard"",""turquoise"",""low nameability""]","right-left","[""turquoise"",""mustard""]","5","low nameability","49","right","trigger",""
"html-button-response","240","522094","0.0-178.0-0.0","CKN_128","128","","","","","","2445","<button class=""jspsych-btn""><img src=""stimuli/mustard.png"" style=""width: 200px;height: 200px;""></button>","1","mustard","turquoise","[""mustard"",""turquoise"",""low nameability""]","right-left","[""turquoise"",""mustard""]","5","low nameability","49","right","response","1"
"html-audio-button-response","241","522297","0.0-178.0-1.0","CKN_128","128","","","","","","null","stimuli/bleep.m4a","null","mustard","turquoise","[""mustard"",""turquoise"",""low nameability""]","right-left","[""turquoise"",""mustard""]","5","low nameability","49","right","audio_feedback","1"
"html-button-response","242","522809","0.0-179.0","CKN_128","128","","","","","","null","<button class=""jspsych-btn""><img src=""stimuli/white_square.png"" style=""width: 200px;height: 200px;""></button>","null","mustard","turquoise","[""mustard"",""turquoise"",""low nameability""]","right-left","[""turquoise"",""mustard""]","5","low nameability","49","right","iti",""
"html-button-response","243","523464","0.0-180.0","CKN_128","128","","","","","","642","","0","red","purple","[""red"",""purple"",""high nameability""]","right-left","[""purple"",""red""]","5","high nameability","50","right","trigger",""
"html-button-response","244","524852","0.0-181.0-0.0","CKN_128","128","","","","","","1380","<button class=""jspsych-btn""><img src=""stimuli/red.png"" style=""width: 200px;height: 200px;""></button>","1","red","purple","[""red"",""purple"",""high nameability""]","right-left","[""purple"",""red""]","5","high nameability","50","right","response","1"
"html-audio-button-response","245","525057","0.0-181.0-1.0","CKN_128","128","","","","","","null","stimuli/bleep.m4a","null","red","purple","[""red"",""purple"",""high nameability""]","right-left","[""purple"",""red""]","5","high nameability","50","right","audio_feedback","1"
"html-button-response","246","525570","0.0-182.0","CKN_128","128","","","","","","null","<button class=""jspsych-btn""><img src=""stimuli/white_square.png"" style=""width: 200px;height: 200px;""></button>","null","red","purple","[""red"",""purple"",""high nameability""]","right-left","[""purple"",""red""]","5","high nameability","50","right","iti",""
"pavlovia","247","525653","0.0-183.0","CKN_128","128","","","","","","","","","","","","","","","","","","",""
"pavlovia","248","525660","0.0-184.0","CKN_128","128","","","","","","","","","","","","","","","","","","",""
"html-audio-button-response","249","528496","0.0-185.0","CKN_128","128","","","","","","2920","stimuli/tada.m4a","0","","","","","","","","","","",""
"html-button-response","250","528993","0.0-186.0","CKN_128","128","","","","","","491","","0","","","","","","","","","","",""
"html-button-response","251","533142","0.0-187.0","CKN_128","128","","","","","","4140","","0","turquoise","lightred","[""turquoise"",""lightred"",""low nameability""]","left-right","[""turquoise"",""lightred"",""low nameability""]","6","low nameability","51","left","trigger",""
"html-button-response","252","537492","0.0-188.0-0.0","CKN_128","128","","","","","","4344","<button class=""jspsych-btn""><img src=""stimuli/turquoise.png"" style=""width: 200px;height: 200px;""></button>","0","turquoise","lightred","[""turquoise"",""lightred"",""low nameability""]","left-right","[""turquoise"",""lightred"",""low nameability""]","6","low nameability","51","left","response","1"
"html-audio-button-response","253","537694","0.0-188.0-1.0","CKN_128","128","","","","","","null","stimuli/bleep.m4a","null","turquoise","lightred","[""turquoise"",""lightred"",""low nameability""]","left-right","[""turquoise"",""lightred"",""low nameability""]","6","low nameability","51","left","audio_feedback","1"
"html-button-response","254","538201","0.0-189.0","CKN_128","128","","","","","","null","<button class=""jspsych-btn""><img src=""stimuli/white_square.png"" style=""width: 200px;height: 200px;""></button>","null","turquoise","lightred","[""turquoise"",""lightred"",""low nameability""]","left-right","[""turquoise"",""lightred"",""low nameability""]","6","low nameability","51","left","iti",""
"html-button-response","255","538732","0.0-190.0","CKN_128","128","","","","","","525","","0","lightred","turquoise","[""lightred"",""turquoise"",""low nameability""]","left-right","[""lightred"",""turquoise"",""low nameability""]","6","low nameability","52","left","trigger",""
"html-button-response","256","545063","0.0-191.0-0.0","CKN_128","128","","","","","","6324","<button class=""jspsych-btn""><img src=""stimuli/lightred.png"" style=""width: 200px;height: 200px;""></button>","0","lightred","turquoise","[""lightred"",""turquoise"",""low nameability""]","left-right","[""lightred"",""turquoise"",""low nameability""]","6","low nameability","52","left","response","1"
"html-audio-button-response","257","545261","0.0-191.0-1.0","CKN_128","128","","","","","","null","stimuli/bleep.m4a","null","lightred","turquoise","[""lightred"",""turquoise"",""low nameability""]","left-right","[""lightred"",""turquoise"",""low nameability""]","6","low nameability","52","left","audio_feedback","1"
"html-button-response","258","545771","0.0-192.0","CKN_128","128","","","","","","null","<button class=""jspsych-btn""><img src=""stimuli/white_square.png"" style=""width: 200px;height: 200px;""></button>","null","lightred","turquoise","[""lightred"",""turquoise"",""low nameability""]","left-right","[""lightred"",""turquoise"",""low nameability""]","6","low nameability","52","left","iti",""
"html-button-response","259","546163","0.0-193.0","CKN_128","128","","","","","","386","","0","blue","brown","[""blue"",""brown"",""high nameability""]","left-right","[""blue"",""brown"",""high nameability""]","6","high nameability","53","left","trigger",""
"html-button-response","260","548336","0.0-194.0-0.0","CKN_128","128","","","","","","2165","<button class=""jspsych-btn""><img src=""stimuli/blue.png"" style=""width: 200px;height: 200px;""></button>","0","blue","brown","[""blue"",""brown"",""high nameability""]","left-right","[""blue"",""brown"",""high nameability""]","6","high nameability","53","left","response","1"
"html-audio-button-response","261","548540","0.0-194.0-1.0","CKN_128","128","","","","","","null","stimuli/bleep.m4a","null","blue","brown","[""blue"",""brown"",""high nameability""]","left-right","[""blue"",""brown"",""high nameability""]","6","high nameability","53","left","audio_feedback","1"
"html-button-response","262","549056","0.0-195.0","CKN_128","128","","","","","","null","<button class=""jspsych-btn""><img src=""stimuli/white_square.png"" style=""width: 200px;height: 200px;""></button>","null","blue","brown","[""blue"",""brown"",""high nameability""]","left-right","[""blue"",""brown"",""high nameability""]","6","high nameability","53","left","iti",""
"html-button-response","263","549392","0.0-196.0","CKN_128","128","","","","","","323","","0","darkgreenblue","turquoise","[""darkgreenblue"",""turquoise"",""low nameability""]","left-right","[""darkgreenblue"",""turquoise"",""low nameability""]","6","low nameability","54","left","trigger",""
"html-button-response","264","550450","0.0-197.0-0.0","CKN_128","128","","","","","","1050","<button class=""jspsych-btn""><img src=""stimuli/darkgreenblue.png"" style=""width: 200px;height: 200px;""></button>","0","darkgreenblue","turquoise","[""darkgreenblue"",""turquoise"",""low nameability""]","left-right","[""darkgreenblue"",""turquoise"",""low nameability""]","6","low nameability","54","left","response","1"
"html-audio-button-response","265","550655","0.0-197.0-1.0","CKN_128","128","","","","","","null","stimuli/bleep.m4a","null","darkgreenblue","turquoise","[""darkgreenblue"",""turquoise"",""low nameability""]","left-right","[""darkgreenblue"",""turquoise"",""low nameability""]","6","low nameability","54","left","audio_feedback","1"
"html-button-response","266","551167","0.0-198.0","CKN_128","128","","","","","","null","<button class=""jspsych-btn""><img src=""stimuli/white_square.png"" style=""width: 200px;height: 200px;""></button>","null","darkgreenblue","turquoise","[""darkgreenblue"",""turquoise"",""low nameability""]","left-right","[""darkgreenblue"",""turquoise"",""low nameability""]","6","low nameability","54","left","iti",""
"html-button-response","267","552507","0.0-199.0","CKN_128","128","","","","","","1330","","0","purple","yellow","[""purple"",""yellow"",""high nameability""]","right-left","[""yellow"",""purple""]","6","high nameability","55","right","trigger",""
"html-button-response","268","553556","0.0-200.0-0.0","CKN_128","128","","","","","","1042","<button class=""jspsych-btn""><img src=""stimuli/purple.png"" style=""width: 200px;height: 200px;""></button>","0","purple","yellow","[""purple"",""yellow"",""high nameability""]","right-left","[""yellow"",""purple""]","6","high nameability","55","right","response","0"
"html-audio-button-response","269","554190","0.0-200.0-1.0","CKN_128","128","","","","","","null","stimuli/boing.m4a","null","purple","yellow","[""purple"",""yellow"",""high nameability""]","right-left","[""yellow"",""purple""]","6","high nameability","55","right","audio_feedback","0"
"html-button-response","270","561712","0.0-200.1-0.1","CKN_128","128","","","","","","7505","<button class=""jspsych-btn""><img src=""stimuli/purple.png"" style=""width: 200px;height: 200px;""></button>","1","purple","yellow","[""purple"",""yellow"",""high nameability""]","right-left","[""yellow"",""purple""]","6","high nameability","55","right","response","1"
"html-audio-button-response","271","561914","0.0-200.1-1.1","CKN_128","128","","","","","","null","stimuli/bleep.m4a","null","purple","yellow","[""purple"",""yellow"",""high nameability""]","right-left","[""yellow"",""purple""]","6","high nameability","55","right","audio_feedback","1"
"html-button-response","272","562426","0.0-201.0","CKN_128","128","","","","","","null","<button class=""jspsych-btn""><img src=""stimuli/white_square.png"" style=""width: 200px;height: 200px;""></button>","null","purple","yellow","[""purple"",""yellow"",""high nameability""]","right-left","[""yellow"",""purple""]","6","high nameability","55","right","iti",""
"html-button-response","273","563122","0.0-202.0","CKN_128","128","","","","","","689","","0","darkgreenblue","pink","[""darkgreenblue"",""pink"",""low nameability""]","left-right","[""darkgreenblue"",""pink"",""low nameability""]","6","low nameability","56","left","trigger",""
"html-button-response","274","565830","0.0-203.0-0.0","CKN_128","128","","","","","","2700","<button class=""jspsych-btn""><img src=""stimuli/darkgreenblue.png"" style=""width: 200px;height: 200px;""></button>","0","darkgreenblue","pink","[""darkgreenblue"",""pink"",""low nameability""]","left-right","[""darkgreenblue"",""pink"",""low nameability""]","6","low nameability","56","left","response","1"
"html-audio-button-response","275","566032","0.0-203.0-1.0","CKN_128","128","","","","","","null","stimuli/bleep.m4a","null","darkgreenblue","pink","[""darkgreenblue"",""pink"",""low nameability""]","left-right","[""darkgreenblue"",""pink"",""low nameability""]","6","low nameability","56","left","audio_feedback","1"
"html-button-response","276","566546","0.0-204.0","CKN_128","128","","","","","","192","<button class=""jspsych-btn""><img src=""stimuli/white_square.png"" style=""width: 200px;height: 200px;""></button>","0","darkgreenblue","pink","[""darkgreenblue"",""pink"",""low nameability""]","left-right","[""darkgreenblue"",""pink"",""low nameability""]","6","low nameability","56","left","iti",""
"html-button-response","277","566916","0.0-205.0","CKN_128","128","","","","","","359","","0","red","orange","[""red"",""orange"",""high nameability""]","right-left","[""orange"",""red""]","6","high nameability","57","right","trigger",""
"html-button-response","278","568062","0.0-206.0-0.0","CKN_128","128","","","","","","1138","<button class=""jspsych-btn""><img src=""stimuli/red.png"" style=""width: 200px;height: 200px;""></button>","1","red","orange","[""red"",""orange"",""high nameability""]","right-left","[""orange"",""red""]","6","high nameability","57","right","response","1"
"html-audio-button-response","279","568263","0.0-206.0-1.0","CKN_128","128","","","","","","null","stimuli/bleep.m4a","null","red","orange","[""red"",""orange"",""high nameability""]","right-left","[""orange"",""red""]","6","high nameability","57","right","audio_feedback","1"
"html-button-response","280","568775","0.0-207.0","CKN_128","128","","","","","","null","<button class=""jspsych-btn""><img src=""stimuli/white_square.png"" style=""width: 200px;height: 200px;""></button>","null","red","orange","[""red"",""orange"",""high nameability""]","right-left","[""orange"",""red""]","6","high nameability","57","right","iti",""
"html-button-response","281","569010","0.0-208.0","CKN_128","128","","","","","","218","","0","pink","neonyellow","[""pink"",""neonyellow"",""low nameability""]","right-left","[""neonyellow"",""pink""]","6","low nameability","58","right","trigger",""
"html-button-response","282","573164","0.0-209.0-0.0","CKN_128","128","","","","","","4148","<button class=""jspsych-btn""><img src=""stimuli/pink.png"" style=""width: 200px;height: 200px;""></button>","1","pink","neonyellow","[""pink"",""neonyellow"",""low nameability""]","right-left","[""neonyellow"",""pink""]","6","low nameability","58","right","response","1"
"html-audio-button-response","283","573367","0.0-209.0-1.0","CKN_128","128","","","","","","null","stimuli/bleep.m4a","null","pink","neonyellow","[""pink"",""neonyellow"",""low nameability""]","right-left","[""neonyellow"",""pink""]","6","low nameability","58","right","audio_feedback","1"
"html-button-response","284","573877","0.0-210.0","CKN_128","128","","","","","","null","<button class=""jspsych-btn""><img src=""stimuli/white_square.png"" style=""width: 200px;height: 200px;""></button>","null","pink","neonyellow","[""pink"",""neonyellow"",""low nameability""]","right-left","[""neonyellow"",""pink""]","6","low nameability","58","right","iti",""
"html-button-response","285","574262","0.0-211.0","CKN_128","128","","","","","","378","","0","orange","purple","[""orange"",""purple"",""high nameability""]","right-left","[""purple"",""orange""]","6","high nameability","59","right","trigger",""
"html-button-response","286","578697","0.0-212.0-0.0","CKN_128","128","","","","","","4427","<button class=""jspsych-btn""><img src=""stimuli/orange.png"" style=""width: 200px;height: 200px;""></button>","1","orange","purple","[""orange"",""purple"",""high nameability""]","right-left","[""purple"",""orange""]","6","high nameability","59","right","response","1"
"html-audio-button-response","287","578904","0.0-212.0-1.0","CKN_128","128","","","","","","null","stimuli/bleep.m4a","null","orange","purple","[""orange"",""purple"",""high nameability""]","right-left","[""purple"",""orange""]","6","high nameability","59","right","audio_feedback","1"
"html-button-response","288","579416","0.0-213.0","CKN_128","128","","","","","","null","<button class=""jspsych-btn""><img src=""stimuli/white_square.png"" style=""width: 200px;height: 200px;""></button>","null","orange","purple","[""orange"",""purple"",""high nameability""]","right-left","[""purple"",""orange""]","6","high nameability","59","right","iti",""
"html-button-response","289","580165","0.0-214.0","CKN_128","128","","","","","","737","","0","purple","red","[""purple"",""red"",""high nameability""]","left-right","[""purple"",""red"",""high nameability""]","6","high nameability","60","left","trigger",""
"html-button-response","290","589144","0.0-215.0-0.0","CKN_128","128","","","","","","8973","<button class=""jspsych-btn""><img src=""stimuli/purple.png"" style=""width: 200px;height: 200px;""></button>","0","purple","red","[""purple"",""red"",""high nameability""]","left-right","[""purple"",""red"",""high nameability""]","6","high nameability","60","left","response","1"
"html-audio-button-response","291","589349","0.0-215.0-1.0","CKN_128","128","","","","","","null","stimuli/bleep.m4a","null","purple","red","[""purple"",""red"",""high nameability""]","left-right","[""purple"",""red"",""high nameability""]","6","high nameability","60","left","audio_feedback","1"
"html-button-response","292","589862","0.0-216.0","CKN_128","128","","","","","","null","<button class=""jspsych-btn""><img src=""stimuli/white_square.png"" style=""width: 200px;height: 200px;""></button>","null","purple","red","[""purple"",""red"",""high nameability""]","left-right","[""purple"",""red"",""high nameability""]","6","high nameability","60","left","iti",""
