"trial_type","trial_index","time_elapsed","internal_node_id","subject_id","seed","success","timeout","failed_images","failed_audio","failed_video","rt","stimulus","response","target","foil","choices","combination_order","choices_in_order","round","condition","trial_counter","target_location","trial_kind","correct"
"pavlovia","0","19","0.0-0.0","CKN_114","114","","","","","","","","","","","","","","","","","","",""
"preload","1","590","0.0-1.0","CKN_114","114","true","false","[]","[]","[]","","","","","","","","","","","","","",""
"fullscreen","2","2683","0.0-2.0","CKN_114","114","true","","","","","","","","","","","","","","","","","",""
"html-button-response","3","29010","0.0-3.0","CKN_114","114","","","","","","26310","","0","","","","","","","","","","",""
"html-button-response","4","51254","0.0-4.0","CKN_114","114","","","","","","22230","","0","star","square","[""square"",""star""]","left-right","[""square"",""star""]","1","practice","1","right","trigger",""
"html-button-response","5","58030","0.0-5.0-0.0","CKN_114","114","","","","","","6761","<button class=""jspsych-btn""><img src=""stimuli/star.png"" style=""width: 200px;height: 200px;""></button>","1","star","square","[""square"",""star""]","left-right","[""square"",""star""]","1","practice","1","right","response","1"
"html-audio-button-response","6","58243","0.0-5.0-1.0","CKN_114","114","","","","","","null","stimuli/bleep.m4a","null","star","square","[""square"",""star""]","left-right","[""square"",""star""]","1","practice","1","right","audio_feedback","1"
"html-button-response","7","58764","0.0-6.0","CKN_114","114","","","","","","null","<button class=""jspsych-btn""><img src=""stimuli/white_square.png"" style=""width: 200px;height: 200px;""></button>","null","star","square","[""square"",""star""]","left-right","[""square"",""star""]","1","practice","1","right","iti",""
"html-button-response","8","63593","0.0-7.0","CKN_114","114","","","","","","4815","","0","triangle","pentagram","[""triangle"",""pentagram""]","left-right","[""triangle"",""pentagram""]","1","practice","1","left","trigger",""
"html-button-response","9","72884","0.0-8.0-0.0","CKN_114","114","","","","","","9277","<button class=""jspsych-btn""><img src=""stimuli/triangle.png"" style=""width: 200px;height: 200px;""></button>","0","triangle","pentagram","[""triangle"",""pentagram""]","left-right","[""triangle"",""pentagram""]","1","practice","1","left","response","1"
"html-audio-button-response","10","73089","0.0-8.0-1.0","CKN_114","114","","","","","","null","stimuli/bleep.m4a","null","triangle","pentagram","[""triangle"",""pentagram""]","left-right","[""triangle"",""pentagram""]","1","practice","1","left","audio_feedback","1"
"html-button-response","11","73614","0.0-9.0","CKN_114","114","","","","","","null","<button class=""jspsych-btn""><img src=""stimuli/white_square.png"" style=""width: 200px;height: 200px;""></button>","null","triangle","pentagram","[""triangle"",""pentagram""]","left-right","[""triangle"",""pentagram""]","1","practice","1","left","iti",""
"html-button-response","12","80401","0.0-10.0","CKN_114","114","","","","","","6778","","0","diamond","rectangle","[""rectangle"",""diamond""]","left-right","[""rectangle"",""diamond""]","1","practice","1","right","trigger",""
"html-button-response","13","90941","0.0-11.0-0.0","CKN_114","114","","","","","","10530","<button class=""jspsych-btn""><img src=""stimuli/diamond.png"" style=""width: 200px;height: 200px;""></button>","1","diamond","rectangle","[""rectangle"",""diamond""]","left-right","[""rectangle"",""diamond""]","1","practice","1","right","response","1"
"html-audio-button-response","14","91147","0.0-11.0-1.0","CKN_114","114","","","","","","null","stimuli/bleep.m4a","null","diamond","rectangle","[""rectangle"",""diamond""]","left-right","[""rectangle"",""diamond""]","1","practice","1","right","audio_feedback","1"
"html-button-response","15","91669","0.0-12.0","CKN_114","114","","","","","","null","<button class=""jspsych-btn""><img src=""stimuli/white_square.png"" style=""width: 200px;height: 200px;""></button>","null","diamond","rectangle","[""rectangle"",""diamond""]","left-right","[""rectangle"",""diamond""]","1","practice","1","right","iti",""
"html-button-response","16","102055","0.0-13.0","CKN_114","114","","","","","","10369","","0","pentagram","star","[""pentagram"",""star""]","left-right","[""pentagram"",""star""]","1","practice","1","left","trigger",""
"html-button-response","17","110614","0.0-14.0-0.0","CKN_114","114","","","","","","8547","<button class=""jspsych-btn""><img src=""stimuli/pentagram.png"" style=""width: 200px;height: 200px;""></button>","0","pentagram","star","[""pentagram"",""star""]","left-right","[""pentagram"",""star""]","1","practice","1","left","response","1"
"html-audio-button-response","18","110822","0.0-14.0-1.0","CKN_114","114","","","","","","null","stimuli/bleep.m4a","null","pentagram","star","[""pentagram"",""star""]","left-right","[""pentagram"",""star""]","1","practice","1","left","audio_feedback","1"
"html-button-response","19","111353","0.0-15.0","CKN_114","114","","","","","","null","<button class=""jspsych-btn""><img src=""stimuli/white_square.png"" style=""width: 200px;height: 200px;""></button>","null","pentagram","star","[""pentagram"",""star""]","left-right","[""pentagram"",""star""]","1","practice","1","left","iti",""
"html-button-response","20","119651","0.0-16.0","CKN_114","114","","","","","","8287","","0","","","","","","","","","","",""
"html-button-response","21","123992","0.0-17.0","CKN_114","114","","","","","","4331","","0","pink","darkgreenblue","[""pink"",""darkgreenblue"",""low nameability""]","right-left","[""darkgreenblue"",""pink""]","1","low nameability","1","right","trigger",""
"html-button-response","22","128931","0.0-18.0-0.0","CKN_114","114","","","","","","4925","<button class=""jspsych-btn""><img src=""stimuli/pink.png"" style=""width: 200px;height: 200px;""></button>","1","pink","darkgreenblue","[""pink"",""darkgreenblue"",""low nameability""]","right-left","[""darkgreenblue"",""pink""]","1","low nameability","1","right","response","1"
"html-audio-button-response","23","129132","0.0-18.0-1.0","CKN_114","114","","","","","","null","stimuli/bleep.m4a","null","pink","darkgreenblue","[""pink"",""darkgreenblue"",""low nameability""]","right-left","[""darkgreenblue"",""pink""]","1","low nameability","1","right","audio_feedback","1"
"html-button-response","24","129651","0.0-19.0","CKN_114","114","","","","","","null","<button class=""jspsych-btn""><img src=""stimuli/white_square.png"" style=""width: 200px;height: 200px;""></button>","null","pink","darkgreenblue","[""pink"",""darkgreenblue"",""low nameability""]","right-left","[""darkgreenblue"",""pink""]","1","low nameability","1","right","iti",""
"html-button-response","25","139663","0.0-20.0","CKN_114","114","","","","","","10000","","0","neonyellow","darkgreenblue","[""neonyellow"",""darkgreenblue"",""low nameability""]","left-right","[""neonyellow"",""darkgreenblue"",""low nameability""]","1","low nameability","2","left","trigger",""
"html-button-response","26","147718","0.0-21.0-0.0","CKN_114","114","","","","","","8046","<button class=""jspsych-btn""><img src=""stimuli/neonyellow.png"" style=""width: 200px;height: 200px;""></button>","0","neonyellow","darkgreenblue","[""neonyellow"",""darkgreenblue"",""low nameability""]","left-right","[""neonyellow"",""darkgreenblue"",""low nameability""]","1","low nameability","2","left","response","1"
"html-audio-button-response","27","147923","0.0-21.0-1.0","CKN_114","114","","","","","","null","stimuli/bleep.m4a","null","neonyellow","darkgreenblue","[""neonyellow"",""darkgreenblue"",""low nameability""]","left-right","[""neonyellow"",""darkgreenblue"",""low nameability""]","1","low nameability","2","left","audio_feedback","1"
"html-button-response","28","148439","0.0-22.0","CKN_114","114","","","","","","null","<button class=""jspsych-btn""><img src=""stimuli/white_square.png"" style=""width: 200px;height: 200px;""></button>","null","neonyellow","darkgreenblue","[""neonyellow"",""darkgreenblue"",""low nameability""]","left-right","[""neonyellow"",""darkgreenblue"",""low nameability""]","1","low nameability","2","left","iti",""
"html-button-response","29","154375","0.0-23.0","CKN_114","114","","","","","","5923","","0","turquoise","darkgreenblue","[""turquoise"",""darkgreenblue"",""low nameability""]","left-right","[""turquoise"",""darkgreenblue"",""low nameability""]","1","low nameability","3","left","trigger",""
"html-button-response","30","159129","0.0-24.0-0.0","CKN_114","114","","","","","","4745","<button class=""jspsych-btn""><img src=""stimuli/turquoise.png"" style=""width: 200px;height: 200px;""></button>","0","turquoise","darkgreenblue","[""turquoise"",""darkgreenblue"",""low nameability""]","left-right","[""turquoise"",""darkgreenblue"",""low nameability""]","1","low nameability","3","left","response","1"
"html-audio-button-response","31","159333","0.0-24.0-1.0","CKN_114","114","","","","","","null","stimuli/bleep.m4a","null","turquoise","darkgreenblue","[""turquoise"",""darkgreenblue"",""low nameability""]","left-right","[""turquoise"",""darkgreenblue"",""low nameability""]","1","low nameability","3","left","audio_feedback","1"
"html-button-response","32","159851","0.0-25.0","CKN_114","114","","","","","","null","<button class=""jspsych-btn""><img src=""stimuli/white_square.png"" style=""width: 200px;height: 200px;""></button>","null","turquoise","darkgreenblue","[""turquoise"",""darkgreenblue"",""low nameability""]","left-right","[""turquoise"",""darkgreenblue"",""low nameability""]","1","low nameability","3","left","iti",""
"html-button-response","33","163970","0.0-26.0","CKN_114","114","","","","","","4104","","0","pink","turquoise","[""pink"",""turquoise"",""low nameability""]","right-left","[""turquoise"",""pink""]","1","low nameability","4","right","trigger",""
"html-button-response","34","170730","0.0-27.0-0.0","CKN_114","114","","","","","","6750","<button class=""jspsych-btn""><img src=""stimuli/pink.png"" style=""width: 200px;height: 200px;""></button>","1","pink","turquoise","[""pink"",""turquoise"",""low nameability""]","right-left","[""turquoise"",""pink""]","1","low nameability","4","right","response","1"
"html-audio-button-response","35","170938","0.0-27.0-1.0","CKN_114","114","","","","","","null","stimuli/bleep.m4a","null","pink","turquoise","[""pink"",""turquoise"",""low nameability""]","right-left","[""turquoise"",""pink""]","1","low nameability","4","right","audio_feedback","1"
"html-button-response","36","171452","0.0-28.0","CKN_114","114","","","","","","null","<button class=""jspsych-btn""><img src=""stimuli/white_square.png"" style=""width: 200px;height: 200px;""></button>","null","pink","turquoise","[""pink"",""turquoise"",""low nameability""]","right-left","[""turquoise"",""pink""]","1","low nameability","4","right","iti",""
"html-button-response","37","176659","0.0-29.0","CKN_114","114","","","","","","5193","","0","yellow","orange","[""yellow"",""orange"",""high nameability""]","left-right","[""yellow"",""orange"",""high nameability""]","1","high nameability","5","left","trigger",""
"html-button-response","38","181164","0.0-30.0-0.0","CKN_114","114","","","","","","4497","<button class=""jspsych-btn""><img src=""stimuli/yellow.png"" style=""width: 200px;height: 200px;""></button>","0","yellow","orange","[""yellow"",""orange"",""high nameability""]","left-right","[""yellow"",""orange"",""high nameability""]","1","high nameability","5","left","response","1"
"html-audio-button-response","39","181364","0.0-30.0-1.0","CKN_114","114","","","","","","null","stimuli/bleep.m4a","null","yellow","orange","[""yellow"",""orange"",""high nameability""]","left-right","[""yellow"",""orange"",""high nameability""]","1","high nameability","5","left","audio_feedback","1"
"html-button-response","40","181873","0.0-31.0","CKN_114","114","","","","","","243","<button class=""jspsych-btn""><img src=""stimuli/white_square.png"" style=""width: 200px;height: 200px;""></button>","0","yellow","orange","[""yellow"",""orange"",""high nameability""]","left-right","[""yellow"",""orange"",""high nameability""]","1","high nameability","5","left","iti",""
"html-button-response","41","188459","0.0-32.0","CKN_114","114","","","","","","6570","","0","blue","purple","[""blue"",""purple"",""high nameability""]","left-right","[""blue"",""purple"",""high nameability""]","1","high nameability","6","left","trigger",""
"html-button-response","42","194374","0.0-33.0-0.0","CKN_114","114","","","","","","5906","<button class=""jspsych-btn""><img src=""stimuli/blue.png"" style=""width: 200px;height: 200px;""></button>","0","blue","purple","[""blue"",""purple"",""high nameability""]","left-right","[""blue"",""purple"",""high nameability""]","1","high nameability","6","left","response","1"
"html-audio-button-response","43","194577","0.0-33.0-1.0","CKN_114","114","","","","","","null","stimuli/bleep.m4a","null","blue","purple","[""blue"",""purple"",""high nameability""]","left-right","[""blue"",""purple"",""high nameability""]","1","high nameability","6","left","audio_feedback","1"
"html-button-response","44","195087","0.0-34.0","CKN_114","114","","","","","","null","<button class=""jspsych-btn""><img src=""stimuli/white_square.png"" style=""width: 200px;height: 200px;""></button>","null","blue","purple","[""blue"",""purple"",""high nameability""]","left-right","[""blue"",""purple"",""high nameability""]","1","high nameability","6","left","iti",""
"html-button-response","45","204906","0.0-35.0","CKN_114","114","","","","","","9811","","0","neonyellow","pink","[""neonyellow"",""pink"",""low nameability""]","left-right","[""neonyellow"",""pink"",""low nameability""]","1","low nameability","7","left","trigger",""
"html-button-response","46","209809","0.0-36.0-0.0","CKN_114","114","","","","","","4897","<button class=""jspsych-btn""><img src=""stimuli/neonyellow.png"" style=""width: 200px;height: 200px;""></button>","0","neonyellow","pink","[""neonyellow"",""pink"",""low nameability""]","left-right","[""neonyellow"",""pink"",""low nameability""]","1","low nameability","7","left","response","1"
"html-audio-button-response","47","210016","0.0-36.0-1.0","CKN_114","114","","","","","","null","stimuli/bleep.m4a","null","neonyellow","pink","[""neonyellow"",""pink"",""low nameability""]","left-right","[""neonyellow"",""pink"",""low nameability""]","1","low nameability","7","left","audio_feedback","1"
"html-button-response","48","210526","0.0-37.0","CKN_114","114","","","","","","null","<button class=""jspsych-btn""><img src=""stimuli/white_square.png"" style=""width: 200px;height: 200px;""></button>","null","neonyellow","pink","[""neonyellow"",""pink"",""low nameability""]","left-right","[""neonyellow"",""pink"",""low nameability""]","1","low nameability","7","left","iti",""
"html-button-response","49","214255","0.0-38.0","CKN_114","114","","","","","","3723","","0","blue","brown","[""blue"",""brown"",""high nameability""]","right-left","[""brown"",""blue""]","1","high nameability","8","right","trigger",""
"html-button-response","50","221421","0.0-39.0-0.0","CKN_114","114","","","","","","7157","<button class=""jspsych-btn""><img src=""stimuli/blue.png"" style=""width: 200px;height: 200px;""></button>","1","blue","brown","[""blue"",""brown"",""high nameability""]","right-left","[""brown"",""blue""]","1","high nameability","8","right","response","1"
"html-audio-button-response","51","221627","0.0-39.0-1.0","CKN_114","114","","","","","","null","stimuli/bleep.m4a","null","blue","brown","[""blue"",""brown"",""high nameability""]","right-left","[""brown"",""blue""]","1","high nameability","8","right","audio_feedback","1"
"html-button-response","52","222135","0.0-40.0","CKN_114","114","","","","","","null","<button class=""jspsych-btn""><img src=""stimuli/white_square.png"" style=""width: 200px;height: 200px;""></button>","null","blue","brown","[""blue"",""brown"",""high nameability""]","right-left","[""brown"",""blue""]","1","high nameability","8","right","iti",""
"html-button-response","53","228436","0.0-41.0","CKN_114","114","","","","","","6292","","0","neonyellow","turquoise","[""neonyellow"",""turquoise"",""low nameability""]","left-right","[""neonyellow"",""turquoise"",""low nameability""]","1","low nameability","9","left","trigger",""
"html-button-response","54","230246","0.0-42.0-0.0","CKN_114","114","","","","","","1803","<button class=""jspsych-btn""><img src=""stimuli/neonyellow.png"" style=""width: 200px;height: 200px;""></button>","0","neonyellow","turquoise","[""neonyellow"",""turquoise"",""low nameability""]","left-right","[""neonyellow"",""turquoise"",""low nameability""]","1","low nameability","9","left","response","1"
"html-audio-button-response","55","230450","0.0-42.0-1.0","CKN_114","114","","","","","","null","stimuli/bleep.m4a","null","neonyellow","turquoise","[""neonyellow"",""turquoise"",""low nameability""]","left-right","[""neonyellow"",""turquoise"",""low nameability""]","1","low nameability","9","left","audio_feedback","1"
"html-button-response","56","230969","0.0-43.0","CKN_114","114","","","","","","null","<button class=""jspsych-btn""><img src=""stimuli/white_square.png"" style=""width: 200px;height: 200px;""></button>","null","neonyellow","turquoise","[""neonyellow"",""turquoise"",""low nameability""]","left-right","[""neonyellow"",""turquoise"",""low nameability""]","1","low nameability","9","left","iti",""
"html-button-response","57","240104","0.0-44.0","CKN_114","114","","","","","","9122","","0","orange","purple","[""orange"",""purple"",""high nameability""]","right-left","[""purple"",""orange""]","1","high nameability","10","right","trigger",""
"html-button-response","58","245692","0.0-45.0-0.0","CKN_114","114","","","","","","5580","<button class=""jspsych-btn""><img src=""stimuli/orange.png"" style=""width: 200px;height: 200px;""></button>","1","orange","purple","[""orange"",""purple"",""high nameability""]","right-left","[""purple"",""orange""]","1","high nameability","10","right","response","1"
"html-audio-button-response","59","245898","0.0-45.0-1.0","CKN_114","114","","","","","","null","stimuli/bleep.m4a","null","orange","purple","[""orange"",""purple"",""high nameability""]","right-left","[""purple"",""orange""]","1","high nameability","10","right","audio_feedback","1"
"html-button-response","60","246418","0.0-46.0","CKN_114","114","","","","","","null","<button class=""jspsych-btn""><img src=""stimuli/white_square.png"" style=""width: 200px;height: 200px;""></button>","null","orange","purple","[""orange"",""purple"",""high nameability""]","right-left","[""purple"",""orange""]","1","high nameability","10","right","iti",""
"pavlovia","61","246526","0.0-47.0","CKN_114","114","","","","","","","","","","","","","","","","","","",""
"pavlovia","62","246537","0.0-48.0","CKN_114","114","","","","","","","","","","","","","","","","","","",""
"html-audio-button-response","63","255189","0.0-49.0","CKN_114","114","","","","","","8765","stimuli/tada.m4a","0","","","","","","","","","","",""
"html-button-response","64","256888","0.0-50.0","CKN_114","114","","","","","","1694","","0","","","","","","","","","","",""
"html-button-response","65","260678","0.0-51.0","CKN_114","114","","","","","","3780","","0","yellow","blue","[""yellow"",""blue"",""high nameability""]","right-left","[""blue"",""yellow""]","2","high nameability","11","right","trigger",""
"html-button-response","66","264394","0.0-52.0-0.0","CKN_114","114","","","","","","3709","<button class=""jspsych-btn""><img src=""stimuli/yellow.png"" style=""width: 200px;height: 200px;""></button>","1","yellow","blue","[""yellow"",""blue"",""high nameability""]","right-left","[""blue"",""yellow""]","2","high nameability","11","right","response","1"
"html-audio-button-response","67","264597","0.0-52.0-1.0","CKN_114","114","","","","","","null","stimuli/bleep.m4a","null","yellow","blue","[""yellow"",""blue"",""high nameability""]","right-left","[""blue"",""yellow""]","2","high nameability","11","right","audio_feedback","1"
"html-button-response","68","265113","0.0-53.0","CKN_114","114","","","","","","null","<button class=""jspsych-btn""><img src=""stimuli/white_square.png"" style=""width: 200px;height: 200px;""></button>","null","yellow","blue","[""yellow"",""blue"",""high nameability""]","right-left","[""blue"",""yellow""]","2","high nameability","11","right","iti",""
"html-button-response","69","275687","0.0-54.0","CKN_114","114","","","","","","10552","","0","brown","blue","[""brown"",""blue"",""high nameability""]","right-left","[""blue"",""brown""]","2","high nameability","12","right","trigger",""
"html-button-response","70","278027","0.0-55.0-0.0","CKN_114","114","","","","","","2327","<button class=""jspsych-btn""><img src=""stimuli/brown.png"" style=""width: 200px;height: 200px;""></button>","1","brown","blue","[""brown"",""blue"",""high nameability""]","right-left","[""blue"",""brown""]","2","high nameability","12","right","response","1"
"html-audio-button-response","71","278240","0.0-55.0-1.0","CKN_114","114","","","","","","null","stimuli/bleep.m4a","null","brown","blue","[""brown"",""blue"",""high nameability""]","right-left","[""blue"",""brown""]","2","high nameability","12","right","audio_feedback","1"
"html-button-response","72","278754","0.0-56.0","CKN_114","114","","","","","","null","<button class=""jspsych-btn""><img src=""stimuli/white_square.png"" style=""width: 200px;height: 200px;""></button>","null","brown","blue","[""brown"",""blue"",""high nameability""]","right-left","[""blue"",""brown""]","2","high nameability","12","right","iti",""
"html-button-response","73","285780","0.0-57.0","CKN_114","114","","","","","","7013","","0","red","brown","[""red"",""brown"",""high nameability""]","right-left","[""brown"",""red""]","2","high nameability","13","right","trigger",""
"html-button-response","74","289247","0.0-58.0-0.0","CKN_114","114","","","","","","3458","<button class=""jspsych-btn""><img src=""stimuli/red.png"" style=""width: 200px;height: 200px;""></button>","1","red","brown","[""red"",""brown"",""high nameability""]","right-left","[""brown"",""red""]","2","high nameability","13","right","response","1"
"html-audio-button-response","75","289451","0.0-58.0-1.0","CKN_114","114","","","","","","null","stimuli/bleep.m4a","null","red","brown","[""red"",""brown"",""high nameability""]","right-left","[""brown"",""red""]","2","high nameability","13","right","audio_feedback","1"
"html-button-response","76","289964","0.0-59.0","CKN_114","114","","","","","","null","<button class=""jspsych-btn""><img src=""stimuli/white_square.png"" style=""width: 200px;height: 200px;""></button>","null","red","brown","[""red"",""brown"",""high nameability""]","right-left","[""brown"",""red""]","2","high nameability","13","right","iti",""
"html-button-response","77","295286","0.0-60.0","CKN_114","114","","","","","","5310","","0","darkgreenblue","pink","[""darkgreenblue"",""pink"",""low nameability""]","right-left","[""pink"",""darkgreenblue""]","2","low nameability","14","right","trigger",""
"html-button-response","78","300276","0.0-61.0-0.0","CKN_114","114","","","","","","4983","<button class=""jspsych-btn""><img src=""stimuli/darkgreenblue.png"" style=""width: 200px;height: 200px;""></button>","1","darkgreenblue","pink","[""darkgreenblue"",""pink"",""low nameability""]","right-left","[""pink"",""darkgreenblue""]","2","low nameability","14","right","response","1"
"html-audio-button-response","79","300479","0.0-61.0-1.0","CKN_114","114","","","","","","null","stimuli/bleep.m4a","null","darkgreenblue","pink","[""darkgreenblue"",""pink"",""low nameability""]","right-left","[""pink"",""darkgreenblue""]","2","low nameability","14","right","audio_feedback","1"
"html-button-response","80","300988","0.0-62.0","CKN_114","114","","","","","","236","<button class=""jspsych-btn""><img src=""stimuli/white_square.png"" style=""width: 200px;height: 200px;""></button>","1","darkgreenblue","pink","[""darkgreenblue"",""pink"",""low nameability""]","right-left","[""pink"",""darkgreenblue""]","2","low nameability","14","right","iti",""
"html-button-response","81","309654","0.0-63.0","CKN_114","114","","","","","","8653","","0","brown","red","[""brown"",""red"",""high nameability""]","right-left","[""red"",""brown""]","2","high nameability","15","right","trigger",""
"html-button-response","82","313527","0.0-64.0-0.0","CKN_114","114","","","","","","3859","<button class=""jspsych-btn""><img src=""stimuli/brown.png"" style=""width: 200px;height: 200px;""></button>","1","brown","red","[""brown"",""red"",""high nameability""]","right-left","[""red"",""brown""]","2","high nameability","15","right","response","1"
"html-audio-button-response","83","313736","0.0-64.0-1.0","CKN_114","114","","","","","","null","stimuli/bleep.m4a","null","brown","red","[""brown"",""red"",""high nameability""]","right-left","[""red"",""brown""]","2","high nameability","15","right","audio_feedback","1"
"html-button-response","84","314247","0.0-65.0","CKN_114","114","","","","","","null","<button class=""jspsych-btn""><img src=""stimuli/white_square.png"" style=""width: 200px;height: 200px;""></button>","null","brown","red","[""brown"",""red"",""high nameability""]","right-left","[""red"",""brown""]","2","high nameability","15","right","iti",""
"html-button-response","85","320736","0.0-66.0","CKN_114","114","","","","","","6484","","0","darkgreenblue","mustard","[""darkgreenblue"",""mustard"",""low nameability""]","right-left","[""mustard"",""darkgreenblue""]","2","low nameability","16","right","trigger",""
"html-button-response","86","329454","0.0-67.0-0.0","CKN_114","114","","","","","","8711","<button class=""jspsych-btn""><img src=""stimuli/darkgreenblue.png"" style=""width: 200px;height: 200px;""></button>","1","darkgreenblue","mustard","[""darkgreenblue"",""mustard"",""low nameability""]","right-left","[""mustard"",""darkgreenblue""]","2","low nameability","16","right","response","1"
"html-audio-button-response","87","329658","0.0-67.0-1.0","CKN_114","114","","","","","","null","stimuli/bleep.m4a","null","darkgreenblue","mustard","[""darkgreenblue"",""mustard"",""low nameability""]","right-left","[""mustard"",""darkgreenblue""]","2","low nameability","16","right","audio_feedback","1"
"html-button-response","88","330171","0.0-68.0","CKN_114","114","","","","","","null","<button class=""jspsych-btn""><img src=""stimuli/white_square.png"" style=""width: 200px;height: 200px;""></button>","null","darkgreenblue","mustard","[""darkgreenblue"",""mustard"",""low nameability""]","right-left","[""mustard"",""darkgreenblue""]","2","low nameability","16","right","iti",""
"html-button-response","89","333691","0.0-69.0","CKN_114","114","","","","","","3500","","0","turquoise","mustard","[""turquoise"",""mustard"",""low nameability""]","left-right","[""turquoise"",""mustard"",""low nameability""]","2","low nameability","17","left","trigger",""
"html-button-response","90","336891","0.0-70.0-0.0","CKN_114","114","","","","","","3191","<button class=""jspsych-btn""><img src=""stimuli/turquoise.png"" style=""width: 200px;height: 200px;""></button>","0","turquoise","mustard","[""turquoise"",""mustard"",""low nameability""]","left-right","[""turquoise"",""mustard"",""low nameability""]","2","low nameability","17","left","response","1"
"html-audio-button-response","91","337092","0.0-70.0-1.0","CKN_114","114","","","","","","null","stimuli/bleep.m4a","null","turquoise","mustard","[""turquoise"",""mustard"",""low nameability""]","left-right","[""turquoise"",""mustard"",""low nameability""]","2","low nameability","17","left","audio_feedback","1"
"html-button-response","92","337612","0.0-71.0","CKN_114","114","","","","","","null","<button class=""jspsych-btn""><img src=""stimuli/white_square.png"" style=""width: 200px;height: 200px;""></button>","null","turquoise","mustard","[""turquoise"",""mustard"",""low nameability""]","left-right","[""turquoise"",""mustard"",""low nameability""]","2","low nameability","17","left","iti",""
"html-button-response","93","339318","0.0-72.0","CKN_114","114","","","","","","1695","","0","purple","blue","[""purple"",""blue"",""high nameability""]","left-right","[""purple"",""blue"",""high nameability""]","2","high nameability","18","left","trigger",""
"html-button-response","94","341994","0.0-73.0-0.0","CKN_114","114","","","","","","2667","<button class=""jspsych-btn""><img src=""stimuli/purple.png"" style=""width: 200px;height: 200px;""></button>","0","purple","blue","[""purple"",""blue"",""high nameability""]","left-right","[""purple"",""blue"",""high nameability""]","2","high nameability","18","left","response","1"
"html-audio-button-response","95","342202","0.0-73.0-1.0","CKN_114","114","","","","","","null","stimuli/bleep.m4a","null","purple","blue","[""purple"",""blue"",""high nameability""]","left-right","[""purple"",""blue"",""high nameability""]","2","high nameability","18","left","audio_feedback","1"
"html-button-response","96","342714","0.0-74.0","CKN_114","114","","","","","","null","<button class=""jspsych-btn""><img src=""stimuli/white_square.png"" style=""width: 200px;height: 200px;""></button>","null","purple","blue","[""purple"",""blue"",""high nameability""]","left-right","[""purple"",""blue"",""high nameability""]","2","high nameability","18","left","iti",""
"html-button-response","97","346191","0.0-75.0","CKN_114","114","","","","","","3466","","0","brown","purple","[""brown"",""purple"",""high nameability""]","right-left","[""purple"",""brown""]","2","high nameability","19","right","trigger",""
"html-button-response","98","355120","0.0-76.0-0.0","CKN_114","114","","","","","","8918","<button class=""jspsych-btn""><img src=""stimuli/brown.png"" style=""width: 200px;height: 200px;""></button>","1","brown","purple","[""brown"",""purple"",""high nameability""]","right-left","[""purple"",""brown""]","2","high nameability","19","right","response","1"
"html-audio-button-response","99","355320","0.0-76.0-1.0","CKN_114","114","","","","","","null","stimuli/bleep.m4a","null","brown","purple","[""brown"",""purple"",""high nameability""]","right-left","[""purple"",""brown""]","2","high nameability","19","right","audio_feedback","1"
"html-button-response","100","355833","0.0-77.0","CKN_114","114","","","","","","null","<button class=""jspsych-btn""><img src=""stimuli/white_square.png"" style=""width: 200px;height: 200px;""></button>","null","brown","purple","[""brown"",""purple"",""high nameability""]","right-left","[""purple"",""brown""]","2","high nameability","19","right","iti",""
"html-button-response","101","357413","0.0-78.0","CKN_114","114","","","","","","1560","","0","mustard","lightred","[""mustard"",""lightred"",""low nameability""]","left-right","[""mustard"",""lightred"",""low nameability""]","2","low nameability","20","left","trigger",""
"html-button-response","102","365587","0.0-79.0-0.0","CKN_114","114","","","","","","8164","<button class=""jspsych-btn""><img src=""stimuli/mustard.png"" style=""width: 200px;height: 200px;""></button>","0","mustard","lightred","[""mustard"",""lightred"",""low nameability""]","left-right","[""mustard"",""lightred"",""low nameability""]","2","low nameability","20","left","response","1"
"html-audio-button-response","103","365785","0.0-79.0-1.0","CKN_114","114","","","","","","null","stimuli/bleep.m4a","null","mustard","lightred","[""mustard"",""lightred"",""low nameability""]","left-right","[""mustard"",""lightred"",""low nameability""]","2","low nameability","20","left","audio_feedback","1"
"html-button-response","104","366295","0.0-80.0","CKN_114","114","","","","","","null","<button class=""jspsych-btn""><img src=""stimuli/white_square.png"" style=""width: 200px;height: 200px;""></button>","null","mustard","lightred","[""mustard"",""lightred"",""low nameability""]","left-right","[""mustard"",""lightred"",""low nameability""]","2","low nameability","20","left","iti",""
"pavlovia","105","366353","0.0-81.0","CKN_114","114","","","","","","","","","","","","","","","","","","",""
"pavlovia","106","366363","0.0-82.0","CKN_114","114","","","","","","","","","","","","","","","","","","",""
"html-audio-button-response","107","371541","0.0-83.0","CKN_114","114","","","","","","5232","stimuli/tada.m4a","0","","","","","","","","","","",""
"html-button-response","108","373051","0.0-84.0","CKN_114","114","","","","","","1506","","0","","","","","","","","","","",""
"html-button-response","109","375374","0.0-85.0","CKN_114","114","","","","","","2317","","0","red","orange","[""red"",""orange"",""high nameability""]","left-right","[""red"",""orange"",""high nameability""]","3","high nameability","21","left","trigger",""
"html-button-response","110","384975","0.0-86.0-0.0","CKN_114","114","","","","","","9592","<button class=""jspsych-btn""><img src=""stimuli/red.png"" style=""width: 200px;height: 200px;""></button>","0","red","orange","[""red"",""orange"",""high nameability""]","left-right","[""red"",""orange"",""high nameability""]","3","high nameability","21","left","response","1"
"html-audio-button-response","111","385185","0.0-86.0-1.0","CKN_114","114","","","","","","null","stimuli/bleep.m4a","null","red","orange","[""red"",""orange"",""high nameability""]","left-right","[""red"",""orange"",""high nameability""]","3","high nameability","21","left","audio_feedback","1"
"html-button-response","112","385698","0.0-87.0","CKN_114","114","","","","","","247","<button class=""jspsych-btn""><img src=""stimuli/white_square.png"" style=""width: 200px;height: 200px;""></button>","0","red","orange","[""red"",""orange"",""high nameability""]","left-right","[""red"",""orange"",""high nameability""]","3","high nameability","21","left","iti",""
"html-button-response","113","387345","0.0-88.0","CKN_114","114","","","","","","1635","","0","brown","yellow","[""brown"",""yellow"",""high nameability""]","right-left","[""yellow"",""brown""]","3","high nameability","22","right","trigger",""
"html-button-response","114","389713","0.0-89.0-0.0","CKN_114","114","","","","","","2360","<button class=""jspsych-btn""><img src=""stimuli/brown.png"" style=""width: 200px;height: 200px;""></button>","1","brown","yellow","[""brown"",""yellow"",""high nameability""]","right-left","[""yellow"",""brown""]","3","high nameability","22","right","response","1"
"html-audio-button-response","115","389915","0.0-89.0-1.0","CKN_114","114","","","","","","null","stimuli/bleep.m4a","null","brown","yellow","[""brown"",""yellow"",""high nameability""]","right-left","[""yellow"",""brown""]","3","high nameability","22","right","audio_feedback","1"
"html-button-response","116","390428","0.0-90.0","CKN_114","114","","","","","","null","<button class=""jspsych-btn""><img src=""stimuli/white_square.png"" style=""width: 200px;height: 200px;""></button>","null","brown","yellow","[""brown"",""yellow"",""high nameability""]","right-left","[""yellow"",""brown""]","3","high nameability","22","right","iti",""
"html-button-response","117","391411","0.0-91.0","CKN_114","114","","","","","","975","","0","yellow","purple","[""yellow"",""purple"",""high nameability""]","left-right","[""yellow"",""purple"",""high nameability""]","3","high nameability","23","left","trigger",""
"html-button-response","118","395705","0.0-92.0-0.0","CKN_114","114","","","","","","4286","<button class=""jspsych-btn""><img src=""stimuli/yellow.png"" style=""width: 200px;height: 200px;""></button>","0","yellow","purple","[""yellow"",""purple"",""high nameability""]","left-right","[""yellow"",""purple"",""high nameability""]","3","high nameability","23","left","response","1"
"html-audio-button-response","119","395907","0.0-92.0-1.0","CKN_114","114","","","","","","null","stimuli/bleep.m4a","null","yellow","purple","[""yellow"",""purple"",""high nameability""]","left-right","[""yellow"",""purple"",""high nameability""]","3","high nameability","23","left","audio_feedback","1"
"html-button-response","120","396417","0.0-93.0","CKN_114","114","","","","","","192","<button class=""jspsych-btn""><img src=""stimuli/white_square.png"" style=""width: 200px;height: 200px;""></button>","0","yellow","purple","[""yellow"",""purple"",""high nameability""]","left-right","[""yellow"",""purple"",""high nameability""]","3","high nameability","23","left","iti",""
"html-button-response","121","397402","0.0-94.0","CKN_114","114","","","","","","976","","0","red","purple","[""red"",""purple"",""high nameability""]","right-left","[""purple"",""red""]","3","high nameability","24","right","trigger",""
"html-button-response","122","402613","0.0-95.0-0.0","CKN_114","114","","","","","","5204","<button class=""jspsych-btn""><img src=""stimuli/red.png"" style=""width: 200px;height: 200px;""></button>","1","red","purple","[""red"",""purple"",""high nameability""]","right-left","[""purple"",""red""]","3","high nameability","24","right","response","1"
"html-audio-button-response","123","402818","0.0-95.0-1.0","CKN_114","114","","","","","","null","stimuli/bleep.m4a","null","red","purple","[""red"",""purple"",""high nameability""]","right-left","[""purple"",""red""]","3","high nameability","24","right","audio_feedback","1"
"html-button-response","124","403335","0.0-96.0","CKN_114","114","","","","","","null","<button class=""jspsych-btn""><img src=""stimuli/white_square.png"" style=""width: 200px;height: 200px;""></button>","null","red","purple","[""red"",""purple"",""high nameability""]","right-left","[""purple"",""red""]","3","high nameability","24","right","iti",""
"html-button-response","125","404376","0.0-97.0","CKN_114","114","","","","","","1026","","0","blue","yellow","[""blue"",""yellow"",""high nameability""]","left-right","[""blue"",""yellow"",""high nameability""]","3","high nameability","25","left","trigger",""
"html-button-response","126","405786","0.0-98.0-0.0","CKN_114","114","","","","","","1402","<button class=""jspsych-btn""><img src=""stimuli/blue.png"" style=""width: 200px;height: 200px;""></button>","0","blue","yellow","[""blue"",""yellow"",""high nameability""]","left-right","[""blue"",""yellow"",""high nameability""]","3","high nameability","25","left","response","1"
"html-audio-button-response","127","405988","0.0-98.0-1.0","CKN_114","114","","","","","","null","stimuli/bleep.m4a","null","blue","yellow","[""blue"",""yellow"",""high nameability""]","left-right","[""blue"",""yellow"",""high nameability""]","3","high nameability","25","left","audio_feedback","1"
"html-button-response","128","406503","0.0-99.0","CKN_114","114","","","","","","null","<button class=""jspsych-btn""><img src=""stimuli/white_square.png"" style=""width: 200px;height: 200px;""></button>","null","blue","yellow","[""blue"",""yellow"",""high nameability""]","left-right","[""blue"",""yellow"",""high nameability""]","3","high nameability","25","left","iti",""
"html-button-response","129","407308","0.0-100.0","CKN_114","114","","","","","","792","","0","lightred","neonyellow","[""lightred"",""neonyellow"",""low nameability""]","left-right","[""lightred"",""neonyellow"",""low nameability""]","3","low nameability","26","left","trigger",""
"html-button-response","130","408887","0.0-101.0-0.0","CKN_114","114","","","","","","1572","<button class=""jspsych-btn""><img src=""stimuli/lightred.png"" style=""width: 200px;height: 200px;""></button>","0","lightred","neonyellow","[""lightred"",""neonyellow"",""low nameability""]","left-right","[""lightred"",""neonyellow"",""low nameability""]","3","low nameability","26","left","response","1"
"html-audio-button-response","131","409090","0.0-101.0-1.0","CKN_114","114","","","","","","null","stimuli/bleep.m4a","null","lightred","neonyellow","[""lightred"",""neonyellow"",""low nameability""]","left-right","[""lightred"",""neonyellow"",""low nameability""]","3","low nameability","26","left","audio_feedback","1"
"html-button-response","132","409602","0.0-102.0","CKN_114","114","","","","","","null","<button class=""jspsych-btn""><img src=""stimuli/white_square.png"" style=""width: 200px;height: 200px;""></button>","null","lightred","neonyellow","[""lightred"",""neonyellow"",""low nameability""]","left-right","[""lightred"",""neonyellow"",""low nameability""]","3","low nameability","26","left","iti",""
"html-button-response","133","410151","0.0-103.0","CKN_114","114","","","","","","535","","0","brown","orange","[""brown"",""orange"",""high nameability""]","right-left","[""orange"",""brown""]","3","high nameability","27","right","trigger",""
"html-button-response","134","413675","0.0-104.0-0.0","CKN_114","114","","","","","","3517","<button class=""jspsych-btn""><img src=""stimuli/brown.png"" style=""width: 200px;height: 200px;""></button>","1","brown","orange","[""brown"",""orange"",""high nameability""]","right-left","[""orange"",""brown""]","3","high nameability","27","right","response","1"
"html-audio-button-response","135","413878","0.0-104.0-1.0","CKN_114","114","","","","","","null","stimuli/bleep.m4a","null","brown","orange","[""brown"",""orange"",""high nameability""]","right-left","[""orange"",""brown""]","3","high nameability","27","right","audio_feedback","1"
"html-button-response","136","414386","0.0-105.0","CKN_114","114","","","","","","null","<button class=""jspsych-btn""><img src=""stimuli/white_square.png"" style=""width: 200px;height: 200px;""></button>","null","brown","orange","[""brown"",""orange"",""high nameability""]","right-left","[""orange"",""brown""]","3","high nameability","27","right","iti",""
"html-button-response","137","415118","0.0-106.0","CKN_114","114","","","","","","726","","0","darkgreenblue","turquoise","[""darkgreenblue"",""turquoise"",""low nameability""]","right-left","[""turquoise"",""darkgreenblue""]","3","low nameability","28","right","trigger",""
"html-button-response","138","418383","0.0-107.0-0.0","CKN_114","114","","","","","","3256","<button class=""jspsych-btn""><img src=""stimuli/darkgreenblue.png"" style=""width: 200px;height: 200px;""></button>","1","darkgreenblue","turquoise","[""darkgreenblue"",""turquoise"",""low nameability""]","right-left","[""turquoise"",""darkgreenblue""]","3","low nameability","28","right","response","1"
"html-audio-button-response","139","418591","0.0-107.0-1.0","CKN_114","114","","","","","","null","stimuli/bleep.m4a","null","darkgreenblue","turquoise","[""darkgreenblue"",""turquoise"",""low nameability""]","right-left","[""turquoise"",""darkgreenblue""]","3","low nameability","28","right","audio_feedback","1"
"html-button-response","140","419101","0.0-108.0","CKN_114","114","","","","","","346","<button class=""jspsych-btn""><img src=""stimuli/white_square.png"" style=""width: 200px;height: 200px;""></button>","1","darkgreenblue","turquoise","[""darkgreenblue"",""turquoise"",""low nameability""]","right-left","[""turquoise"",""darkgreenblue""]","3","low nameability","28","right","iti",""
"html-button-response","141","420642","0.0-109.0","CKN_114","114","","","","","","1530","","0","lightred","pink","[""lightred"",""pink"",""low nameability""]","left-right","[""lightred"",""pink"",""low nameability""]","3","low nameability","29","left","trigger",""
"html-button-response","142","428639","0.0-110.0-0.0","CKN_114","114","","","","","","7987","<button class=""jspsych-btn""><img src=""stimuli/lightred.png"" style=""width: 200px;height: 200px;""></button>","0","lightred","pink","[""lightred"",""pink"",""low nameability""]","left-right","[""lightred"",""pink"",""low nameability""]","3","low nameability","29","left","response","1"
"html-audio-button-response","143","428843","0.0-110.0-1.0","CKN_114","114","","","","","","null","stimuli/bleep.m4a","null","lightred","pink","[""lightred"",""pink"",""low nameability""]","left-right","[""lightred"",""pink"",""low nameability""]","3","low nameability","29","left","audio_feedback","1"
"html-button-response","144","429354","0.0-111.0","CKN_114","114","","","","","","77","<button class=""jspsych-btn""><img src=""stimuli/white_square.png"" style=""width: 200px;height: 200px;""></button>","0","lightred","pink","[""lightred"",""pink"",""low nameability""]","left-right","[""lightred"",""pink"",""low nameability""]","3","low nameability","29","left","iti",""
"html-button-response","145","430516","0.0-112.0","CKN_114","114","","","","","","1154","","0","mustard","turquoise","[""mustard"",""turquoise"",""low nameability""]","left-right","[""mustard"",""turquoise"",""low nameability""]","3","low nameability","30","left","trigger",""
"html-button-response","146","432810","0.0-113.0-0.0","CKN_114","114","","","","","","2287","<button class=""jspsych-btn""><img src=""stimuli/mustard.png"" style=""width: 200px;height: 200px;""></button>","0","mustard","turquoise","[""mustard"",""turquoise"",""low nameability""]","left-right","[""mustard"",""turquoise"",""low nameability""]","3","low nameability","30","left","response","1"
"html-audio-button-response","147","433012","0.0-113.0-1.0","CKN_114","114","","","","","","null","stimuli/bleep.m4a","null","mustard","turquoise","[""mustard"",""turquoise"",""low nameability""]","left-right","[""mustard"",""turquoise"",""low nameability""]","3","low nameability","30","left","audio_feedback","1"
"html-button-response","148","433523","0.0-114.0","CKN_114","114","","","","","","null","<button class=""jspsych-btn""><img src=""stimuli/white_square.png"" style=""width: 200px;height: 200px;""></button>","null","mustard","turquoise","[""mustard"",""turquoise"",""low nameability""]","left-right","[""mustard"",""turquoise"",""low nameability""]","3","low nameability","30","left","iti",""
"pavlovia","149","433563","0.0-115.0","CKN_114","114","","","","","","","","","","","","","","","","","","",""
"pavlovia","150","433568","0.0-116.0","CKN_114","114","","","","","","","","","","","","","","","","","","",""
"html-audio-button-response","151","439093","0.0-117.0","CKN_114","114","","","","","","5547","stimuli/tada.m4a","0","","","","","","","","","","",""
"html-button-response","152","441885","0.0-118.0","CKN_114","114","","","","","","2785","","0","","","","","","","","","","",""
"html-button-response","153","443181","0.0-119.0","CKN_114","114","","","","","","1282","","0","red","blue","[""red"",""blue"",""high nameability""]","right-left","[""blue"",""red""]","4","high nameability","31","right","trigger",""
"html-button-response","154","446965","0.0-120.0-0.0","CKN_114","114","","","","","","3776","<button class=""jspsych-btn""><img src=""stimuli/red.png"" style=""width: 200px;height: 200px;""></button>","1","red","blue","[""red"",""blue"",""high nameability""]","right-left","[""blue"",""red""]","4","high nameability","31","right","response","1"
"html-audio-button-response","155","447172","0.0-120.0-1.0","CKN_114","114","","","","","","null","stimuli/bleep.m4a","null","red","blue","[""red"",""blue"",""high nameability""]","right-left","[""blue"",""red""]","4","high nameability","31","right","audio_feedback","1"
"html-button-response","156","447686","0.0-121.0","CKN_114","114","","","","","","null","<button class=""jspsych-btn""><img src=""stimuli/white_square.png"" style=""width: 200px;height: 200px;""></button>","null","red","blue","[""red"",""blue"",""high nameability""]","right-left","[""blue"",""red""]","4","high nameability","31","right","iti",""
"html-button-response","157","448977","0.0-122.0","CKN_114","114","","","","","","1284","","0","mustard","darkgreenblue","[""mustard"",""darkgreenblue"",""low nameability""]","left-right","[""mustard"",""darkgreenblue"",""low nameability""]","4","low nameability","32","left","trigger",""
"html-button-response","158","451813","0.0-123.0-0.0","CKN_114","114","","","","","","2821","<button class=""jspsych-btn""><img src=""stimuli/mustard.png"" style=""width: 200px;height: 200px;""></button>","0","mustard","darkgreenblue","[""mustard"",""darkgreenblue"",""low nameability""]","left-right","[""mustard"",""darkgreenblue"",""low nameability""]","4","low nameability","32","left","response","1"
"html-audio-button-response","159","452016","0.0-123.0-1.0","CKN_114","114","","","","","","null","stimuli/bleep.m4a","null","mustard","darkgreenblue","[""mustard"",""darkgreenblue"",""low nameability""]","left-right","[""mustard"",""darkgreenblue"",""low nameability""]","4","low nameability","32","left","audio_feedback","1"
"html-button-response","160","452527","0.0-124.0","CKN_114","114","","","","","","null","<button class=""jspsych-btn""><img src=""stimuli/white_square.png"" style=""width: 200px;height: 200px;""></button>","null","mustard","darkgreenblue","[""mustard"",""darkgreenblue"",""low nameability""]","left-right","[""mustard"",""darkgreenblue"",""low nameability""]","4","low nameability","32","left","iti",""
"html-button-response","161","453459","0.0-125.0","CKN_114","114","","","","","","926","","0","purple","red","[""purple"",""red"",""high nameability""]","right-left","[""red"",""purple""]","4","high nameability","33","right","trigger",""
"html-button-response","162","455504","0.0-126.0-0.0","CKN_114","114","","","","","","2037","<button class=""jspsych-btn""><img src=""stimuli/purple.png"" style=""width: 200px;height: 200px;""></button>","1","purple","red","[""purple"",""red"",""high nameability""]","right-left","[""red"",""purple""]","4","high nameability","33","right","response","1"
"html-audio-button-response","163","455714","0.0-126.0-1.0","CKN_114","114","","","","","","null","stimuli/bleep.m4a","null","purple","red","[""purple"",""red"",""high nameability""]","right-left","[""red"",""purple""]","4","high nameability","33","right","audio_feedback","1"
"html-button-response","164","456226","0.0-127.0","CKN_114","114","","","","","","null","<button class=""jspsych-btn""><img src=""stimuli/white_square.png"" style=""width: 200px;height: 200px;""></button>","null","purple","red","[""purple"",""red"",""high nameability""]","right-left","[""red"",""purple""]","4","high nameability","33","right","iti",""
"html-button-response","165","457082","0.0-128.0","CKN_114","114","","","","","","849","","0","blue","red","[""blue"",""red"",""high nameability""]","left-right","[""blue"",""red"",""high nameability""]","4","high nameability","34","left","trigger",""
"html-button-response","166","459992","0.0-129.0-0.0","CKN_114","114","","","","","","2899","<button class=""jspsych-btn""><img src=""stimuli/blue.png"" style=""width: 200px;height: 200px;""></button>","0","blue","red","[""blue"",""red"",""high nameability""]","left-right","[""blue"",""red"",""high nameability""]","4","high nameability","34","left","response","1"
"html-audio-button-response","167","460196","0.0-129.0-1.0","CKN_114","114","","","","","","null","stimuli/bleep.m4a","null","blue","red","[""blue"",""red"",""high nameability""]","left-right","[""blue"",""red"",""high nameability""]","4","high nameability","34","left","audio_feedback","1"
"html-button-response","168","460713","0.0-130.0","CKN_114","114","","","","","","34","<button class=""jspsych-btn""><img src=""stimuli/white_square.png"" style=""width: 200px;height: 200px;""></button>","0","blue","red","[""blue"",""red"",""high nameability""]","left-right","[""blue"",""red"",""high nameability""]","4","high nameability","34","left","iti",""
"html-button-response","169","461493","0.0-131.0","CKN_114","114","","","","","","764","","0","purple","brown","[""purple"",""brown"",""high nameability""]","right-left","[""brown"",""purple""]","4","high nameability","35","right","trigger",""
"html-button-response","170","463596","0.0-132.0-0.0","CKN_114","114","","","","","","2094","<button class=""jspsych-btn""><img src=""stimuli/purple.png"" style=""width: 200px;height: 200px;""></button>","1","purple","brown","[""purple"",""brown"",""high nameability""]","right-left","[""brown"",""purple""]","4","high nameability","35","right","response","1"
"html-audio-button-response","171","463803","0.0-132.0-1.0","CKN_114","114","","","","","","null","stimuli/bleep.m4a","null","purple","brown","[""purple"",""brown"",""high nameability""]","right-left","[""brown"",""purple""]","4","high nameability","35","right","audio_feedback","1"
"html-button-response","172","464312","0.0-133.0","CKN_114","114","","","","","","null","<button class=""jspsych-btn""><img src=""stimuli/white_square.png"" style=""width: 200px;height: 200px;""></button>","null","purple","brown","[""purple"",""brown"",""high nameability""]","right-left","[""brown"",""purple""]","4","high nameability","35","right","iti",""
"html-button-response","173","465327","0.0-134.0","CKN_114","114","","","","","","1008","","0","orange","blue","[""orange"",""blue"",""high nameability""]","right-left","[""blue"",""orange""]","4","high nameability","36","right","trigger",""
"html-button-response","174","466967","0.0-135.0-0.0","CKN_114","114","","","","","","1634","<button class=""jspsych-btn""><img src=""stimuli/orange.png"" style=""width: 200px;height: 200px;""></button>","1","orange","blue","[""orange"",""blue"",""high nameability""]","right-left","[""blue"",""orange""]","4","high nameability","36","right","response","1"
"html-audio-button-response","175","467168","0.0-135.0-1.0","CKN_114","114","","","","","","null","stimuli/bleep.m4a","null","orange","blue","[""orange"",""blue"",""high nameability""]","right-left","[""blue"",""orange""]","4","high nameability","36","right","audio_feedback","1"
"html-button-response","176","467679","0.0-136.0","CKN_114","114","","","","","","281","<button class=""jspsych-btn""><img src=""stimuli/white_square.png"" style=""width: 200px;height: 200px;""></button>","1","orange","blue","[""orange"",""blue"",""high nameability""]","right-left","[""blue"",""orange""]","4","high nameability","36","right","iti",""
"html-button-response","177","468522","0.0-137.0","CKN_114","114","","","","","","829","","0","pink","lightred","[""pink"",""lightred"",""low nameability""]","right-left","[""lightred"",""pink""]","4","low nameability","37","right","trigger",""
"html-button-response","178","474048","0.0-138.0-0.0","CKN_114","114","","","","","","5522","<button class=""jspsych-btn""><img src=""stimuli/pink.png"" style=""width: 200px;height: 200px;""></button>","1","pink","lightred","[""pink"",""lightred"",""low nameability""]","right-left","[""lightred"",""pink""]","4","low nameability","37","right","response","1"
"html-audio-button-response","179","474252","0.0-138.0-1.0","CKN_114","114","","","","","","null","stimuli/bleep.m4a","null","pink","lightred","[""pink"",""lightred"",""low nameability""]","right-left","[""lightred"",""pink""]","4","low nameability","37","right","audio_feedback","1"
"html-button-response","180","474760","0.0-139.0","CKN_114","114","","","","","","60","<button class=""jspsych-btn""><img src=""stimuli/white_square.png"" style=""width: 200px;height: 200px;""></button>","1","pink","lightred","[""pink"",""lightred"",""low nameability""]","right-left","[""lightred"",""pink""]","4","low nameability","37","right","iti",""
"html-button-response","181","475777","0.0-140.0","CKN_114","114","","","","","","1008","","0","purple","orange","[""purple"",""orange"",""high nameability""]","right-left","[""orange"",""purple""]","4","high nameability","38","right","trigger",""
"html-button-response","182","478783","0.0-141.0-0.0","CKN_114","114","","","","","","2999","<button class=""jspsych-btn""><img src=""stimuli/purple.png"" style=""width: 200px;height: 200px;""></button>","1","purple","orange","[""purple"",""orange"",""high nameability""]","right-left","[""orange"",""purple""]","4","high nameability","38","right","response","1"
"html-audio-button-response","183","478992","0.0-141.0-1.0","CKN_114","114","","","","","","null","stimuli/bleep.m4a","null","purple","orange","[""purple"",""orange"",""high nameability""]","right-left","[""orange"",""purple""]","4","high nameability","38","right","audio_feedback","1"
"html-button-response","184","479504","0.0-142.0","CKN_114","114","","","","","","200","<button class=""jspsych-btn""><img src=""stimuli/white_square.png"" style=""width: 200px;height: 200px;""></button>","1","purple","orange","[""purple"",""orange"",""high nameability""]","right-left","[""orange"",""purple""]","4","high nameability","38","right","iti",""
"html-button-response","185","480177","0.0-143.0","CKN_114","114","","","","","","661","","0","lightred","mustard","[""lightred"",""mustard"",""low nameability""]","right-left","[""mustard"",""lightred""]","4","low nameability","39","right","trigger",""
"html-button-response","186","484046","0.0-144.0-0.0","CKN_114","114","","","","","","3864","<button class=""jspsych-btn""><img src=""stimuli/lightred.png"" style=""width: 200px;height: 200px;""></button>","1","lightred","mustard","[""lightred"",""mustard"",""low nameability""]","right-left","[""mustard"",""lightred""]","4","low nameability","39","right","response","1"
"html-audio-button-response","187","484254","0.0-144.0-1.0","CKN_114","114","","","","","","null","stimuli/bleep.m4a","null","lightred","mustard","[""lightred"",""mustard"",""low nameability""]","right-left","[""mustard"",""lightred""]","4","low nameability","39","right","audio_feedback","1"
"html-button-response","188","484767","0.0-145.0","CKN_114","114","","","","","","null","<button class=""jspsych-btn""><img src=""stimuli/white_square.png"" style=""width: 200px;height: 200px;""></button>","null","lightred","mustard","[""lightred"",""mustard"",""low nameability""]","right-left","[""mustard"",""lightred""]","4","low nameability","39","right","iti",""
"html-button-response","189","485497","0.0-146.0","CKN_114","114","","","","","","726","","0","neonyellow","mustard","[""neonyellow"",""mustard"",""low nameability""]","left-right","[""neonyellow"",""mustard"",""low nameability""]","4","low nameability","40","left","trigger",""
"html-button-response","190","488957","0.0-147.0-0.0","CKN_114","114","","","","","","3451","<button class=""jspsych-btn""><img src=""stimuli/neonyellow.png"" style=""width: 200px;height: 200px;""></button>","0","neonyellow","mustard","[""neonyellow"",""mustard"",""low nameability""]","left-right","[""neonyellow"",""mustard"",""low nameability""]","4","low nameability","40","left","response","1"
"html-audio-button-response","191","489164","0.0-147.0-1.0","CKN_114","114","","","","","","null","stimuli/bleep.m4a","null","neonyellow","mustard","[""neonyellow"",""mustard"",""low nameability""]","left-right","[""neonyellow"",""mustard"",""low nameability""]","4","low nameability","40","left","audio_feedback","1"
"html-button-response","192","489672","0.0-148.0","CKN_114","114","","","","","","214","<button class=""jspsych-btn""><img src=""stimuli/white_square.png"" style=""width: 200px;height: 200px;""></button>","0","neonyellow","mustard","[""neonyellow"",""mustard"",""low nameability""]","left-right","[""neonyellow"",""mustard"",""low nameability""]","4","low nameability","40","left","iti",""
"pavlovia","193","489720","0.0-149.0","CKN_114","114","","","","","","","","","","","","","","","","","","",""
"pavlovia","194","489724","0.0-150.0","CKN_114","114","","","","","","","","","","","","","","","","","","",""
"html-audio-button-response","195","494794","0.0-151.0","CKN_114","114","","","","","","5112","stimuli/tada.m4a","0","","","","","","","","","","",""
"html-button-response","196","497122","0.0-152.0","CKN_114","114","","","","","","2320","","0","","","","","","","","","","",""
"html-button-response","197","497756","0.0-153.0","CKN_114","114","","","","","","625","","0","turquoise","neonyellow","[""turquoise"",""neonyellow"",""low nameability""]","right-left","[""neonyellow"",""turquoise""]","5","low nameability","41","right","trigger",""
"html-button-response","198","499693","0.0-154.0-0.0","CKN_114","114","","","","","","1927","<button class=""jspsych-btn""><img src=""stimuli/turquoise.png"" style=""width: 200px;height: 200px;""></button>","1","turquoise","neonyellow","[""turquoise"",""neonyellow"",""low nameability""]","right-left","[""neonyellow"",""turquoise""]","5","low nameability","41","right","response","1"
"html-audio-button-response","199","499896","0.0-154.0-1.0","CKN_114","114","","","","","","null","stimuli/bleep.m4a","null","turquoise","neonyellow","[""turquoise"",""neonyellow"",""low nameability""]","right-left","[""neonyellow"",""turquoise""]","5","low nameability","41","right","audio_feedback","1"
"html-button-response","200","500411","0.0-155.0","CKN_114","114","","","","","","null","<button class=""jspsych-btn""><img src=""stimuli/white_square.png"" style=""width: 200px;height: 200px;""></button>","null","turquoise","neonyellow","[""turquoise"",""neonyellow"",""low nameability""]","right-left","[""neonyellow"",""turquoise""]","5","low nameability","41","right","iti",""
"html-button-response","201","500945","0.0-156.0","CKN_114","114","","","","","","527","","0","mustard","pink","[""mustard"",""pink"",""low nameability""]","right-left","[""pink"",""mustard""]","5","low nameability","42","right","trigger",""
"html-button-response","202","502179","0.0-157.0-0.0","CKN_114","114","","","","","","1227","<button class=""jspsych-btn""><img src=""stimuli/mustard.png"" style=""width: 200px;height: 200px;""></button>","1","mustard","pink","[""mustard"",""pink"",""low nameability""]","right-left","[""pink"",""mustard""]","5","low nameability","42","right","response","1"
"html-audio-button-response","203","502379","0.0-157.0-1.0","CKN_114","114","","","","","","null","stimuli/bleep.m4a","null","mustard","pink","[""mustard"",""pink"",""low nameability""]","right-left","[""pink"",""mustard""]","5","low nameability","42","right","audio_feedback","1"
"html-button-response","204","502889","0.0-158.0","CKN_114","114","","","","","","null","<button class=""jspsych-btn""><img src=""stimuli/white_square.png"" style=""width: 200px;height: 200px;""></button>","null","mustard","pink","[""mustard"",""pink"",""low nameability""]","right-left","[""pink"",""mustard""]","5","low nameability","42","right","iti",""
"html-button-response","205","503642","0.0-159.0","CKN_114","114","","","","","","747","","0","orange","red","[""orange"",""red"",""high nameability""]","left-right","[""orange"",""red"",""high nameability""]","5","high nameability","43","left","trigger",""
"html-button-response","206","506938","0.0-160.0-0.0","CKN_114","114","","","","","","3287","<button class=""jspsych-btn""><img src=""stimuli/orange.png"" style=""width: 200px;height: 200px;""></button>","0","orange","red","[""orange"",""red"",""high nameability""]","left-right","[""orange"",""red"",""high nameability""]","5","high nameability","43","left","response","1"
"html-audio-button-response","207","507144","0.0-160.0-1.0","CKN_114","114","","","","","","null","stimuli/bleep.m4a","null","orange","red","[""orange"",""red"",""high nameability""]","left-right","[""orange"",""red"",""high nameability""]","5","high nameability","43","left","audio_feedback","1"
"html-button-response","208","507656","0.0-161.0","CKN_114","114","","","","","","255","<button class=""jspsych-btn""><img src=""stimuli/white_square.png"" style=""width: 200px;height: 200px;""></button>","0","orange","red","[""orange"",""red"",""high nameability""]","left-right","[""orange"",""red"",""high nameability""]","5","high nameability","43","left","iti",""
"html-button-response","209","508152","0.0-162.0","CKN_114","114","","","","","","482","","0","mustard","neonyellow","[""mustard"",""neonyellow"",""low nameability""]","right-left","[""neonyellow"",""mustard""]","5","low nameability","44","right","trigger",""
"html-button-response","210","510558","0.0-163.0-0.0","CKN_114","114","","","","","","2397","<button class=""jspsych-btn""><img src=""stimuli/mustard.png"" style=""width: 200px;height: 200px;""></button>","1","mustard","neonyellow","[""mustard"",""neonyellow"",""low nameability""]","right-left","[""neonyellow"",""mustard""]","5","low nameability","44","right","response","1"
"html-audio-button-response","211","510763","0.0-163.0-1.0","CKN_114","114","","","","","","null","stimuli/bleep.m4a","null","mustard","neonyellow","[""mustard"",""neonyellow"",""low nameability""]","right-left","[""neonyellow"",""mustard""]","5","low nameability","44","right","audio_feedback","1"
"html-button-response","212","511274","0.0-164.0","CKN_114","114","","","","","","null","<button class=""jspsych-btn""><img src=""stimuli/white_square.png"" style=""width: 200px;height: 200px;""></button>","null","mustard","neonyellow","[""mustard"",""neonyellow"",""low nameability""]","right-left","[""neonyellow"",""mustard""]","5","low nameability","44","right","iti",""
"html-button-response","213","511709","0.0-165.0","CKN_114","114","","","","","","428","","0","orange","yellow","[""orange"",""yellow"",""high nameability""]","left-right","[""orange"",""yellow"",""high nameability""]","5","high nameability","45","left","trigger",""
"html-button-response","214","514054","0.0-166.0-0.0","CKN_114","114","","","","","","2338","<button class=""jspsych-btn""><img src=""stimuli/orange.png"" style=""width: 200px;height: 200px;""></button>","0","orange","yellow","[""orange"",""yellow"",""high nameability""]","left-right","[""orange"",""yellow"",""high nameability""]","5","high nameability","45","left","response","1"
"html-audio-button-response","215","514259","0.0-166.0-1.0","CKN_114","114","","","","","","null","stimuli/bleep.m4a","null","orange","yellow","[""orange"",""yellow"",""high nameability""]","left-right","[""orange"",""yellow"",""high nameability""]","5","high nameability","45","left","audio_feedback","1"
"html-button-response","216","514769","0.0-167.0","CKN_114","114","","","","","","null","<button class=""jspsych-btn""><img src=""stimuli/white_square.png"" style=""width: 200px;height: 200px;""></button>","null","orange","yellow","[""orange"",""yellow"",""high nameability""]","left-right","[""orange"",""yellow"",""high nameability""]","5","high nameability","45","left","iti",""
"html-button-response","217","515489","0.0-168.0","CKN_114","114","","","","","","715","","0","purple","yellow","[""purple"",""yellow"",""high nameability""]","right-left","[""yellow"",""purple""]","5","high nameability","46","right","trigger",""
"html-button-response","218","516859","0.0-169.0-0.0","CKN_114","114","","","","","","1363","<button class=""jspsych-btn""><img src=""stimuli/purple.png"" style=""width: 200px;height: 200px;""></button>","1","purple","yellow","[""purple"",""yellow"",""high nameability""]","right-left","[""yellow"",""purple""]","5","high nameability","46","right","response","1"
"html-audio-button-response","219","517060","0.0-169.0-1.0","CKN_114","114","","","","","","null","stimuli/bleep.m4a","null","purple","yellow","[""purple"",""yellow"",""high nameability""]","right-left","[""yellow"",""purple""]","5","high nameability","46","right","audio_feedback","1"
"html-button-response","220","517569","0.0-170.0","CKN_114","114","","","","","","245","<button class=""jspsych-btn""><img src=""stimuli/white_square.png"" style=""width: 200px;height: 200px;""></button>","1","purple","yellow","[""purple"",""yellow"",""high nameability""]","right-left","[""yellow"",""purple""]","5","high nameability","46","right","iti",""
"html-button-response","221","518502","0.0-171.0","CKN_114","114","","","","","","922","","0","blue","orange","[""blue"",""orange"",""high nameability""]","left-right","[""blue"",""orange"",""high nameability""]","5","high nameability","47","left","trigger",""
"html-button-response","222","521101","0.0-172.0-0.0","CKN_114","114","","","","","","2591","<button class=""jspsych-btn""><img src=""stimuli/blue.png"" style=""width: 200px;height: 200px;""></button>","0","blue","orange","[""blue"",""orange"",""high nameability""]","left-right","[""blue"",""orange"",""high nameability""]","5","high nameability","47","left","response","1"
"html-audio-button-response","223","521310","0.0-172.0-1.0","CKN_114","114","","","","","","null","stimuli/bleep.m4a","null","blue","orange","[""blue"",""orange"",""high nameability""]","left-right","[""blue"",""orange"",""high nameability""]","5","high nameability","47","left","audio_feedback","1"
"html-button-response","224","521827","0.0-173.0","CKN_114","114","","","","","","null","<button class=""jspsych-btn""><img src=""stimuli/white_square.png"" style=""width: 200px;height: 200px;""></button>","null","blue","orange","[""blue"",""orange"",""high nameability""]","left-right","[""blue"",""orange"",""high nameability""]","5","high nameability","47","left","iti",""
"html-button-response","225","522266","0.0-174.0","CKN_114","114","","","","","","432","","0","lightred","darkgreenblue","[""lightred"",""darkgreenblue"",""low nameability""]","left-right","[""lightred"",""darkgreenblue"",""low nameability""]","5","low nameability","48","left","trigger",""
"html-button-response","226","524274","0.0-175.0-0.0","CKN_114","114","","","","","","2000","<button class=""jspsych-btn""><img src=""stimuli/lightred.png"" style=""width: 200px;height: 200px;""></button>","0","lightred","darkgreenblue","[""lightred"",""darkgreenblue"",""low nameability""]","left-right","[""lightred"",""darkgreenblue"",""low nameability""]","5","low nameability","48","left","response","1"
"html-audio-button-response","227","524476","0.0-175.0-1.0","CKN_114","114","","","","","","null","stimuli/bleep.m4a","null","lightred","darkgreenblue","[""lightred"",""darkgreenblue"",""low nameability""]","left-right","[""lightred"",""darkgreenblue"",""low nameability""]","5","low nameability","48","left","audio_feedback","1"
"html-button-response","228","524987","0.0-176.0","CKN_114","114","","","","","","null","<button class=""jspsych-btn""><img src=""stimuli/white_square.png"" style=""width: 200px;height: 200px;""></button>","null","lightred","darkgreenblue","[""lightred"",""darkgreenblue"",""low nameability""]","left-right","[""lightred"",""darkgreenblue"",""low nameability""]","5","low nameability","48","left","iti",""
"html-button-response","229","525469","0.0-177.0","CKN_114","114","","","","","","475","","0","pink","mustard","[""pink"",""mustard"",""low nameability""]","right-left","[""mustard"",""pink""]","5","low nameability","49","right","trigger",""
"html-button-response","230","528172","0.0-178.0-0.0","CKN_114","114","","","","","","2697","<button class=""jspsych-btn""><img src=""stimuli/pink.png"" style=""width: 200px;height: 200px;""></button>","1","pink","mustard","[""pink"",""mustard"",""low nameability""]","right-left","[""mustard"",""pink""]","5","low nameability","49","right","response","1"
"html-audio-button-response","231","528377","0.0-178.0-1.0","CKN_114","114","","","","","","null","stimuli/bleep.m4a","null","pink","mustard","[""pink"",""mustard"",""low nameability""]","right-left","[""mustard"",""pink""]","5","low nameability","49","right","audio_feedback","1"
"html-button-response","232","528888","0.0-179.0","CKN_114","114","","","","","","null","<button class=""jspsych-btn""><img src=""stimuli/white_square.png"" style=""width: 200px;height: 200px;""></button>","null","pink","mustard","[""pink"",""mustard"",""low nameability""]","right-left","[""mustard"",""pink""]","5","low nameability","49","right","iti",""
"html-button-response","233","530402","0.0-180.0","CKN_114","114","","","","","","1508","","0","darkgreenblue","lightred","[""darkgreenblue"",""lightred"",""low nameability""]","left-right","[""darkgreenblue"",""lightred"",""low nameability""]","5","low nameability","50","left","trigger",""
"html-button-response","234","532199","0.0-181.0-0.0","CKN_114","114","","","","","","1790","<button class=""jspsych-btn""><img src=""stimuli/darkgreenblue.png"" style=""width: 200px;height: 200px;""></button>","0","darkgreenblue","lightred","[""darkgreenblue"",""lightred"",""low nameability""]","left-right","[""darkgreenblue"",""lightred"",""low nameability""]","5","low nameability","50","left","response","1"
"html-audio-button-response","235","532404","0.0-181.0-1.0","CKN_114","114","","","","","","null","stimuli/bleep.m4a","null","darkgreenblue","lightred","[""darkgreenblue"",""lightred"",""low nameability""]","left-right","[""darkgreenblue"",""lightred"",""low nameability""]","5","low nameability","50","left","audio_feedback","1"
"html-button-response","236","532913","0.0-182.0","CKN_114","114","","","","","","300","<button class=""jspsych-btn""><img src=""stimuli/white_square.png"" style=""width: 200px;height: 200px;""></button>","0","darkgreenblue","lightred","[""darkgreenblue"",""lightred"",""low nameability""]","left-right","[""darkgreenblue"",""lightred"",""low nameability""]","5","low nameability","50","left","iti",""
"pavlovia","237","532970","0.0-183.0","CKN_114","114","","","","","","","","","","","","","","","","","","",""
"pavlovia","238","532975","0.0-184.0","CKN_114","114","","","","","","","","","","","","","","","","","","",""
"html-audio-button-response","239","541027","0.0-185.0","CKN_114","114","","","","","","8085","stimuli/tada.m4a","0","","","","","","","","","","",""
"html-button-response","240","541944","0.0-186.0","CKN_114","114","","","","","","911","","0","","","","","","","","","","",""
"html-button-response","241","542416","0.0-187.0","CKN_114","114","","","","","","463","","0","lightred","turquoise","[""lightred"",""turquoise"",""low nameability""]","left-right","[""lightred"",""turquoise"",""low nameability""]","6","low nameability","51","left","trigger",""
"html-button-response","242","544503","0.0-188.0-0.0","CKN_114","114","","","","","","2078","<button class=""jspsych-btn""><img src=""stimuli/lightred.png"" style=""width: 200px;height: 200px;""></button>","0","lightred","turquoise","[""lightred"",""turquoise"",""low nameability""]","left-right","[""lightred"",""turquoise"",""low nameability""]","6","low nameability","51","left","response","1"
"html-audio-button-response","243","544704","0.0-188.0-1.0","CKN_114","114","","","","","","null","stimuli/bleep.m4a","null","lightred","turquoise","[""lightred"",""turquoise"",""low nameability""]","left-right","[""lightred"",""turquoise"",""low nameability""]","6","low nameability","51","left","audio_feedback","1"
"html-button-response","244","545212","0.0-189.0","CKN_114","114","","","","","","null","<button class=""jspsych-btn""><img src=""stimuli/white_square.png"" style=""width: 200px;height: 200px;""></button>","null","lightred","turquoise","[""lightred"",""turquoise"",""low nameability""]","left-right","[""lightred"",""turquoise"",""low nameability""]","6","low nameability","51","left","iti",""
"html-button-response","245","545793","0.0-190.0","CKN_114","114","","","","","","575","","0","turquoise","pink","[""turquoise"",""pink"",""low nameability""]","left-right","[""turquoise"",""pink"",""low nameability""]","6","low nameability","52","left","trigger",""
"html-button-response","246","547550","0.0-191.0-0.0","CKN_114","114","","","","","","1751","<button class=""jspsych-btn""><img src=""stimuli/turquoise.png"" style=""width: 200px;height: 200px;""></button>","0","turquoise","pink","[""turquoise"",""pink"",""low nameability""]","left-right","[""turquoise"",""pink"",""low nameability""]","6","low nameability","52","left","response","1"
"html-audio-button-response","247","547760","0.0-191.0-1.0","CKN_114","114","","","","","","null","stimuli/bleep.m4a","null","turquoise","pink","[""turquoise"",""pink"",""low nameability""]","left-right","[""turquoise"",""pink"",""low nameability""]","6","low nameability","52","left","audio_feedback","1"
"html-button-response","248","548275","0.0-192.0","CKN_114","114","","","","","","null","<button class=""jspsych-btn""><img src=""stimuli/white_square.png"" style=""width: 200px;height: 200px;""></button>","null","turquoise","pink","[""turquoise"",""pink"",""low nameability""]","left-right","[""turquoise"",""pink"",""low nameability""]","6","low nameability","52","left","iti",""
"html-button-response","249","548867","0.0-193.0","CKN_114","114","","","","","","587","","0","yellow","red","[""yellow"",""red"",""high nameability""]","right-left","[""red"",""yellow""]","6","high nameability","53","right","trigger",""
"html-button-response","250","550286","0.0-194.0-0.0","CKN_114","114","","","","","","1412","<button class=""jspsych-btn""><img src=""stimuli/yellow.png"" style=""width: 200px;height: 200px;""></button>","1","yellow","red","[""yellow"",""red"",""high nameability""]","right-left","[""red"",""yellow""]","6","high nameability","53","right","response","1"
"html-audio-button-response","251","550488","0.0-194.0-1.0","CKN_114","114","","","","","","null","stimuli/bleep.m4a","null","yellow","red","[""yellow"",""red"",""high nameability""]","right-left","[""red"",""yellow""]","6","high nameability","53","right","audio_feedback","1"
"html-button-response","252","551000","0.0-195.0","CKN_114","114","","","","","","null","<button class=""jspsych-btn""><img src=""stimuli/white_square.png"" style=""width: 200px;height: 200px;""></button>","null","yellow","red","[""yellow"",""red"",""high nameability""]","right-left","[""red"",""yellow""]","6","high nameability","53","right","iti",""
"html-button-response","253","551956","0.0-196.0","CKN_114","114","","","","","","947","","0","red","yellow","[""red"",""yellow"",""high nameability""]","right-left","[""yellow"",""red""]","6","high nameability","54","right","trigger",""
"html-button-response","254","553074","0.0-197.0-0.0","CKN_114","114","","","","","","1110","<button class=""jspsych-btn""><img src=""stimuli/red.png"" style=""width: 200px;height: 200px;""></button>","1","red","yellow","[""red"",""yellow"",""high nameability""]","right-left","[""yellow"",""red""]","6","high nameability","54","right","response","1"
"html-audio-button-response","255","553276","0.0-197.0-1.0","CKN_114","114","","","","","","null","stimuli/bleep.m4a","null","red","yellow","[""red"",""yellow"",""high nameability""]","right-left","[""yellow"",""red""]","6","high nameability","54","right","audio_feedback","1"
"html-button-response","256","553789","0.0-198.0","CKN_114","114","","","","","","null","<button class=""jspsych-btn""><img src=""stimuli/white_square.png"" style=""width: 200px;height: 200px;""></button>","null","red","yellow","[""red"",""yellow"",""high nameability""]","right-left","[""yellow"",""red""]","6","high nameability","54","right","iti",""
"html-button-response","257","554980","0.0-199.0","CKN_114","114","","","","","","1184","","0","orange","brown","[""orange"",""brown"",""high nameability""]","left-right","[""orange"",""brown"",""high nameability""]","6","high nameability","55","left","trigger",""
"html-button-response","258","556062","0.0-200.0-0.0","CKN_114","114","","","","","","1073","<button class=""jspsych-btn""><img src=""stimuli/orange.png"" style=""width: 200px;height: 200px;""></button>","0","orange","brown","[""orange"",""brown"",""high nameability""]","left-right","[""orange"",""brown"",""high nameability""]","6","high nameability","55","left","response","1"
"html-audio-button-response","259","556262","0.0-200.0-1.0","CKN_114","114","","","","","","null","stimuli/bleep.m4a","null","orange","brown","[""orange"",""brown"",""high nameability""]","left-right","[""orange"",""brown"",""high nameability""]","6","high nameability","55","left","audio_feedback","1"
"html-button-response","260","556774","0.0-201.0","CKN_114","114","","","","","","null","<button class=""jspsych-btn""><img src=""stimuli/white_square.png"" style=""width: 200px;height: 200px;""></button>","null","orange","brown","[""orange"",""brown"",""high nameability""]","left-right","[""orange"",""brown"",""high nameability""]","6","high nameability","55","left","iti",""
"html-button-response","261","557758","0.0-202.0","CKN_114","114","","","","","","975","","0","turquoise","lightred","[""turquoise"",""lightred"",""low nameability""]","left-right","[""turquoise"",""lightred"",""low nameability""]","6","low nameability","56","left","trigger",""
"html-button-response","262","559374","0.0-203.0-0.0","CKN_114","114","","","","","","1610","<button class=""jspsych-btn""><img src=""stimuli/turquoise.png"" style=""width: 200px;height: 200px;""></button>","0","turquoise","lightred","[""turquoise"",""lightred"",""low nameability""]","left-right","[""turquoise"",""lightred"",""low nameability""]","6","low nameability","56","left","response","1"
"html-audio-button-response","263","559580","0.0-203.0-1.0","CKN_114","114","","","","","","null","stimuli/bleep.m4a","null","turquoise","lightred","[""turquoise"",""lightred"",""low nameability""]","left-right","[""turquoise"",""lightred"",""low nameability""]","6","low nameability","56","left","audio_feedback","1"
"html-button-response","264","560093","0.0-204.0","CKN_114","114","","","","","","null","<button class=""jspsych-btn""><img src=""stimuli/white_square.png"" style=""width: 200px;height: 200px;""></button>","null","turquoise","lightred","[""turquoise"",""lightred"",""low nameability""]","left-right","[""turquoise"",""lightred"",""low nameability""]","6","low nameability","56","left","iti",""
"html-button-response","265","560865","0.0-205.0","CKN_114","114","","","","","","752","","0","yellow","brown","[""yellow"",""brown"",""high nameability""]","left-right","[""yellow"",""brown"",""high nameability""]","6","high nameability","57","left","trigger",""
"html-button-response","266","563751","0.0-206.0-0.0","CKN_114","114","","","","","","2879","<button class=""jspsych-btn""><img src=""stimuli/yellow.png"" style=""width: 200px;height: 200px;""></button>","0","yellow","brown","[""yellow"",""brown"",""high nameability""]","left-right","[""yellow"",""brown"",""high nameability""]","6","high nameability","57","left","response","1"
"html-audio-button-response","267","563956","0.0-206.0-1.0","CKN_114","114","","","","","","null","stimuli/bleep.m4a","null","yellow","brown","[""yellow"",""brown"",""high nameability""]","left-right","[""yellow"",""brown"",""high nameability""]","6","high nameability","57","left","audio_feedback","1"
"html-button-response","268","564468","0.0-207.0","CKN_114","114","","","","","","40","<button class=""jspsych-btn""><img src=""stimuli/white_square.png"" style=""width: 200px;height: 200px;""></button>","0","yellow","brown","[""yellow"",""brown"",""high nameability""]","left-right","[""yellow"",""brown"",""high nameability""]","6","high nameability","57","left","iti",""
"html-button-response","269","564962","0.0-208.0","CKN_114","114","","","","","","487","","0","darkgreenblue","neonyellow","[""darkgreenblue"",""neonyellow"",""low nameability""]","right-left","[""neonyellow"",""darkgreenblue""]","6","low nameability","58","right","trigger",""
"html-button-response","270","569248","0.0-209.0-0.0","CKN_114","114","","","","","","4279","<button class=""jspsych-btn""><img src=""stimuli/darkgreenblue.png"" style=""width: 200px;height: 200px;""></button>","1","darkgreenblue","neonyellow","[""darkgreenblue"",""neonyellow"",""low nameability""]","right-left","[""neonyellow"",""darkgreenblue""]","6","low nameability","58","right","response","1"
"html-audio-button-response","271","569450","0.0-209.0-1.0","CKN_114","114","","","","","","null","stimuli/bleep.m4a","null","darkgreenblue","neonyellow","[""darkgreenblue"",""neonyellow"",""low nameability""]","right-left","[""neonyellow"",""darkgreenblue""]","6","low nameability","58","right","audio_feedback","1"
"html-button-response","272","569963","0.0-210.0","CKN_114","114","","","","","","null","<button class=""jspsych-btn""><img src=""stimuli/white_square.png"" style=""width: 200px;height: 200px;""></button>","null","darkgreenblue","neonyellow","[""darkgreenblue"",""neonyellow"",""low nameability""]","right-left","[""neonyellow"",""darkgreenblue""]","6","low nameability","58","right","iti",""
"html-button-response","273","570485","0.0-211.0","CKN_114","114","","","","","","508","","0","pink","neonyellow","[""pink"",""neonyellow"",""low nameability""]","left-right","[""pink"",""neonyellow"",""low nameability""]","6","low nameability","59","left","trigger",""
"html-button-response","274","572045","0.0-212.0-0.0","CKN_114","114","","","","","","1551","<button class=""jspsych-btn""><img src=""stimuli/pink.png"" style=""width: 200px;height: 200px;""></button>","0","pink","neonyellow","[""pink"",""neonyellow"",""low nameability""]","left-right","[""pink"",""neonyellow"",""low nameability""]","6","low nameability","59","left","response","1"
"html-audio-button-response","275","572247","0.0-212.0-1.0","CKN_114","114","","","","","","null","stimuli/bleep.m4a","null","pink","neonyellow","[""pink"",""neonyellow"",""low nameability""]","left-right","[""pink"",""neonyellow"",""low nameability""]","6","low nameability","59","left","audio_feedback","1"
"html-button-response","276","572754","0.0-213.0","CKN_114","114","","","","","","12","<button class=""jspsych-btn""><img src=""stimuli/white_square.png"" style=""width: 200px;height: 200px;""></button>","0","pink","neonyellow","[""pink"",""neonyellow"",""low nameability""]","left-right","[""pink"",""neonyellow"",""low nameability""]","6","low nameability","59","left","iti",""
"html-button-response","277","573477","0.0-214.0","CKN_114","114","","","","","","716","","0","neonyellow","lightred","[""neonyellow"",""lightred"",""low nameability""]","left-right","[""neonyellow"",""lightred"",""low nameability""]","6","low nameability","60","left","trigger",""
"html-button-response","278","575506","0.0-215.0-0.0","CKN_114","114","","","","","","2023","<button class=""jspsych-btn""><img src=""stimuli/neonyellow.png"" style=""width: 200px;height: 200px;""></button>","0","neonyellow","lightred","[""neonyellow"",""lightred"",""low nameability""]","left-right","[""neonyellow"",""lightred"",""low nameability""]","6","low nameability","60","left","response","1"
"html-audio-button-response","279","575707","0.0-215.0-1.0","CKN_114","114","","","","","","null","stimuli/bleep.m4a","null","neonyellow","lightred","[""neonyellow"",""lightred"",""low nameability""]","left-right","[""neonyellow"",""lightred"",""low nameability""]","6","low nameability","60","left","audio_feedback","1"
"html-button-response","280","576221","0.0-216.0","CKN_114","114","","","","","","null","<button class=""jspsych-btn""><img src=""stimuli/white_square.png"" style=""width: 200px;height: 200px;""></button>","null","neonyellow","lightred","[""neonyellow"",""lightred"",""low nameability""]","left-right","[""neonyellow"",""lightred"",""low nameability""]","6","low nameability","60","left","iti",""
