"trial_type","trial_index","time_elapsed","internal_node_id","subject_id","seed","success","timeout","failed_images","failed_audio","failed_video","rt","stimulus","response","target","foil","choices","combination_order","choices_in_order","round","condition","trial_counter","target_location","trial_kind","correct"
"pavlovia","0","20","0.0-0.0","CKN_129","129","","","","","","","","","","","","","","","","","","",""
"preload","1","1178","0.0-1.0","CKN_129","129","true","false","[]","[]","[]","","","","","","","","","","","","","",""
"fullscreen","2","3126","0.0-2.0","CKN_129","129","true","","","","","","","","","","","","","","","","","",""
"html-button-response","3","16732","0.0-3.0","CKN_129","129","","","","","","13569","","0","","","","","","","","","","",""
"html-button-response","4","19985","0.0-4.0","CKN_129","129","","","","","","3243","","0","star","square","[""square"",""star""]","left-right","[""square"",""star""]","1","practice","1","right","trigger",""
"html-button-response","5","25305","0.0-5.0-0.0","CKN_129","129","","","","","","5309","<button class=""jspsych-btn""><img src=""stimuli/star.png"" style=""width: 200px;height: 200px;""></button>","1","star","square","[""square"",""star""]","left-right","[""square"",""star""]","1","practice","1","right","response","1"
"html-audio-button-response","6","25521","0.0-5.0-1.0","CKN_129","129","","","","","","null","stimuli/bleep.m4a","null","star","square","[""square"",""star""]","left-right","[""square"",""star""]","1","practice","1","right","audio_feedback","1"
"html-button-response","7","26038","0.0-6.0","CKN_129","129","","","","","","null","<button class=""jspsych-btn""><img src=""stimuli/white_square.png"" style=""width: 200px;height: 200px;""></button>","null","star","square","[""square"",""star""]","left-right","[""square"",""star""]","1","practice","1","right","iti",""
"html-button-response","8","29033","0.0-7.0","CKN_129","129","","","","","","2981","","0","triangle","pentagram","[""triangle"",""pentagram""]","left-right","[""triangle"",""pentagram""]","1","practice","1","left","trigger",""
"html-button-response","9","31472","0.0-8.0-0.0","CKN_129","129","","","","","","2430","<button class=""jspsych-btn""><img src=""stimuli/triangle.png"" style=""width: 200px;height: 200px;""></button>","0","triangle","pentagram","[""triangle"",""pentagram""]","left-right","[""triangle"",""pentagram""]","1","practice","1","left","response","1"
"html-audio-button-response","10","31679","0.0-8.0-1.0","CKN_129","129","","","","","","null","stimuli/bleep.m4a","null","triangle","pentagram","[""triangle"",""pentagram""]","left-right","[""triangle"",""pentagram""]","1","practice","1","left","audio_feedback","1"
"html-button-response","11","32197","0.0-9.0","CKN_129","129","","","","","","null","<button class=""jspsych-btn""><img src=""stimuli/white_square.png"" style=""width: 200px;height: 200px;""></button>","null","triangle","pentagram","[""triangle"",""pentagram""]","left-right","[""triangle"",""pentagram""]","1","practice","1","left","iti",""
"html-button-response","12","35891","0.0-10.0","CKN_129","129","","","","","","3680","","0","diamond","rectangle","[""rectangle"",""diamond""]","left-right","[""rectangle"",""diamond""]","1","practice","1","right","trigger",""
"html-button-response","13","38724","0.0-11.0-0.0","CKN_129","129","","","","","","2824","<button class=""jspsych-btn""><img src=""stimuli/diamond.png"" style=""width: 200px;height: 200px;""></button>","1","diamond","rectangle","[""rectangle"",""diamond""]","left-right","[""rectangle"",""diamond""]","1","practice","1","right","response","1"
"html-audio-button-response","14","38933","0.0-11.0-1.0","CKN_129","129","","","","","","null","stimuli/bleep.m4a","null","diamond","rectangle","[""rectangle"",""diamond""]","left-right","[""rectangle"",""diamond""]","1","practice","1","right","audio_feedback","1"
"html-button-response","15","39451","0.0-12.0","CKN_129","129","","","","","","null","<button class=""jspsych-btn""><img src=""stimuli/white_square.png"" style=""width: 200px;height: 200px;""></button>","null","diamond","rectangle","[""rectangle"",""diamond""]","left-right","[""rectangle"",""diamond""]","1","practice","1","right","iti",""
"html-button-response","16","42135","0.0-13.0","CKN_129","129","","","","","","2669","","0","pentagram","star","[""pentagram"",""star""]","left-right","[""pentagram"",""star""]","1","practice","1","left","trigger",""
"html-button-response","17","45620","0.0-14.0-0.0","CKN_129","129","","","","","","3472","<button class=""jspsych-btn""><img src=""stimuli/pentagram.png"" style=""width: 200px;height: 200px;""></button>","0","pentagram","star","[""pentagram"",""star""]","left-right","[""pentagram"",""star""]","1","practice","1","left","response","1"
"html-audio-button-response","18","45827","0.0-14.0-1.0","CKN_129","129","","","","","","null","stimuli/bleep.m4a","null","pentagram","star","[""pentagram"",""star""]","left-right","[""pentagram"",""star""]","1","practice","1","left","audio_feedback","1"
"html-button-response","19","46343","0.0-15.0","CKN_129","129","","","","","","null","<button class=""jspsych-btn""><img src=""stimuli/white_square.png"" style=""width: 200px;height: 200px;""></button>","null","pentagram","star","[""pentagram"",""star""]","left-right","[""pentagram"",""star""]","1","practice","1","left","iti",""
"html-button-response","20","50806","0.0-16.0","CKN_129","129","","","","","","4457","","0","","","","","","","","","","",""
"html-button-response","21","53080","0.0-17.0","CKN_129","129","","","","","","2266","","0","red","yellow","[""red"",""yellow"",""high nameability""]","left-right","[""red"",""yellow"",""high nameability""]","1","high nameability","1","left","trigger",""
"html-button-response","22","56110","0.0-18.0-0.0","CKN_129","129","","","","","","3012","<button class=""jspsych-btn""><img src=""stimuli/red.png"" style=""width: 200px;height: 200px;""></button>","0","red","yellow","[""red"",""yellow"",""high nameability""]","left-right","[""red"",""yellow"",""high nameability""]","1","high nameability","1","left","response","1"
"html-audio-button-response","23","56324","0.0-18.0-1.0","CKN_129","129","","","","","","null","stimuli/bleep.m4a","null","red","yellow","[""red"",""yellow"",""high nameability""]","left-right","[""red"",""yellow"",""high nameability""]","1","high nameability","1","left","audio_feedback","1"
"html-button-response","24","56842","0.0-19.0","CKN_129","129","","","","","","null","<button class=""jspsych-btn""><img src=""stimuli/white_square.png"" style=""width: 200px;height: 200px;""></button>","null","red","yellow","[""red"",""yellow"",""high nameability""]","left-right","[""red"",""yellow"",""high nameability""]","1","high nameability","1","left","iti",""
"html-button-response","25","59584","0.0-20.0","CKN_129","129","","","","","","2725","","0","pink","lightred","[""pink"",""lightred"",""low nameability""]","right-left","[""lightred"",""pink""]","1","low nameability","2","right","trigger",""
"html-button-response","26","61852","0.0-21.0-0.0","CKN_129","129","","","","","","2260","<button class=""jspsych-btn""><img src=""stimuli/pink.png"" style=""width: 200px;height: 200px;""></button>","1","pink","lightred","[""pink"",""lightred"",""low nameability""]","right-left","[""lightred"",""pink""]","1","low nameability","2","right","response","1"
"html-audio-button-response","27","62063","0.0-21.0-1.0","CKN_129","129","","","","","","null","stimuli/bleep.m4a","null","pink","lightred","[""pink"",""lightred"",""low nameability""]","right-left","[""lightred"",""pink""]","1","low nameability","2","right","audio_feedback","1"
"html-button-response","28","62582","0.0-22.0","CKN_129","129","","","","","","null","<button class=""jspsych-btn""><img src=""stimuli/white_square.png"" style=""width: 200px;height: 200px;""></button>","null","pink","lightred","[""pink"",""lightred"",""low nameability""]","right-left","[""lightred"",""pink""]","1","low nameability","2","right","iti",""
"html-button-response","29","68985","0.0-23.0","CKN_129","129","","","","","","6397","","0","lightred","darkgreenblue","[""lightred"",""darkgreenblue"",""low nameability""]","right-left","[""darkgreenblue"",""lightred""]","1","low nameability","3","right","trigger",""
"html-button-response","30","71944","0.0-24.0-0.0","CKN_129","129","","","","","","2947","<button class=""jspsych-btn""><img src=""stimuli/lightred.png"" style=""width: 200px;height: 200px;""></button>","1","lightred","darkgreenblue","[""lightred"",""darkgreenblue"",""low nameability""]","right-left","[""darkgreenblue"",""lightred""]","1","low nameability","3","right","response","1"
"html-audio-button-response","31","72149","0.0-24.0-1.0","CKN_129","129","","","","","","null","stimuli/bleep.m4a","null","lightred","darkgreenblue","[""lightred"",""darkgreenblue"",""low nameability""]","right-left","[""darkgreenblue"",""lightred""]","1","low nameability","3","right","audio_feedback","1"
"html-button-response","32","72666","0.0-25.0","CKN_129","129","","","","","","null","<button class=""jspsych-btn""><img src=""stimuli/white_square.png"" style=""width: 200px;height: 200px;""></button>","null","lightred","darkgreenblue","[""lightred"",""darkgreenblue"",""low nameability""]","right-left","[""darkgreenblue"",""lightred""]","1","low nameability","3","right","iti",""
"html-button-response","33","74820","0.0-26.0","CKN_129","129","","","","","","2142","","0","pink","neonyellow","[""pink"",""neonyellow"",""low nameability""]","left-right","[""pink"",""neonyellow"",""low nameability""]","1","low nameability","4","left","trigger",""
"html-button-response","34","77079","0.0-27.0-0.0","CKN_129","129","","","","","","2244","<button class=""jspsych-btn""><img src=""stimuli/pink.png"" style=""width: 200px;height: 200px;""></button>","0","pink","neonyellow","[""pink"",""neonyellow"",""low nameability""]","left-right","[""pink"",""neonyellow"",""low nameability""]","1","low nameability","4","left","response","1"
"html-audio-button-response","35","77288","0.0-27.0-1.0","CKN_129","129","","","","","","null","stimuli/bleep.m4a","null","pink","neonyellow","[""pink"",""neonyellow"",""low nameability""]","left-right","[""pink"",""neonyellow"",""low nameability""]","1","low nameability","4","left","audio_feedback","1"
"html-button-response","36","77805","0.0-28.0","CKN_129","129","","","","","","null","<button class=""jspsych-btn""><img src=""stimuli/white_square.png"" style=""width: 200px;height: 200px;""></button>","null","pink","neonyellow","[""pink"",""neonyellow"",""low nameability""]","left-right","[""pink"",""neonyellow"",""low nameability""]","1","low nameability","4","left","iti",""
"html-button-response","37","79633","0.0-29.0","CKN_129","129","","","","","","1817","","0","brown","purple","[""brown"",""purple"",""high nameability""]","left-right","[""brown"",""purple"",""high nameability""]","1","high nameability","5","left","trigger",""
"html-button-response","38","81976","0.0-30.0-0.0","CKN_129","129","","","","","","2331","<button class=""jspsych-btn""><img src=""stimuli/brown.png"" style=""width: 200px;height: 200px;""></button>","0","brown","purple","[""brown"",""purple"",""high nameability""]","left-right","[""brown"",""purple"",""high nameability""]","1","high nameability","5","left","response","1"
"html-audio-button-response","39","82182","0.0-30.0-1.0","CKN_129","129","","","","","","null","stimuli/bleep.m4a","null","brown","purple","[""brown"",""purple"",""high nameability""]","left-right","[""brown"",""purple"",""high nameability""]","1","high nameability","5","left","audio_feedback","1"
"html-button-response","40","82700","0.0-31.0","CKN_129","129","","","","","","null","<button class=""jspsych-btn""><img src=""stimuli/white_square.png"" style=""width: 200px;height: 200px;""></button>","null","brown","purple","[""brown"",""purple"",""high nameability""]","left-right","[""brown"",""purple"",""high nameability""]","1","high nameability","5","left","iti",""
"html-button-response","41","84748","0.0-32.0","CKN_129","129","","","","","","2038","","0","pink","darkgreenblue","[""pink"",""darkgreenblue"",""low nameability""]","left-right","[""pink"",""darkgreenblue"",""low nameability""]","1","low nameability","6","left","trigger",""
"html-button-response","42","86296","0.0-33.0-0.0","CKN_129","129","","","","","","1536","<button class=""jspsych-btn""><img src=""stimuli/pink.png"" style=""width: 200px;height: 200px;""></button>","0","pink","darkgreenblue","[""pink"",""darkgreenblue"",""low nameability""]","left-right","[""pink"",""darkgreenblue"",""low nameability""]","1","low nameability","6","left","response","1"
"html-audio-button-response","43","86499","0.0-33.0-1.0","CKN_129","129","","","","","","null","stimuli/bleep.m4a","null","pink","darkgreenblue","[""pink"",""darkgreenblue"",""low nameability""]","left-right","[""pink"",""darkgreenblue"",""low nameability""]","1","low nameability","6","left","audio_feedback","1"
"html-button-response","44","87015","0.0-34.0","CKN_129","129","","","","","","null","<button class=""jspsych-btn""><img src=""stimuli/white_square.png"" style=""width: 200px;height: 200px;""></button>","null","pink","darkgreenblue","[""pink"",""darkgreenblue"",""low nameability""]","left-right","[""pink"",""darkgreenblue"",""low nameability""]","1","low nameability","6","left","iti",""
"html-button-response","45","88464","0.0-35.0","CKN_129","129","","","","","","1434","","0","brown","yellow","[""brown"",""yellow"",""high nameability""]","right-left","[""yellow"",""brown""]","1","high nameability","7","right","trigger",""
"html-button-response","46","89901","0.0-36.0-0.0","CKN_129","129","","","","","","1428","<button class=""jspsych-btn""><img src=""stimuli/brown.png"" style=""width: 200px;height: 200px;""></button>","1","brown","yellow","[""brown"",""yellow"",""high nameability""]","right-left","[""yellow"",""brown""]","1","high nameability","7","right","response","1"
"html-audio-button-response","47","90107","0.0-36.0-1.0","CKN_129","129","","","","","","null","stimuli/bleep.m4a","null","brown","yellow","[""brown"",""yellow"",""high nameability""]","right-left","[""yellow"",""brown""]","1","high nameability","7","right","audio_feedback","1"
"html-button-response","48","90623","0.0-37.0","CKN_129","129","","","","","","null","<button class=""jspsych-btn""><img src=""stimuli/white_square.png"" style=""width: 200px;height: 200px;""></button>","null","brown","yellow","[""brown"",""yellow"",""high nameability""]","right-left","[""yellow"",""brown""]","1","high nameability","7","right","iti",""
"html-button-response","49","92027","0.0-38.0","CKN_129","129","","","","","","1395","","0","orange","purple","[""orange"",""purple"",""high nameability""]","right-left","[""purple"",""orange""]","1","high nameability","8","right","trigger",""
"html-button-response","50","93386","0.0-39.0-0.0","CKN_129","129","","","","","","1349","<button class=""jspsych-btn""><img src=""stimuli/orange.png"" style=""width: 200px;height: 200px;""></button>","1","orange","purple","[""orange"",""purple"",""high nameability""]","right-left","[""purple"",""orange""]","1","high nameability","8","right","response","1"
"html-audio-button-response","51","93594","0.0-39.0-1.0","CKN_129","129","","","","","","null","stimuli/bleep.m4a","null","orange","purple","[""orange"",""purple"",""high nameability""]","right-left","[""purple"",""orange""]","1","high nameability","8","right","audio_feedback","1"
"html-button-response","52","94107","0.0-40.0","CKN_129","129","","","","","","null","<button class=""jspsych-btn""><img src=""stimuli/white_square.png"" style=""width: 200px;height: 200px;""></button>","null","orange","purple","[""orange"",""purple"",""high nameability""]","right-left","[""purple"",""orange""]","1","high nameability","8","right","iti",""
"html-button-response","53","96319","0.0-41.0","CKN_129","129","","","","","","2200","","0","pink","turquoise","[""pink"",""turquoise"",""low nameability""]","right-left","[""turquoise"",""pink""]","1","low nameability","9","right","trigger",""
"html-button-response","54","99316","0.0-42.0-0.0","CKN_129","129","","","","","","2986","<button class=""jspsych-btn""><img src=""stimuli/pink.png"" style=""width: 200px;height: 200px;""></button>","1","pink","turquoise","[""pink"",""turquoise"",""low nameability""]","right-left","[""turquoise"",""pink""]","1","low nameability","9","right","response","1"
"html-audio-button-response","55","99516","0.0-42.0-1.0","CKN_129","129","","","","","","null","stimuli/bleep.m4a","null","pink","turquoise","[""pink"",""turquoise"",""low nameability""]","right-left","[""turquoise"",""pink""]","1","low nameability","9","right","audio_feedback","1"
"html-button-response","56","100030","0.0-43.0","CKN_129","129","","","","","","null","<button class=""jspsych-btn""><img src=""stimuli/white_square.png"" style=""width: 200px;height: 200px;""></button>","null","pink","turquoise","[""pink"",""turquoise"",""low nameability""]","right-left","[""turquoise"",""pink""]","1","low nameability","9","right","iti",""
"html-button-response","57","101238","0.0-44.0","CKN_129","129","","","","","","1201","","0","yellow","purple","[""yellow"",""purple"",""high nameability""]","left-right","[""yellow"",""purple"",""high nameability""]","1","high nameability","10","left","trigger",""
"html-button-response","58","102861","0.0-45.0-0.0","CKN_129","129","","","","","","1613","<button class=""jspsych-btn""><img src=""stimuli/yellow.png"" style=""width: 200px;height: 200px;""></button>","0","yellow","purple","[""yellow"",""purple"",""high nameability""]","left-right","[""yellow"",""purple"",""high nameability""]","1","high nameability","10","left","response","1"
"html-audio-button-response","59","103071","0.0-45.0-1.0","CKN_129","129","","","","","","null","stimuli/bleep.m4a","null","yellow","purple","[""yellow"",""purple"",""high nameability""]","left-right","[""yellow"",""purple"",""high nameability""]","1","high nameability","10","left","audio_feedback","1"
"html-button-response","60","103583","0.0-46.0","CKN_129","129","","","","","","null","<button class=""jspsych-btn""><img src=""stimuli/white_square.png"" style=""width: 200px;height: 200px;""></button>","null","yellow","purple","[""yellow"",""purple"",""high nameability""]","left-right","[""yellow"",""purple"",""high nameability""]","1","high nameability","10","left","iti",""
"pavlovia","61","103648","0.0-47.0","CKN_129","129","","","","","","","","","","","","","","","","","","",""
"pavlovia","62","103657","0.0-48.0","CKN_129","129","","","","","","","","","","","","","","","","","","",""
"html-audio-button-response","63","108085","0.0-49.0","CKN_129","129","","","","","","4488","stimuli/tada.m4a","0","","","","","","","","","","",""
"html-button-response","64","108547","0.0-50.0","CKN_129","129","","","","","","453","","0","","","","","","","","","","",""
"html-button-response","65","111483","0.0-51.0","CKN_129","129","","","","","","2922","","0","purple","orange","[""purple"",""orange"",""high nameability""]","right-left","[""orange"",""purple""]","2","high nameability","11","right","trigger",""
"html-button-response","66","114024","0.0-52.0-0.0","CKN_129","129","","","","","","2523","<button class=""jspsych-btn""><img src=""stimuli/purple.png"" style=""width: 200px;height: 200px;""></button>","1","purple","orange","[""purple"",""orange"",""high nameability""]","right-left","[""orange"",""purple""]","2","high nameability","11","right","response","1"
"html-audio-button-response","67","114240","0.0-52.0-1.0","CKN_129","129","","","","","","null","stimuli/bleep.m4a","null","purple","orange","[""purple"",""orange"",""high nameability""]","right-left","[""orange"",""purple""]","2","high nameability","11","right","audio_feedback","1"
"html-button-response","68","114767","0.0-53.0","CKN_129","129","","","","","","null","<button class=""jspsych-btn""><img src=""stimuli/white_square.png"" style=""width: 200px;height: 200px;""></button>","null","purple","orange","[""purple"",""orange"",""high nameability""]","right-left","[""orange"",""purple""]","2","high nameability","11","right","iti",""
"html-button-response","69","117140","0.0-54.0","CKN_129","129","","","","","","2358","","0","mustard","neonyellow","[""mustard"",""neonyellow"",""low nameability""]","left-right","[""mustard"",""neonyellow"",""low nameability""]","2","low nameability","12","left","trigger",""
"html-button-response","70","119086","0.0-55.0-0.0","CKN_129","129","","","","","","1934","<button class=""jspsych-btn""><img src=""stimuli/mustard.png"" style=""width: 200px;height: 200px;""></button>","0","mustard","neonyellow","[""mustard"",""neonyellow"",""low nameability""]","left-right","[""mustard"",""neonyellow"",""low nameability""]","2","low nameability","12","left","response","1"
"html-audio-button-response","71","119297","0.0-55.0-1.0","CKN_129","129","","","","","","null","stimuli/bleep.m4a","null","mustard","neonyellow","[""mustard"",""neonyellow"",""low nameability""]","left-right","[""mustard"",""neonyellow"",""low nameability""]","2","low nameability","12","left","audio_feedback","1"
"html-button-response","72","119815","0.0-56.0","CKN_129","129","","","","","","null","<button class=""jspsych-btn""><img src=""stimuli/white_square.png"" style=""width: 200px;height: 200px;""></button>","null","mustard","neonyellow","[""mustard"",""neonyellow"",""low nameability""]","left-right","[""mustard"",""neonyellow"",""low nameability""]","2","low nameability","12","left","iti",""
"html-button-response","73","121750","0.0-57.0","CKN_129","129","","","","","","1918","","0","yellow","red","[""yellow"",""red"",""high nameability""]","left-right","[""yellow"",""red"",""high nameability""]","2","high nameability","13","left","trigger",""
"html-button-response","74","123440","0.0-58.0-0.0","CKN_129","129","","","","","","1678","<button class=""jspsych-btn""><img src=""stimuli/yellow.png"" style=""width: 200px;height: 200px;""></button>","0","yellow","red","[""yellow"",""red"",""high nameability""]","left-right","[""yellow"",""red"",""high nameability""]","2","high nameability","13","left","response","1"
"html-audio-button-response","75","123645","0.0-58.0-1.0","CKN_129","129","","","","","","null","stimuli/bleep.m4a","null","yellow","red","[""yellow"",""red"",""high nameability""]","left-right","[""yellow"",""red"",""high nameability""]","2","high nameability","13","left","audio_feedback","1"
"html-button-response","76","124160","0.0-59.0","CKN_129","129","","","","","","null","<button class=""jspsych-btn""><img src=""stimuli/white_square.png"" style=""width: 200px;height: 200px;""></button>","null","yellow","red","[""yellow"",""red"",""high nameability""]","left-right","[""yellow"",""red"",""high nameability""]","2","high nameability","13","left","iti",""
"html-button-response","77","126151","0.0-60.0","CKN_129","129","","","","","","1980","","0","mustard","pink","[""mustard"",""pink"",""low nameability""]","right-left","[""pink"",""mustard""]","2","low nameability","14","right","trigger",""
"html-button-response","78","127800","0.0-61.0-0.0","CKN_129","129","","","","","","1641","<button class=""jspsych-btn""><img src=""stimuli/mustard.png"" style=""width: 200px;height: 200px;""></button>","1","mustard","pink","[""mustard"",""pink"",""low nameability""]","right-left","[""pink"",""mustard""]","2","low nameability","14","right","response","1"
"html-audio-button-response","79","128001","0.0-61.0-1.0","CKN_129","129","","","","","","null","stimuli/bleep.m4a","null","mustard","pink","[""mustard"",""pink"",""low nameability""]","right-left","[""pink"",""mustard""]","2","low nameability","14","right","audio_feedback","1"
"html-button-response","80","128515","0.0-62.0","CKN_129","129","","","","","","null","<button class=""jspsych-btn""><img src=""stimuli/white_square.png"" style=""width: 200px;height: 200px;""></button>","null","mustard","pink","[""mustard"",""pink"",""low nameability""]","right-left","[""pink"",""mustard""]","2","low nameability","14","right","iti",""
"html-button-response","81","131709","0.0-63.0","CKN_129","129","","","","","","3181","","0","neonyellow","turquoise","[""neonyellow"",""turquoise"",""low nameability""]","left-right","[""neonyellow"",""turquoise"",""low nameability""]","2","low nameability","15","left","trigger",""
"html-button-response","82","133076","0.0-64.0-0.0","CKN_129","129","","","","","","1360","<button class=""jspsych-btn""><img src=""stimuli/neonyellow.png"" style=""width: 200px;height: 200px;""></button>","0","neonyellow","turquoise","[""neonyellow"",""turquoise"",""low nameability""]","left-right","[""neonyellow"",""turquoise"",""low nameability""]","2","low nameability","15","left","response","1"
"html-audio-button-response","83","133277","0.0-64.0-1.0","CKN_129","129","","","","","","null","stimuli/bleep.m4a","null","neonyellow","turquoise","[""neonyellow"",""turquoise"",""low nameability""]","left-right","[""neonyellow"",""turquoise"",""low nameability""]","2","low nameability","15","left","audio_feedback","1"
"html-button-response","84","133787","0.0-65.0","CKN_129","129","","","","","","null","<button class=""jspsych-btn""><img src=""stimuli/white_square.png"" style=""width: 200px;height: 200px;""></button>","null","neonyellow","turquoise","[""neonyellow"",""turquoise"",""low nameability""]","left-right","[""neonyellow"",""turquoise"",""low nameability""]","2","low nameability","15","left","iti",""
"html-button-response","85","135941","0.0-66.0","CKN_129","129","","","","","","2145","","0","pink","mustard","[""pink"",""mustard"",""low nameability""]","left-right","[""pink"",""mustard"",""low nameability""]","2","low nameability","16","left","trigger",""
"html-button-response","86","137317","0.0-67.0-0.0","CKN_129","129","","","","","","1367","<button class=""jspsych-btn""><img src=""stimuli/pink.png"" style=""width: 200px;height: 200px;""></button>","0","pink","mustard","[""pink"",""mustard"",""low nameability""]","left-right","[""pink"",""mustard"",""low nameability""]","2","low nameability","16","left","response","1"
"html-audio-button-response","87","137521","0.0-67.0-1.0","CKN_129","129","","","","","","null","stimuli/bleep.m4a","null","pink","mustard","[""pink"",""mustard"",""low nameability""]","left-right","[""pink"",""mustard"",""low nameability""]","2","low nameability","16","left","audio_feedback","1"
"html-button-response","88","138045","0.0-68.0","CKN_129","129","","","","","","null","<button class=""jspsych-btn""><img src=""stimuli/white_square.png"" style=""width: 200px;height: 200px;""></button>","null","pink","mustard","[""pink"",""mustard"",""low nameability""]","left-right","[""pink"",""mustard"",""low nameability""]","2","low nameability","16","left","iti",""
"html-button-response","89","141834","0.0-69.0","CKN_129","129","","","","","","3777","","0","darkgreenblue","pink","[""darkgreenblue"",""pink"",""low nameability""]","left-right","[""darkgreenblue"",""pink"",""low nameability""]","2","low nameability","17","left","trigger",""
"html-button-response","90","143178","0.0-70.0-0.0","CKN_129","129","","","","","","1336","<button class=""jspsych-btn""><img src=""stimuli/darkgreenblue.png"" style=""width: 200px;height: 200px;""></button>","0","darkgreenblue","pink","[""darkgreenblue"",""pink"",""low nameability""]","left-right","[""darkgreenblue"",""pink"",""low nameability""]","2","low nameability","17","left","response","1"
"html-audio-button-response","91","143391","0.0-70.0-1.0","CKN_129","129","","","","","","null","stimuli/bleep.m4a","null","darkgreenblue","pink","[""darkgreenblue"",""pink"",""low nameability""]","left-right","[""darkgreenblue"",""pink"",""low nameability""]","2","low nameability","17","left","audio_feedback","1"
"html-button-response","92","143912","0.0-71.0","CKN_129","129","","","","","","null","<button class=""jspsych-btn""><img src=""stimuli/white_square.png"" style=""width: 200px;height: 200px;""></button>","null","darkgreenblue","pink","[""darkgreenblue"",""pink"",""low nameability""]","left-right","[""darkgreenblue"",""pink"",""low nameability""]","2","low nameability","17","left","iti",""
"html-button-response","93","146171","0.0-72.0","CKN_129","129","","","","","","2244","","0","darkgreenblue","neonyellow","[""darkgreenblue"",""neonyellow"",""low nameability""]","right-left","[""neonyellow"",""darkgreenblue""]","2","low nameability","18","right","trigger",""
"html-button-response","94","147586","0.0-73.0-0.0","CKN_129","129","","","","","","1402","<button class=""jspsych-btn""><img src=""stimuli/darkgreenblue.png"" style=""width: 200px;height: 200px;""></button>","1","darkgreenblue","neonyellow","[""darkgreenblue"",""neonyellow"",""low nameability""]","right-left","[""neonyellow"",""darkgreenblue""]","2","low nameability","18","right","response","1"
"html-audio-button-response","95","147792","0.0-73.0-1.0","CKN_129","129","","","","","","null","stimuli/bleep.m4a","null","darkgreenblue","neonyellow","[""darkgreenblue"",""neonyellow"",""low nameability""]","right-left","[""neonyellow"",""darkgreenblue""]","2","low nameability","18","right","audio_feedback","1"
"html-button-response","96","148303","0.0-74.0","CKN_129","129","","","","","","null","<button class=""jspsych-btn""><img src=""stimuli/white_square.png"" style=""width: 200px;height: 200px;""></button>","null","darkgreenblue","neonyellow","[""darkgreenblue"",""neonyellow"",""low nameability""]","right-left","[""neonyellow"",""darkgreenblue""]","2","low nameability","18","right","iti",""
"html-button-response","97","149518","0.0-75.0","CKN_129","129","","","","","","1201","","0","darkgreenblue","lightred","[""darkgreenblue"",""lightred"",""low nameability""]","left-right","[""darkgreenblue"",""lightred"",""low nameability""]","2","low nameability","19","left","trigger",""
"html-button-response","98","150975","0.0-76.0-0.0","CKN_129","129","","","","","","1448","<button class=""jspsych-btn""><img src=""stimuli/darkgreenblue.png"" style=""width: 200px;height: 200px;""></button>","0","darkgreenblue","lightred","[""darkgreenblue"",""lightred"",""low nameability""]","left-right","[""darkgreenblue"",""lightred"",""low nameability""]","2","low nameability","19","left","response","1"
"html-audio-button-response","99","151181","0.0-76.0-1.0","CKN_129","129","","","","","","null","stimuli/bleep.m4a","null","darkgreenblue","lightred","[""darkgreenblue"",""lightred"",""low nameability""]","left-right","[""darkgreenblue"",""lightred"",""low nameability""]","2","low nameability","19","left","audio_feedback","1"
"html-button-response","100","151699","0.0-77.0","CKN_129","129","","","","","","null","<button class=""jspsych-btn""><img src=""stimuli/white_square.png"" style=""width: 200px;height: 200px;""></button>","null","darkgreenblue","lightred","[""darkgreenblue"",""lightred"",""low nameability""]","left-right","[""darkgreenblue"",""lightred"",""low nameability""]","2","low nameability","19","left","iti",""
"html-button-response","101","152847","0.0-78.0","CKN_129","129","","","","","","1137","","0","red","purple","[""red"",""purple"",""high nameability""]","left-right","[""red"",""purple"",""high nameability""]","2","high nameability","20","left","trigger",""
"html-button-response","102","154113","0.0-79.0-0.0","CKN_129","129","","","","","","1256","<button class=""jspsych-btn""><img src=""stimuli/red.png"" style=""width: 200px;height: 200px;""></button>","0","red","purple","[""red"",""purple"",""high nameability""]","left-right","[""red"",""purple"",""high nameability""]","2","high nameability","20","left","response","1"
"html-audio-button-response","103","154322","0.0-79.0-1.0","CKN_129","129","","","","","","null","stimuli/bleep.m4a","null","red","purple","[""red"",""purple"",""high nameability""]","left-right","[""red"",""purple"",""high nameability""]","2","high nameability","20","left","audio_feedback","1"
"html-button-response","104","154841","0.0-80.0","CKN_129","129","","","","","","null","<button class=""jspsych-btn""><img src=""stimuli/white_square.png"" style=""width: 200px;height: 200px;""></button>","null","red","purple","[""red"",""purple"",""high nameability""]","left-right","[""red"",""purple"",""high nameability""]","2","high nameability","20","left","iti",""
"pavlovia","105","154915","0.0-81.0","CKN_129","129","","","","","","","","","","","","","","","","","","",""
"pavlovia","106","154924","0.0-82.0","CKN_129","129","","","","","","","","","","","","","","","","","","",""
"html-audio-button-response","107","161299","0.0-83.0","CKN_129","129","","","","","","6456","stimuli/tada.m4a","0","","","","","","","","","","",""
"html-button-response","108","161748","0.0-84.0","CKN_129","129","","","","","","442","","0","","","","","","","","","","",""
"html-button-response","109","163674","0.0-85.0","CKN_129","129","","","","","","1916","","0","orange","blue","[""orange"",""blue"",""high nameability""]","right-left","[""blue"",""orange""]","3","high nameability","21","right","trigger",""
"html-button-response","110","164893","0.0-86.0-0.0","CKN_129","129","","","","","","1213","<button class=""jspsych-btn""><img src=""stimuli/orange.png"" style=""width: 200px;height: 200px;""></button>","1","orange","blue","[""orange"",""blue"",""high nameability""]","right-left","[""blue"",""orange""]","3","high nameability","21","right","response","1"
"html-audio-button-response","111","165097","0.0-86.0-1.0","CKN_129","129","","","","","","null","stimuli/bleep.m4a","null","orange","blue","[""orange"",""blue"",""high nameability""]","right-left","[""blue"",""orange""]","3","high nameability","21","right","audio_feedback","1"
"html-button-response","112","165613","0.0-87.0","CKN_129","129","","","","","","null","<button class=""jspsych-btn""><img src=""stimuli/white_square.png"" style=""width: 200px;height: 200px;""></button>","null","orange","blue","[""orange"",""blue"",""high nameability""]","right-left","[""blue"",""orange""]","3","high nameability","21","right","iti",""
"html-button-response","113","168201","0.0-88.0","CKN_129","129","","","","","","2575","","0","lightred","turquoise","[""lightred"",""turquoise"",""low nameability""]","left-right","[""lightred"",""turquoise"",""low nameability""]","3","low nameability","22","left","trigger",""
"html-button-response","114","171683","0.0-89.0-0.0","CKN_129","129","","","","","","3469","<button class=""jspsych-btn""><img src=""stimuli/lightred.png"" style=""width: 200px;height: 200px;""></button>","0","lightred","turquoise","[""lightred"",""turquoise"",""low nameability""]","left-right","[""lightred"",""turquoise"",""low nameability""]","3","low nameability","22","left","response","1"
"html-audio-button-response","115","171902","0.0-89.0-1.0","CKN_129","129","","","","","","null","stimuli/bleep.m4a","null","lightred","turquoise","[""lightred"",""turquoise"",""low nameability""]","left-right","[""lightred"",""turquoise"",""low nameability""]","3","low nameability","22","left","audio_feedback","1"
"html-button-response","116","172431","0.0-90.0","CKN_129","129","","","","","","null","<button class=""jspsych-btn""><img src=""stimuli/white_square.png"" style=""width: 200px;height: 200px;""></button>","null","lightred","turquoise","[""lightred"",""turquoise"",""low nameability""]","left-right","[""lightred"",""turquoise"",""low nameability""]","3","low nameability","22","left","iti",""
"html-button-response","117","175177","0.0-91.0","CKN_129","129","","","","","","2721","","0","purple","brown","[""purple"",""brown"",""high nameability""]","right-left","[""brown"",""purple""]","3","high nameability","23","right","trigger",""
"html-button-response","118","176629","0.0-92.0-0.0","CKN_129","129","","","","","","1432","<button class=""jspsych-btn""><img src=""stimuli/purple.png"" style=""width: 200px;height: 200px;""></button>","1","purple","brown","[""purple"",""brown"",""high nameability""]","right-left","[""brown"",""purple""]","3","high nameability","23","right","response","1"
"html-audio-button-response","119","176845","0.0-92.0-1.0","CKN_129","129","","","","","","null","stimuli/bleep.m4a","null","purple","brown","[""purple"",""brown"",""high nameability""]","right-left","[""brown"",""purple""]","3","high nameability","23","right","audio_feedback","1"
"html-button-response","120","177366","0.0-93.0","CKN_129","129","","","","","","null","<button class=""jspsych-btn""><img src=""stimuli/white_square.png"" style=""width: 200px;height: 200px;""></button>","null","purple","brown","[""purple"",""brown"",""high nameability""]","right-left","[""brown"",""purple""]","3","high nameability","23","right","iti",""
"html-button-response","121","178852","0.0-94.0","CKN_129","129","","","","","","1474","","0","turquoise","lightred","[""turquoise"",""lightred"",""low nameability""]","left-right","[""turquoise"",""lightred"",""low nameability""]","3","low nameability","24","left","trigger",""
"html-button-response","122","180278","0.0-95.0-0.0","CKN_129","129","","","","","","1416","<button class=""jspsych-btn""><img src=""stimuli/turquoise.png"" style=""width: 200px;height: 200px;""></button>","0","turquoise","lightred","[""turquoise"",""lightred"",""low nameability""]","left-right","[""turquoise"",""lightred"",""low nameability""]","3","low nameability","24","left","response","1"
"html-audio-button-response","123","180486","0.0-95.0-1.0","CKN_129","129","","","","","","null","stimuli/bleep.m4a","null","turquoise","lightred","[""turquoise"",""lightred"",""low nameability""]","left-right","[""turquoise"",""lightred"",""low nameability""]","3","low nameability","24","left","audio_feedback","1"
"html-button-response","124","181001","0.0-96.0","CKN_129","129","","","","","","null","<button class=""jspsych-btn""><img src=""stimuli/white_square.png"" style=""width: 200px;height: 200px;""></button>","null","turquoise","lightred","[""turquoise"",""lightred"",""low nameability""]","left-right","[""turquoise"",""lightred"",""low nameability""]","3","low nameability","24","left","iti",""
"html-button-response","125","182910","0.0-97.0","CKN_129","129","","","","","","1892","","0","turquoise","mustard","[""turquoise"",""mustard"",""low nameability""]","right-left","[""mustard"",""turquoise""]","3","low nameability","25","right","trigger",""
"html-button-response","126","185250","0.0-98.0-0.0","CKN_129","129","","","","","","2332","<button class=""jspsych-btn""><img src=""stimuli/turquoise.png"" style=""width: 200px;height: 200px;""></button>","1","turquoise","mustard","[""turquoise"",""mustard"",""low nameability""]","right-left","[""mustard"",""turquoise""]","3","low nameability","25","right","response","1"
"html-audio-button-response","127","185455","0.0-98.0-1.0","CKN_129","129","","","","","","null","stimuli/bleep.m4a","null","turquoise","mustard","[""turquoise"",""mustard"",""low nameability""]","right-left","[""mustard"",""turquoise""]","3","low nameability","25","right","audio_feedback","1"
"html-button-response","128","185969","0.0-99.0","CKN_129","129","","","","","","null","<button class=""jspsych-btn""><img src=""stimuli/white_square.png"" style=""width: 200px;height: 200px;""></button>","null","turquoise","mustard","[""turquoise"",""mustard"",""low nameability""]","right-left","[""mustard"",""turquoise""]","3","low nameability","25","right","iti",""
"html-button-response","129","187240","0.0-100.0","CKN_129","129","","","","","","1253","","0","yellow","orange","[""yellow"",""orange"",""high nameability""]","right-left","[""orange"",""yellow""]","3","high nameability","26","right","trigger",""
"html-button-response","130","188384","0.0-101.0-0.0","CKN_129","129","","","","","","1131","<button class=""jspsych-btn""><img src=""stimuli/yellow.png"" style=""width: 200px;height: 200px;""></button>","1","yellow","orange","[""yellow"",""orange"",""high nameability""]","right-left","[""orange"",""yellow""]","3","high nameability","26","right","response","1"
"html-audio-button-response","131","188595","0.0-101.0-1.0","CKN_129","129","","","","","","null","stimuli/bleep.m4a","null","yellow","orange","[""yellow"",""orange"",""high nameability""]","right-left","[""orange"",""yellow""]","3","high nameability","26","right","audio_feedback","1"
"html-button-response","132","189109","0.0-102.0","CKN_129","129","","","","","","null","<button class=""jspsych-btn""><img src=""stimuli/white_square.png"" style=""width: 200px;height: 200px;""></button>","null","yellow","orange","[""yellow"",""orange"",""high nameability""]","right-left","[""orange"",""yellow""]","3","high nameability","26","right","iti",""
"html-button-response","133","190477","0.0-103.0","CKN_129","129","","","","","","1351","","0","purple","blue","[""purple"",""blue"",""high nameability""]","right-left","[""blue"",""purple""]","3","high nameability","27","right","trigger",""
"html-button-response","134","191779","0.0-104.0-0.0","CKN_129","129","","","","","","1292","<button class=""jspsych-btn""><img src=""stimuli/purple.png"" style=""width: 200px;height: 200px;""></button>","1","purple","blue","[""purple"",""blue"",""high nameability""]","right-left","[""blue"",""purple""]","3","high nameability","27","right","response","1"
"html-audio-button-response","135","191986","0.0-104.0-1.0","CKN_129","129","","","","","","null","stimuli/bleep.m4a","null","purple","blue","[""purple"",""blue"",""high nameability""]","right-left","[""blue"",""purple""]","3","high nameability","27","right","audio_feedback","1"
"html-button-response","136","192500","0.0-105.0","CKN_129","129","","","","","","null","<button class=""jspsych-btn""><img src=""stimuli/white_square.png"" style=""width: 200px;height: 200px;""></button>","null","purple","blue","[""purple"",""blue"",""high nameability""]","right-left","[""blue"",""purple""]","3","high nameability","27","right","iti",""
"html-button-response","137","193575","0.0-106.0","CKN_129","129","","","","","","1063","","0","neonyellow","mustard","[""neonyellow"",""mustard"",""low nameability""]","right-left","[""mustard"",""neonyellow""]","3","low nameability","28","right","trigger",""
"html-button-response","138","196177","0.0-107.0-0.0","CKN_129","129","","","","","","2591","<button class=""jspsych-btn""><img src=""stimuli/neonyellow.png"" style=""width: 200px;height: 200px;""></button>","1","neonyellow","mustard","[""neonyellow"",""mustard"",""low nameability""]","right-left","[""mustard"",""neonyellow""]","3","low nameability","28","right","response","1"
"html-audio-button-response","139","196386","0.0-107.0-1.0","CKN_129","129","","","","","","null","stimuli/bleep.m4a","null","neonyellow","mustard","[""neonyellow"",""mustard"",""low nameability""]","right-left","[""mustard"",""neonyellow""]","3","low nameability","28","right","audio_feedback","1"
"html-button-response","140","196899","0.0-108.0","CKN_129","129","","","","","","null","<button class=""jspsych-btn""><img src=""stimuli/white_square.png"" style=""width: 200px;height: 200px;""></button>","null","neonyellow","mustard","[""neonyellow"",""mustard"",""low nameability""]","right-left","[""mustard"",""neonyellow""]","3","low nameability","28","right","iti",""
"html-button-response","141","197741","0.0-109.0","CKN_129","129","","","","","","827","","0","blue","red","[""blue"",""red"",""high nameability""]","left-right","[""blue"",""red"",""high nameability""]","3","high nameability","29","left","trigger",""
"html-button-response","142","199202","0.0-110.0-0.0","CKN_129","129","","","","","","1453","<button class=""jspsych-btn""><img src=""stimuli/blue.png"" style=""width: 200px;height: 200px;""></button>","0","blue","red","[""blue"",""red"",""high nameability""]","left-right","[""blue"",""red"",""high nameability""]","3","high nameability","29","left","response","1"
"html-audio-button-response","143","199410","0.0-110.0-1.0","CKN_129","129","","","","","","null","stimuli/bleep.m4a","null","blue","red","[""blue"",""red"",""high nameability""]","left-right","[""blue"",""red"",""high nameability""]","3","high nameability","29","left","audio_feedback","1"
"html-button-response","144","199927","0.0-111.0","CKN_129","129","","","","","","null","<button class=""jspsych-btn""><img src=""stimuli/white_square.png"" style=""width: 200px;height: 200px;""></button>","null","blue","red","[""blue"",""red"",""high nameability""]","left-right","[""blue"",""red"",""high nameability""]","3","high nameability","29","left","iti",""
"html-button-response","145","200825","0.0-112.0","CKN_129","129","","","","","","885","","0","blue","purple","[""blue"",""purple"",""high nameability""]","right-left","[""purple"",""blue""]","3","high nameability","30","right","trigger",""
"html-button-response","146","202926","0.0-113.0-0.0","CKN_129","129","","","","","","2093","<button class=""jspsych-btn""><img src=""stimuli/blue.png"" style=""width: 200px;height: 200px;""></button>","1","blue","purple","[""blue"",""purple"",""high nameability""]","right-left","[""purple"",""blue""]","3","high nameability","30","right","response","1"
"html-audio-button-response","147","203135","0.0-113.0-1.0","CKN_129","129","","","","","","null","stimuli/bleep.m4a","null","blue","purple","[""blue"",""purple"",""high nameability""]","right-left","[""purple"",""blue""]","3","high nameability","30","right","audio_feedback","1"
"html-button-response","148","203646","0.0-114.0","CKN_129","129","","","","","","null","<button class=""jspsych-btn""><img src=""stimuli/white_square.png"" style=""width: 200px;height: 200px;""></button>","null","blue","purple","[""blue"",""purple"",""high nameability""]","right-left","[""purple"",""blue""]","3","high nameability","30","right","iti",""
"pavlovia","149","203717","0.0-115.0","CKN_129","129","","","","","","","","","","","","","","","","","","",""
"pavlovia","150","203727","0.0-116.0","CKN_129","129","","","","","","","","","","","","","","","","","","",""
"html-audio-button-response","151","209444","0.0-117.0","CKN_129","129","","","","","","5792","stimuli/tada.m4a","0","","","","","","","","","","",""
"html-button-response","152","209971","0.0-118.0","CKN_129","129","","","","","","521","","0","","","","","","","","","","",""
"html-button-response","153","211224","0.0-119.0","CKN_129","129","","","","","","1244","","0","lightred","neonyellow","[""lightred"",""neonyellow"",""low nameability""]","right-left","[""neonyellow"",""lightred""]","4","low nameability","31","right","trigger",""
"html-button-response","154","212479","0.0-120.0-0.0","CKN_129","129","","","","","","1246","<button class=""jspsych-btn""><img src=""stimuli/lightred.png"" style=""width: 200px;height: 200px;""></button>","1","lightred","neonyellow","[""lightred"",""neonyellow"",""low nameability""]","right-left","[""neonyellow"",""lightred""]","4","low nameability","31","right","response","1"
"html-audio-button-response","155","212684","0.0-120.0-1.0","CKN_129","129","","","","","","null","stimuli/bleep.m4a","null","lightred","neonyellow","[""lightred"",""neonyellow"",""low nameability""]","right-left","[""neonyellow"",""lightred""]","4","low nameability","31","right","audio_feedback","1"
"html-button-response","156","213197","0.0-121.0","CKN_129","129","","","","","","null","<button class=""jspsych-btn""><img src=""stimuli/white_square.png"" style=""width: 200px;height: 200px;""></button>","null","lightred","neonyellow","[""lightred"",""neonyellow"",""low nameability""]","right-left","[""neonyellow"",""lightred""]","4","low nameability","31","right","iti",""
"html-button-response","157","214704","0.0-122.0","CKN_129","129","","","","","","1493","","0","red","orange","[""red"",""orange"",""high nameability""]","left-right","[""red"",""orange"",""high nameability""]","4","high nameability","32","left","trigger",""
"html-button-response","158","215935","0.0-123.0-0.0","CKN_129","129","","","","","","1222","<button class=""jspsych-btn""><img src=""stimuli/red.png"" style=""width: 200px;height: 200px;""></button>","0","red","orange","[""red"",""orange"",""high nameability""]","left-right","[""red"",""orange"",""high nameability""]","4","high nameability","32","left","response","1"
"html-audio-button-response","159","216141","0.0-123.0-1.0","CKN_129","129","","","","","","null","stimuli/bleep.m4a","null","red","orange","[""red"",""orange"",""high nameability""]","left-right","[""red"",""orange"",""high nameability""]","4","high nameability","32","left","audio_feedback","1"
"html-button-response","160","216657","0.0-124.0","CKN_129","129","","","","","","null","<button class=""jspsych-btn""><img src=""stimuli/white_square.png"" style=""width: 200px;height: 200px;""></button>","null","red","orange","[""red"",""orange"",""high nameability""]","left-right","[""red"",""orange"",""high nameability""]","4","high nameability","32","left","iti",""
"html-button-response","161","218168","0.0-125.0","CKN_129","129","","","","","","1500","","0","darkgreenblue","turquoise","[""darkgreenblue"",""turquoise"",""low nameability""]","right-left","[""turquoise"",""darkgreenblue""]","4","low nameability","33","right","trigger",""
"html-button-response","162","219218","0.0-126.0-0.0","CKN_129","129","","","","","","1037","<button class=""jspsych-btn""><img src=""stimuli/darkgreenblue.png"" style=""width: 200px;height: 200px;""></button>","1","darkgreenblue","turquoise","[""darkgreenblue"",""turquoise"",""low nameability""]","right-left","[""turquoise"",""darkgreenblue""]","4","low nameability","33","right","response","1"
"html-audio-button-response","163","219426","0.0-126.0-1.0","CKN_129","129","","","","","","null","stimuli/bleep.m4a","null","darkgreenblue","turquoise","[""darkgreenblue"",""turquoise"",""low nameability""]","right-left","[""turquoise"",""darkgreenblue""]","4","low nameability","33","right","audio_feedback","1"
"html-button-response","164","219944","0.0-127.0","CKN_129","129","","","","","","null","<button class=""jspsych-btn""><img src=""stimuli/white_square.png"" style=""width: 200px;height: 200px;""></button>","null","darkgreenblue","turquoise","[""darkgreenblue"",""turquoise"",""low nameability""]","right-left","[""turquoise"",""darkgreenblue""]","4","low nameability","33","right","iti",""
"html-button-response","165","220907","0.0-128.0","CKN_129","129","","","","","","952","","0","neonyellow","lightred","[""neonyellow"",""lightred"",""low nameability""]","left-right","[""neonyellow"",""lightred"",""low nameability""]","4","low nameability","34","left","trigger",""
"html-button-response","166","222712","0.0-129.0-0.0","CKN_129","129","","","","","","1792","<button class=""jspsych-btn""><img src=""stimuli/neonyellow.png"" style=""width: 200px;height: 200px;""></button>","0","neonyellow","lightred","[""neonyellow"",""lightred"",""low nameability""]","left-right","[""neonyellow"",""lightred"",""low nameability""]","4","low nameability","34","left","response","1"
"html-audio-button-response","167","222918","0.0-129.0-1.0","CKN_129","129","","","","","","null","stimuli/bleep.m4a","null","neonyellow","lightred","[""neonyellow"",""lightred"",""low nameability""]","left-right","[""neonyellow"",""lightred"",""low nameability""]","4","low nameability","34","left","audio_feedback","1"
"html-button-response","168","223434","0.0-130.0","CKN_129","129","","","","","","null","<button class=""jspsych-btn""><img src=""stimuli/white_square.png"" style=""width: 200px;height: 200px;""></button>","null","neonyellow","lightred","[""neonyellow"",""lightred"",""low nameability""]","left-right","[""neonyellow"",""lightred"",""low nameability""]","4","low nameability","34","left","iti",""
"html-button-response","169","225582","0.0-131.0","CKN_129","129","","","","","","2135","","0","neonyellow","darkgreenblue","[""neonyellow"",""darkgreenblue"",""low nameability""]","left-right","[""neonyellow"",""darkgreenblue"",""low nameability""]","4","low nameability","35","left","trigger",""
"html-button-response","170","226692","0.0-132.0-0.0","CKN_129","129","","","","","","1102","<button class=""jspsych-btn""><img src=""stimuli/neonyellow.png"" style=""width: 200px;height: 200px;""></button>","0","neonyellow","darkgreenblue","[""neonyellow"",""darkgreenblue"",""low nameability""]","left-right","[""neonyellow"",""darkgreenblue"",""low nameability""]","4","low nameability","35","left","response","1"
"html-audio-button-response","171","226895","0.0-132.0-1.0","CKN_129","129","","","","","","null","stimuli/bleep.m4a","null","neonyellow","darkgreenblue","[""neonyellow"",""darkgreenblue"",""low nameability""]","left-right","[""neonyellow"",""darkgreenblue"",""low nameability""]","4","low nameability","35","left","audio_feedback","1"
"html-button-response","172","227415","0.0-133.0","CKN_129","129","","","","","","null","<button class=""jspsych-btn""><img src=""stimuli/white_square.png"" style=""width: 200px;height: 200px;""></button>","null","neonyellow","darkgreenblue","[""neonyellow"",""darkgreenblue"",""low nameability""]","left-right","[""neonyellow"",""darkgreenblue"",""low nameability""]","4","low nameability","35","left","iti",""
"html-button-response","173","228340","0.0-134.0","CKN_129","129","","","","","","911","","0","blue","yellow","[""blue"",""yellow"",""high nameability""]","right-left","[""yellow"",""blue""]","4","high nameability","36","right","trigger",""
"html-button-response","174","229619","0.0-135.0-0.0","CKN_129","129","","","","","","1268","<button class=""jspsych-btn""><img src=""stimuli/blue.png"" style=""width: 200px;height: 200px;""></button>","1","blue","yellow","[""blue"",""yellow"",""high nameability""]","right-left","[""yellow"",""blue""]","4","high nameability","36","right","response","1"
"html-audio-button-response","175","229821","0.0-135.0-1.0","CKN_129","129","","","","","","null","stimuli/bleep.m4a","null","blue","yellow","[""blue"",""yellow"",""high nameability""]","right-left","[""yellow"",""blue""]","4","high nameability","36","right","audio_feedback","1"
"html-button-response","176","230336","0.0-136.0","CKN_129","129","","","","","","null","<button class=""jspsych-btn""><img src=""stimuli/white_square.png"" style=""width: 200px;height: 200px;""></button>","null","blue","yellow","[""blue"",""yellow"",""high nameability""]","right-left","[""yellow"",""blue""]","4","high nameability","36","right","iti",""
"html-button-response","177","231400","0.0-137.0","CKN_129","129","","","","","","1051","","0","lightred","pink","[""lightred"",""pink"",""low nameability""]","left-right","[""lightred"",""pink"",""low nameability""]","4","low nameability","37","left","trigger",""
"html-button-response","178","232537","0.0-138.0-0.0","CKN_129","129","","","","","","1129","<button class=""jspsych-btn""><img src=""stimuli/lightred.png"" style=""width: 200px;height: 200px;""></button>","0","lightred","pink","[""lightred"",""pink"",""low nameability""]","left-right","[""lightred"",""pink"",""low nameability""]","4","low nameability","37","left","response","1"
"html-audio-button-response","179","232747","0.0-138.0-1.0","CKN_129","129","","","","","","null","stimuli/bleep.m4a","null","lightred","pink","[""lightred"",""pink"",""low nameability""]","left-right","[""lightred"",""pink"",""low nameability""]","4","low nameability","37","left","audio_feedback","1"
"html-button-response","180","233272","0.0-139.0","CKN_129","129","","","","","","null","<button class=""jspsych-btn""><img src=""stimuli/white_square.png"" style=""width: 200px;height: 200px;""></button>","null","lightred","pink","[""lightred"",""pink"",""low nameability""]","left-right","[""lightred"",""pink"",""low nameability""]","4","low nameability","37","left","iti",""
"html-button-response","181","235612","0.0-140.0","CKN_129","129","","","","","","2314","","0","mustard","lightred","[""mustard"",""lightred"",""low nameability""]","left-right","[""mustard"",""lightred"",""low nameability""]","4","low nameability","38","left","trigger",""
"html-button-response","182","237158","0.0-141.0-0.0","CKN_129","129","","","","","","1534","<button class=""jspsych-btn""><img src=""stimuli/mustard.png"" style=""width: 200px;height: 200px;""></button>","0","mustard","lightred","[""mustard"",""lightred"",""low nameability""]","left-right","[""mustard"",""lightred"",""low nameability""]","4","low nameability","38","left","response","1"
"html-audio-button-response","183","237378","0.0-141.0-1.0","CKN_129","129","","","","","","null","stimuli/bleep.m4a","null","mustard","lightred","[""mustard"",""lightred"",""low nameability""]","left-right","[""mustard"",""lightred"",""low nameability""]","4","low nameability","38","left","audio_feedback","1"
"html-button-response","184","237905","0.0-142.0","CKN_129","129","","","","","","null","<button class=""jspsych-btn""><img src=""stimuli/white_square.png"" style=""width: 200px;height: 200px;""></button>","null","mustard","lightred","[""mustard"",""lightred"",""low nameability""]","left-right","[""mustard"",""lightred"",""low nameability""]","4","low nameability","38","left","iti",""
"html-button-response","185","238211","0.0-143.0","CKN_129","129","","","","","","283","","0","orange","brown","[""orange"",""brown"",""high nameability""]","right-left","[""brown"",""orange""]","4","high nameability","39","right","trigger",""
"html-button-response","186","239508","0.0-144.0-0.0","CKN_129","129","","","","","","1285","<button class=""jspsych-btn""><img src=""stimuli/orange.png"" style=""width: 200px;height: 200px;""></button>","1","orange","brown","[""orange"",""brown"",""high nameability""]","right-left","[""brown"",""orange""]","4","high nameability","39","right","response","1"
"html-audio-button-response","187","239718","0.0-144.0-1.0","CKN_129","129","","","","","","null","stimuli/bleep.m4a","null","orange","brown","[""orange"",""brown"",""high nameability""]","right-left","[""brown"",""orange""]","4","high nameability","39","right","audio_feedback","1"
"html-button-response","188","240234","0.0-145.0","CKN_129","129","","","","","","null","<button class=""jspsych-btn""><img src=""stimuli/white_square.png"" style=""width: 200px;height: 200px;""></button>","null","orange","brown","[""orange"",""brown"",""high nameability""]","right-left","[""brown"",""orange""]","4","high nameability","39","right","iti",""
"html-button-response","189","241653","0.0-146.0","CKN_129","129","","","","","","1408","","0","turquoise","neonyellow","[""turquoise"",""neonyellow"",""low nameability""]","left-right","[""turquoise"",""neonyellow"",""low nameability""]","4","low nameability","40","left","trigger",""
"html-button-response","190","243367","0.0-147.0-0.0","CKN_129","129","","","","","","1706","<button class=""jspsych-btn""><img src=""stimuli/turquoise.png"" style=""width: 200px;height: 200px;""></button>","0","turquoise","neonyellow","[""turquoise"",""neonyellow"",""low nameability""]","left-right","[""turquoise"",""neonyellow"",""low nameability""]","4","low nameability","40","left","response","1"
"html-audio-button-response","191","243571","0.0-147.0-1.0","CKN_129","129","","","","","","null","stimuli/bleep.m4a","null","turquoise","neonyellow","[""turquoise"",""neonyellow"",""low nameability""]","left-right","[""turquoise"",""neonyellow"",""low nameability""]","4","low nameability","40","left","audio_feedback","1"
"html-button-response","192","244088","0.0-148.0","CKN_129","129","","","","","","null","<button class=""jspsych-btn""><img src=""stimuli/white_square.png"" style=""width: 200px;height: 200px;""></button>","null","turquoise","neonyellow","[""turquoise"",""neonyellow"",""low nameability""]","left-right","[""turquoise"",""neonyellow"",""low nameability""]","4","low nameability","40","left","iti",""
"pavlovia","193","244191","0.0-149.0","CKN_129","129","","","","","","","","","","","","","","","","","","",""
"pavlovia","194","244198","0.0-150.0","CKN_129","129","","","","","","","","","","","","","","","","","","",""
"html-audio-button-response","195","247076","0.0-151.0","CKN_129","129","","","","","","2992","stimuli/tada.m4a","0","","","","","","","","","","",""
"html-button-response","196","247482","0.0-152.0","CKN_129","129","","","","","","401","","0","","","","","","","","","","",""
"html-button-response","197","248833","0.0-153.0","CKN_129","129","","","","","","1345","","0","yellow","brown","[""yellow"",""brown"",""high nameability""]","right-left","[""brown"",""yellow""]","5","high nameability","41","right","trigger",""
"html-button-response","198","249949","0.0-154.0-0.0","CKN_129","129","","","","","","1107","<button class=""jspsych-btn""><img src=""stimuli/yellow.png"" style=""width: 200px;height: 200px;""></button>","1","yellow","brown","[""yellow"",""brown"",""high nameability""]","right-left","[""brown"",""yellow""]","5","high nameability","41","right","response","1"
"html-audio-button-response","199","250154","0.0-154.0-1.0","CKN_129","129","","","","","","null","stimuli/bleep.m4a","null","yellow","brown","[""yellow"",""brown"",""high nameability""]","right-left","[""brown"",""yellow""]","5","high nameability","41","right","audio_feedback","1"
"html-button-response","200","250668","0.0-155.0","CKN_129","129","","","","","","null","<button class=""jspsych-btn""><img src=""stimuli/white_square.png"" style=""width: 200px;height: 200px;""></button>","null","yellow","brown","[""yellow"",""brown"",""high nameability""]","right-left","[""brown"",""yellow""]","5","high nameability","41","right","iti",""
"html-button-response","201","251575","0.0-156.0","CKN_129","129","","","","","","890","","0","blue","brown","[""blue"",""brown"",""high nameability""]","right-left","[""brown"",""blue""]","5","high nameability","42","right","trigger",""
"html-button-response","202","252534","0.0-157.0-0.0","CKN_129","129","","","","","","949","<button class=""jspsych-btn""><img src=""stimuli/blue.png"" style=""width: 200px;height: 200px;""></button>","1","blue","brown","[""blue"",""brown"",""high nameability""]","right-left","[""brown"",""blue""]","5","high nameability","42","right","response","1"
"html-audio-button-response","203","252735","0.0-157.0-1.0","CKN_129","129","","","","","","null","stimuli/bleep.m4a","null","blue","brown","[""blue"",""brown"",""high nameability""]","right-left","[""brown"",""blue""]","5","high nameability","42","right","audio_feedback","1"
"html-button-response","204","253247","0.0-158.0","CKN_129","129","","","","","","null","<button class=""jspsych-btn""><img src=""stimuli/white_square.png"" style=""width: 200px;height: 200px;""></button>","null","blue","brown","[""blue"",""brown"",""high nameability""]","right-left","[""brown"",""blue""]","5","high nameability","42","right","iti",""
"html-button-response","205","253839","0.0-159.0","CKN_129","129","","","","","","571","","0","blue","orange","[""blue"",""orange"",""high nameability""]","left-right","[""blue"",""orange"",""high nameability""]","5","high nameability","43","left","trigger",""
"html-button-response","206","255050","0.0-160.0-0.0","CKN_129","129","","","","","","1204","<button class=""jspsych-btn""><img src=""stimuli/blue.png"" style=""width: 200px;height: 200px;""></button>","0","blue","orange","[""blue"",""orange"",""high nameability""]","left-right","[""blue"",""orange"",""high nameability""]","5","high nameability","43","left","response","1"
"html-audio-button-response","207","255257","0.0-160.0-1.0","CKN_129","129","","","","","","null","stimuli/bleep.m4a","null","blue","orange","[""blue"",""orange"",""high nameability""]","left-right","[""blue"",""orange"",""high nameability""]","5","high nameability","43","left","audio_feedback","1"
"html-button-response","208","255781","0.0-161.0","CKN_129","129","","","","","","null","<button class=""jspsych-btn""><img src=""stimuli/white_square.png"" style=""width: 200px;height: 200px;""></button>","null","blue","orange","[""blue"",""orange"",""high nameability""]","left-right","[""blue"",""orange"",""high nameability""]","5","high nameability","43","left","iti",""
"html-button-response","209","256610","0.0-162.0","CKN_129","129","","","","","","810","","0","yellow","blue","[""yellow"",""blue"",""high nameability""]","right-left","[""blue"",""yellow""]","5","high nameability","44","right","trigger",""
"html-button-response","210","257993","0.0-163.0-0.0","CKN_129","129","","","","","","1374","<button class=""jspsych-btn""><img src=""stimuli/yellow.png"" style=""width: 200px;height: 200px;""></button>","1","yellow","blue","[""yellow"",""blue"",""high nameability""]","right-left","[""blue"",""yellow""]","5","high nameability","44","right","response","1"
"html-audio-button-response","211","258196","0.0-163.0-1.0","CKN_129","129","","","","","","null","stimuli/bleep.m4a","null","yellow","blue","[""yellow"",""blue"",""high nameability""]","right-left","[""blue"",""yellow""]","5","high nameability","44","right","audio_feedback","1"
"html-button-response","212","258711","0.0-164.0","CKN_129","129","","","","","","null","<button class=""jspsych-btn""><img src=""stimuli/white_square.png"" style=""width: 200px;height: 200px;""></button>","null","yellow","blue","[""yellow"",""blue"",""high nameability""]","right-left","[""blue"",""yellow""]","5","high nameability","44","right","iti",""
"html-button-response","213","259442","0.0-165.0","CKN_129","129","","","","","","724","","0","brown","red","[""brown"",""red"",""high nameability""]","right-left","[""red"",""brown""]","5","high nameability","45","right","trigger",""
"html-button-response","214","261928","0.0-166.0-0.0","CKN_129","129","","","","","","2478","<button class=""jspsych-btn""><img src=""stimuli/brown.png"" style=""width: 200px;height: 200px;""></button>","1","brown","red","[""brown"",""red"",""high nameability""]","right-left","[""red"",""brown""]","5","high nameability","45","right","response","1"
"html-audio-button-response","215","262132","0.0-166.0-1.0","CKN_129","129","","","","","","null","stimuli/bleep.m4a","null","brown","red","[""brown"",""red"",""high nameability""]","right-left","[""red"",""brown""]","5","high nameability","45","right","audio_feedback","1"
"html-button-response","216","262647","0.0-167.0","CKN_129","129","","","","","","null","<button class=""jspsych-btn""><img src=""stimuli/white_square.png"" style=""width: 200px;height: 200px;""></button>","null","brown","red","[""brown"",""red"",""high nameability""]","right-left","[""red"",""brown""]","5","high nameability","45","right","iti",""
"html-button-response","217","263073","0.0-168.0","CKN_129","129","","","","","","410","","0","turquoise","pink","[""turquoise"",""pink"",""low nameability""]","right-left","[""pink"",""turquoise""]","5","low nameability","46","right","trigger",""
"html-button-response","218","264326","0.0-169.0-0.0","CKN_129","129","","","","","","1245","<button class=""jspsych-btn""><img src=""stimuli/turquoise.png"" style=""width: 200px;height: 200px;""></button>","1","turquoise","pink","[""turquoise"",""pink"",""low nameability""]","right-left","[""pink"",""turquoise""]","5","low nameability","46","right","response","1"
"html-audio-button-response","219","264530","0.0-169.0-1.0","CKN_129","129","","","","","","null","stimuli/bleep.m4a","null","turquoise","pink","[""turquoise"",""pink"",""low nameability""]","right-left","[""pink"",""turquoise""]","5","low nameability","46","right","audio_feedback","1"
"html-button-response","220","265046","0.0-170.0","CKN_129","129","","","","","","null","<button class=""jspsych-btn""><img src=""stimuli/white_square.png"" style=""width: 200px;height: 200px;""></button>","null","turquoise","pink","[""turquoise"",""pink"",""low nameability""]","right-left","[""pink"",""turquoise""]","5","low nameability","46","right","iti",""
"html-button-response","221","265722","0.0-171.0","CKN_129","129","","","","","","667","","0","purple","red","[""purple"",""red"",""high nameability""]","left-right","[""purple"",""red"",""high nameability""]","5","high nameability","47","left","trigger",""
"html-button-response","222","269816","0.0-172.0-0.0","CKN_129","129","","","","","","4084","<button class=""jspsych-btn""><img src=""stimuli/purple.png"" style=""width: 200px;height: 200px;""></button>","0","purple","red","[""purple"",""red"",""high nameability""]","left-right","[""purple"",""red"",""high nameability""]","5","high nameability","47","left","response","1"
"html-audio-button-response","223","270019","0.0-172.0-1.0","CKN_129","129","","","","","","null","stimuli/bleep.m4a","null","purple","red","[""purple"",""red"",""high nameability""]","left-right","[""purple"",""red"",""high nameability""]","5","high nameability","47","left","audio_feedback","1"
"html-button-response","224","270531","0.0-173.0","CKN_129","129","","","","","","null","<button class=""jspsych-btn""><img src=""stimuli/white_square.png"" style=""width: 200px;height: 200px;""></button>","null","purple","red","[""purple"",""red"",""high nameability""]","left-right","[""purple"",""red"",""high nameability""]","5","high nameability","47","left","iti",""
"html-button-response","225","271359","0.0-174.0","CKN_129","129","","","","","","814","","0","mustard","darkgreenblue","[""mustard"",""darkgreenblue"",""low nameability""]","left-right","[""mustard"",""darkgreenblue"",""low nameability""]","5","low nameability","48","left","trigger",""
"html-button-response","226","274758","0.0-175.0-0.0","CKN_129","129","","","","","","3390","<button class=""jspsych-btn""><img src=""stimuli/mustard.png"" style=""width: 200px;height: 200px;""></button>","0","mustard","darkgreenblue","[""mustard"",""darkgreenblue"",""low nameability""]","left-right","[""mustard"",""darkgreenblue"",""low nameability""]","5","low nameability","48","left","response","1"
"html-audio-button-response","227","274963","0.0-175.0-1.0","CKN_129","129","","","","","","null","stimuli/bleep.m4a","null","mustard","darkgreenblue","[""mustard"",""darkgreenblue"",""low nameability""]","left-right","[""mustard"",""darkgreenblue"",""low nameability""]","5","low nameability","48","left","audio_feedback","1"
"html-button-response","228","275476","0.0-176.0","CKN_129","129","","","","","","null","<button class=""jspsych-btn""><img src=""stimuli/white_square.png"" style=""width: 200px;height: 200px;""></button>","null","mustard","darkgreenblue","[""mustard"",""darkgreenblue"",""low nameability""]","left-right","[""mustard"",""darkgreenblue"",""low nameability""]","5","low nameability","48","left","iti",""
"html-button-response","229","276528","0.0-177.0","CKN_129","129","","","","","","1039","","0","red","brown","[""red"",""brown"",""high nameability""]","left-right","[""red"",""brown"",""high nameability""]","5","high nameability","49","left","trigger",""
"html-button-response","230","277842","0.0-178.0-0.0","CKN_129","129","","","","","","1304","<button class=""jspsych-btn""><img src=""stimuli/red.png"" style=""width: 200px;height: 200px;""></button>","0","red","brown","[""red"",""brown"",""high nameability""]","left-right","[""red"",""brown"",""high nameability""]","5","high nameability","49","left","response","1"
"html-audio-button-response","231","278042","0.0-178.0-1.0","CKN_129","129","","","","","","null","stimuli/bleep.m4a","null","red","brown","[""red"",""brown"",""high nameability""]","left-right","[""red"",""brown"",""high nameability""]","5","high nameability","49","left","audio_feedback","1"
"html-button-response","232","278561","0.0-179.0","CKN_129","129","","","","","","null","<button class=""jspsych-btn""><img src=""stimuli/white_square.png"" style=""width: 200px;height: 200px;""></button>","null","red","brown","[""red"",""brown"",""high nameability""]","left-right","[""red"",""brown"",""high nameability""]","5","high nameability","49","left","iti",""
"html-button-response","233","279927","0.0-180.0","CKN_129","129","","","","","","1355","","0","turquoise","darkgreenblue","[""turquoise"",""darkgreenblue"",""low nameability""]","right-left","[""darkgreenblue"",""turquoise""]","5","low nameability","50","right","trigger",""
"html-button-response","234","281327","0.0-181.0-0.0","CKN_129","129","","","","","","1388","<button class=""jspsych-btn""><img src=""stimuli/turquoise.png"" style=""width: 200px;height: 200px;""></button>","1","turquoise","darkgreenblue","[""turquoise"",""darkgreenblue"",""low nameability""]","right-left","[""darkgreenblue"",""turquoise""]","5","low nameability","50","right","response","1"
"html-audio-button-response","235","281531","0.0-181.0-1.0","CKN_129","129","","","","","","null","stimuli/bleep.m4a","null","turquoise","darkgreenblue","[""turquoise"",""darkgreenblue"",""low nameability""]","right-left","[""darkgreenblue"",""turquoise""]","5","low nameability","50","right","audio_feedback","1"
"html-button-response","236","282042","0.0-182.0","CKN_129","129","","","","","","null","<button class=""jspsych-btn""><img src=""stimuli/white_square.png"" style=""width: 200px;height: 200px;""></button>","null","turquoise","darkgreenblue","[""turquoise"",""darkgreenblue"",""low nameability""]","right-left","[""darkgreenblue"",""turquoise""]","5","low nameability","50","right","iti",""
"pavlovia","237","282099","0.0-183.0","CKN_129","129","","","","","","","","","","","","","","","","","","",""
"pavlovia","238","282115","0.0-184.0","CKN_129","129","","","","","","","","","","","","","","","","","","",""
"html-audio-button-response","239","285036","0.0-185.0","CKN_129","129","","","","","","2992","stimuli/tada.m4a","0","","","","","","","","","","",""
"html-button-response","240","285608","0.0-186.0","CKN_129","129","","","","","","565","","0","","","","","","","","","","",""
"html-button-response","241","287330","0.0-187.0","CKN_129","129","","","","","","1714","","0","red","blue","[""red"",""blue"",""high nameability""]","right-left","[""blue"",""red""]","6","high nameability","51","right","trigger",""
"html-button-response","242","288850","0.0-188.0-0.0","CKN_129","129","","","","","","1511","<button class=""jspsych-btn""><img src=""stimuli/red.png"" style=""width: 200px;height: 200px;""></button>","1","red","blue","[""red"",""blue"",""high nameability""]","right-left","[""blue"",""red""]","6","high nameability","51","right","response","1"
"html-audio-button-response","243","289058","0.0-188.0-1.0","CKN_129","129","","","","","","null","stimuli/bleep.m4a","null","red","blue","[""red"",""blue"",""high nameability""]","right-left","[""blue"",""red""]","6","high nameability","51","right","audio_feedback","1"
"html-button-response","244","289574","0.0-189.0","CKN_129","129","","","","","","null","<button class=""jspsych-btn""><img src=""stimuli/white_square.png"" style=""width: 200px;height: 200px;""></button>","null","red","blue","[""red"",""blue"",""high nameability""]","right-left","[""blue"",""red""]","6","high nameability","51","right","iti",""
"html-button-response","245","291659","0.0-190.0","CKN_129","129","","","","","","2072","","0","neonyellow","pink","[""neonyellow"",""pink"",""low nameability""]","right-left","[""pink"",""neonyellow""]","6","low nameability","52","right","trigger",""
"html-button-response","246","292894","0.0-191.0-0.0","CKN_129","129","","","","","","1225","<button class=""jspsych-btn""><img src=""stimuli/neonyellow.png"" style=""width: 200px;height: 200px;""></button>","1","neonyellow","pink","[""neonyellow"",""pink"",""low nameability""]","right-left","[""pink"",""neonyellow""]","6","low nameability","52","right","response","1"
"html-audio-button-response","247","293093","0.0-191.0-1.0","CKN_129","129","","","","","","null","stimuli/bleep.m4a","null","neonyellow","pink","[""neonyellow"",""pink"",""low nameability""]","right-left","[""pink"",""neonyellow""]","6","low nameability","52","right","audio_feedback","1"
"html-button-response","248","293604","0.0-192.0","CKN_129","129","","","","","","null","<button class=""jspsych-btn""><img src=""stimuli/white_square.png"" style=""width: 200px;height: 200px;""></button>","null","neonyellow","pink","[""neonyellow"",""pink"",""low nameability""]","right-left","[""pink"",""neonyellow""]","6","low nameability","52","right","iti",""
"html-button-response","249","294471","0.0-193.0","CKN_129","129","","","","","","855","","0","orange","red","[""orange"",""red"",""high nameability""]","right-left","[""red"",""orange""]","6","high nameability","53","right","trigger",""
"html-button-response","250","295945","0.0-194.0-0.0","CKN_129","129","","","","","","1465","<button class=""jspsych-btn""><img src=""stimuli/orange.png"" style=""width: 200px;height: 200px;""></button>","1","orange","red","[""orange"",""red"",""high nameability""]","right-left","[""red"",""orange""]","6","high nameability","53","right","response","1"
"html-audio-button-response","251","296147","0.0-194.0-1.0","CKN_129","129","","","","","","null","stimuli/bleep.m4a","null","orange","red","[""orange"",""red"",""high nameability""]","right-left","[""red"",""orange""]","6","high nameability","53","right","audio_feedback","1"
"html-button-response","252","296670","0.0-195.0","CKN_129","129","","","","","","null","<button class=""jspsych-btn""><img src=""stimuli/white_square.png"" style=""width: 200px;height: 200px;""></button>","null","orange","red","[""orange"",""red"",""high nameability""]","right-left","[""red"",""orange""]","6","high nameability","53","right","iti",""
"html-button-response","253","298545","0.0-196.0","CKN_129","129","","","","","","1855","","0","brown","orange","[""brown"",""orange"",""high nameability""]","left-right","[""brown"",""orange"",""high nameability""]","6","high nameability","54","left","trigger",""
"html-button-response","254","299705","0.0-197.0-0.0","CKN_129","129","","","","","","1141","<button class=""jspsych-btn""><img src=""stimuli/brown.png"" style=""width: 200px;height: 200px;""></button>","0","brown","orange","[""brown"",""orange"",""high nameability""]","left-right","[""brown"",""orange"",""high nameability""]","6","high nameability","54","left","response","1"
"html-audio-button-response","255","299915","0.0-197.0-1.0","CKN_129","129","","","","","","null","stimuli/bleep.m4a","null","brown","orange","[""brown"",""orange"",""high nameability""]","left-right","[""brown"",""orange"",""high nameability""]","6","high nameability","54","left","audio_feedback","1"
"html-button-response","256","300438","0.0-198.0","CKN_129","129","","","","","","null","<button class=""jspsych-btn""><img src=""stimuli/white_square.png"" style=""width: 200px;height: 200px;""></button>","null","brown","orange","[""brown"",""orange"",""high nameability""]","left-right","[""brown"",""orange"",""high nameability""]","6","high nameability","54","left","iti",""
"html-button-response","257","301515","0.0-199.0","CKN_129","129","","","","","","1055","","0","brown","blue","[""brown"",""blue"",""high nameability""]","left-right","[""brown"",""blue"",""high nameability""]","6","high nameability","55","left","trigger",""
"html-button-response","258","302802","0.0-200.0-0.0","CKN_129","129","","","","","","1275","<button class=""jspsych-btn""><img src=""stimuli/brown.png"" style=""width: 200px;height: 200px;""></button>","0","brown","blue","[""brown"",""blue"",""high nameability""]","left-right","[""brown"",""blue"",""high nameability""]","6","high nameability","55","left","response","1"
"html-audio-button-response","259","303017","0.0-200.0-1.0","CKN_129","129","","","","","","null","stimuli/bleep.m4a","null","brown","blue","[""brown"",""blue"",""high nameability""]","left-right","[""brown"",""blue"",""high nameability""]","6","high nameability","55","left","audio_feedback","1"
"html-button-response","260","303537","0.0-201.0","CKN_129","129","","","","","","null","<button class=""jspsych-btn""><img src=""stimuli/white_square.png"" style=""width: 200px;height: 200px;""></button>","null","brown","blue","[""brown"",""blue"",""high nameability""]","left-right","[""brown"",""blue"",""high nameability""]","6","high nameability","55","left","iti",""
"html-button-response","261","304439","0.0-202.0","CKN_129","129","","","","","","885","","0","mustard","turquoise","[""mustard"",""turquoise"",""low nameability""]","right-left","[""turquoise"",""mustard""]","6","low nameability","56","right","trigger",""
"html-button-response","262","305571","0.0-203.0-0.0","CKN_129","129","","","","","","1120","<button class=""jspsych-btn""><img src=""stimuli/mustard.png"" style=""width: 200px;height: 200px;""></button>","1","mustard","turquoise","[""mustard"",""turquoise"",""low nameability""]","right-left","[""turquoise"",""mustard""]","6","low nameability","56","right","response","1"
"html-audio-button-response","263","305777","0.0-203.0-1.0","CKN_129","129","","","","","","null","stimuli/bleep.m4a","null","mustard","turquoise","[""mustard"",""turquoise"",""low nameability""]","right-left","[""turquoise"",""mustard""]","6","low nameability","56","right","audio_feedback","1"
"html-button-response","264","306292","0.0-204.0","CKN_129","129","","","","","","null","<button class=""jspsych-btn""><img src=""stimuli/white_square.png"" style=""width: 200px;height: 200px;""></button>","null","mustard","turquoise","[""mustard"",""turquoise"",""low nameability""]","right-left","[""turquoise"",""mustard""]","6","low nameability","56","right","iti",""
"html-button-response","265","307143","0.0-205.0","CKN_129","129","","","","","","835","","0","orange","yellow","[""orange"",""yellow"",""high nameability""]","left-right","[""orange"",""yellow"",""high nameability""]","6","high nameability","57","left","trigger",""
"html-button-response","266","308410","0.0-206.0-0.0","CKN_129","129","","","","","","1260","<button class=""jspsych-btn""><img src=""stimuli/orange.png"" style=""width: 200px;height: 200px;""></button>","0","orange","yellow","[""orange"",""yellow"",""high nameability""]","left-right","[""orange"",""yellow"",""high nameability""]","6","high nameability","57","left","response","1"
"html-audio-button-response","267","308617","0.0-206.0-1.0","CKN_129","129","","","","","","null","stimuli/bleep.m4a","null","orange","yellow","[""orange"",""yellow"",""high nameability""]","left-right","[""orange"",""yellow"",""high nameability""]","6","high nameability","57","left","audio_feedback","1"
"html-button-response","268","309138","0.0-207.0","CKN_129","129","","","","","","null","<button class=""jspsych-btn""><img src=""stimuli/white_square.png"" style=""width: 200px;height: 200px;""></button>","null","orange","yellow","[""orange"",""yellow"",""high nameability""]","left-right","[""orange"",""yellow"",""high nameability""]","6","high nameability","57","left","iti",""
"html-button-response","269","310056","0.0-208.0","CKN_129","129","","","","","","903","","0","darkgreenblue","mustard","[""darkgreenblue"",""mustard"",""low nameability""]","right-left","[""mustard"",""darkgreenblue""]","6","low nameability","58","right","trigger",""
"html-button-response","270","311231","0.0-209.0-0.0","CKN_129","129","","","","","","1164","<button class=""jspsych-btn""><img src=""stimuli/darkgreenblue.png"" style=""width: 200px;height: 200px;""></button>","1","darkgreenblue","mustard","[""darkgreenblue"",""mustard"",""low nameability""]","right-left","[""mustard"",""darkgreenblue""]","6","low nameability","58","right","response","1"
"html-audio-button-response","271","311436","0.0-209.0-1.0","CKN_129","129","","","","","","null","stimuli/bleep.m4a","null","darkgreenblue","mustard","[""darkgreenblue"",""mustard"",""low nameability""]","right-left","[""mustard"",""darkgreenblue""]","6","low nameability","58","right","audio_feedback","1"
"html-button-response","272","311950","0.0-210.0","CKN_129","129","","","","","","null","<button class=""jspsych-btn""><img src=""stimuli/white_square.png"" style=""width: 200px;height: 200px;""></button>","null","darkgreenblue","mustard","[""darkgreenblue"",""mustard"",""low nameability""]","right-left","[""mustard"",""darkgreenblue""]","6","low nameability","58","right","iti",""
"html-button-response","273","312832","0.0-211.0","CKN_129","129","","","","","","867","","0","purple","yellow","[""purple"",""yellow"",""high nameability""]","left-right","[""purple"",""yellow"",""high nameability""]","6","high nameability","59","left","trigger",""
"html-button-response","274","314119","0.0-212.0-0.0","CKN_129","129","","","","","","1279","<button class=""jspsych-btn""><img src=""stimuli/purple.png"" style=""width: 200px;height: 200px;""></button>","0","purple","yellow","[""purple"",""yellow"",""high nameability""]","left-right","[""purple"",""yellow"",""high nameability""]","6","high nameability","59","left","response","1"
"html-audio-button-response","275","314331","0.0-212.0-1.0","CKN_129","129","","","","","","null","stimuli/bleep.m4a","null","purple","yellow","[""purple"",""yellow"",""high nameability""]","left-right","[""purple"",""yellow"",""high nameability""]","6","high nameability","59","left","audio_feedback","1"
"html-button-response","276","314845","0.0-213.0","CKN_129","129","","","","","","null","<button class=""jspsych-btn""><img src=""stimuli/white_square.png"" style=""width: 200px;height: 200px;""></button>","null","purple","yellow","[""purple"",""yellow"",""high nameability""]","left-right","[""purple"",""yellow"",""high nameability""]","6","high nameability","59","left","iti",""
"html-button-response","277","315917","0.0-214.0","CKN_129","129","","","","","","1060","","0","lightred","mustard","[""lightred"",""mustard"",""low nameability""]","left-right","[""lightred"",""mustard"",""low nameability""]","6","low nameability","60","left","trigger",""
"html-button-response","278","317290","0.0-215.0-0.0","CKN_129","129","","","","","","1363","<button class=""jspsych-btn""><img src=""stimuli/lightred.png"" style=""width: 200px;height: 200px;""></button>","0","lightred","mustard","[""lightred"",""mustard"",""low nameability""]","left-right","[""lightred"",""mustard"",""low nameability""]","6","low nameability","60","left","response","1"
"html-audio-button-response","279","317496","0.0-215.0-1.0","CKN_129","129","","","","","","null","stimuli/bleep.m4a","null","lightred","mustard","[""lightred"",""mustard"",""low nameability""]","left-right","[""lightred"",""mustard"",""low nameability""]","6","low nameability","60","left","audio_feedback","1"
"html-button-response","280","318017","0.0-216.0","CKN_129","129","","","","","","null","<button class=""jspsych-btn""><img src=""stimuli/white_square.png"" style=""width: 200px;height: 200px;""></button>","null","lightred","mustard","[""lightred"",""mustard"",""low nameability""]","left-right","[""lightred"",""mustard"",""low nameability""]","6","low nameability","60","left","iti",""
