"trial_type","trial_index","time_elapsed","internal_node_id","subject_id","seed","success","timeout","failed_images","failed_audio","failed_video","rt","stimulus","response","target","foil","choices","combination_order","choices_in_order","round","condition","trial_counter","target_location","trial_kind","correct"
"pavlovia","0","18","0.0-0.0","CKN_110","110","","","","","","","","","","","","","","","","","","",""
"preload","1","1112","0.0-1.0","CKN_110","110","true","false","[]","[]","[]","","","","","","","","","","","","","",""
"fullscreen","2","2932","0.0-2.0","CKN_110","110","true","","","","","","","","","","","","","","","","","",""
"html-button-response","3","17507","0.0-3.0","CKN_110","110","","","","","","14544","","0","","","","","","","","","","",""
"html-button-response","4","26917","0.0-4.0","CKN_110","110","","","","","","9392","","0","star","square","[""square"",""star""]","left-right","[""square"",""star""]","1","practice","1","right","trigger",""
"html-button-response","5","39566","0.0-5.0-0.0","CKN_110","110","","","","","","12641","<button class=""jspsych-btn""><img src=""stimuli/star.png"" style=""width: 200px;height: 200px;""></button>","0","star","square","[""square"",""star""]","left-right","[""square"",""star""]","1","practice","1","right","response","0"
"html-audio-button-response","6","40200","0.0-5.0-1.0","CKN_110","110","","","","","","null","stimuli/boing.m4a","null","star","square","[""square"",""star""]","left-right","[""square"",""star""]","1","practice","1","right","audio_feedback","0"
"html-button-response","7","48728","0.0-5.1-0.1","CKN_110","110","","","","","","8510","<button class=""jspsych-btn""><img src=""stimuli/star.png"" style=""width: 200px;height: 200px;""></button>","0","star","square","[""square"",""star""]","left-right","[""square"",""star""]","1","practice","1","right","response","0"
"html-audio-button-response","8","49355","0.0-5.1-1.1","CKN_110","110","","","","","","null","stimuli/boing.m4a","null","star","square","[""square"",""star""]","left-right","[""square"",""star""]","1","practice","1","right","audio_feedback","0"
"html-button-response","9","50754","0.0-5.2-0.2","CKN_110","110","","","","","","1381","<button class=""jspsych-btn""><img src=""stimuli/star.png"" style=""width: 200px;height: 200px;""></button>","1","star","square","[""square"",""star""]","left-right","[""square"",""star""]","1","practice","1","right","response","1"
"html-audio-button-response","10","50971","0.0-5.2-1.2","CKN_110","110","","","","","","null","stimuli/bleep.m4a","null","star","square","[""square"",""star""]","left-right","[""square"",""star""]","1","practice","1","right","audio_feedback","1"
"html-button-response","11","51489","0.0-6.0","CKN_110","110","","","","","","null","<button class=""jspsych-btn""><img src=""stimuli/white_square.png"" style=""width: 200px;height: 200px;""></button>","null","star","square","[""square"",""star""]","left-right","[""square"",""star""]","1","practice","1","right","iti",""
"html-button-response","12","58452","0.0-7.0","CKN_110","110","","","","","","6950","","0","triangle","pentagram","[""triangle"",""pentagram""]","left-right","[""triangle"",""pentagram""]","1","practice","1","left","trigger",""
"html-button-response","13","75649","0.0-8.0-0.0","CKN_110","110","","","","","","17185","<button class=""jspsych-btn""><img src=""stimuli/triangle.png"" style=""width: 200px;height: 200px;""></button>","0","triangle","pentagram","[""triangle"",""pentagram""]","left-right","[""triangle"",""pentagram""]","1","practice","1","left","response","1"
"html-audio-button-response","14","75860","0.0-8.0-1.0","CKN_110","110","","","","","","null","stimuli/bleep.m4a","null","triangle","pentagram","[""triangle"",""pentagram""]","left-right","[""triangle"",""pentagram""]","1","practice","1","left","audio_feedback","1"
"html-button-response","15","76382","0.0-9.0","CKN_110","110","","","","","","null","<button class=""jspsych-btn""><img src=""stimuli/white_square.png"" style=""width: 200px;height: 200px;""></button>","null","triangle","pentagram","[""triangle"",""pentagram""]","left-right","[""triangle"",""pentagram""]","1","practice","1","left","iti",""
"html-button-response","16","79698","0.0-10.0","CKN_110","110","","","","","","3300","","0","diamond","rectangle","[""rectangle"",""diamond""]","left-right","[""rectangle"",""diamond""]","1","practice","1","right","trigger",""
"html-button-response","17","94791","0.0-11.0-0.0","CKN_110","110","","","","","","15082","<button class=""jspsych-btn""><img src=""stimuli/diamond.png"" style=""width: 200px;height: 200px;""></button>","1","diamond","rectangle","[""rectangle"",""diamond""]","left-right","[""rectangle"",""diamond""]","1","practice","1","right","response","1"
"html-audio-button-response","18","94997","0.0-11.0-1.0","CKN_110","110","","","","","","null","stimuli/bleep.m4a","null","diamond","rectangle","[""rectangle"",""diamond""]","left-right","[""rectangle"",""diamond""]","1","practice","1","right","audio_feedback","1"
"html-button-response","19","95515","0.0-12.0","CKN_110","110","","","","","","null","<button class=""jspsych-btn""><img src=""stimuli/white_square.png"" style=""width: 200px;height: 200px;""></button>","null","diamond","rectangle","[""rectangle"",""diamond""]","left-right","[""rectangle"",""diamond""]","1","practice","1","right","iti",""
"html-button-response","20","100369","0.0-13.0","CKN_110","110","","","","","","4843","","0","pentagram","star","[""pentagram"",""star""]","left-right","[""pentagram"",""star""]","1","practice","1","left","trigger",""
"html-button-response","21","109572","0.0-14.0-0.0","CKN_110","110","","","","","","9193","<button class=""jspsych-btn""><img src=""stimuli/pentagram.png"" style=""width: 200px;height: 200px;""></button>","1","pentagram","star","[""pentagram"",""star""]","left-right","[""pentagram"",""star""]","1","practice","1","left","response","0"
"html-audio-button-response","22","110214","0.0-14.0-1.0","CKN_110","110","","","","","","null","stimuli/boing.m4a","null","pentagram","star","[""pentagram"",""star""]","left-right","[""pentagram"",""star""]","1","practice","1","left","audio_feedback","0"
"html-button-response","23","115035","0.0-14.1-0.1","CKN_110","110","","","","","","4799","<button class=""jspsych-btn""><img src=""stimuli/pentagram.png"" style=""width: 200px;height: 200px;""></button>","0","pentagram","star","[""pentagram"",""star""]","left-right","[""pentagram"",""star""]","1","practice","1","left","response","1"
"html-audio-button-response","24","115241","0.0-14.1-1.1","CKN_110","110","","","","","","null","stimuli/bleep.m4a","null","pentagram","star","[""pentagram"",""star""]","left-right","[""pentagram"",""star""]","1","practice","1","left","audio_feedback","1"
"html-button-response","25","115755","0.0-15.0","CKN_110","110","","","","","","null","<button class=""jspsych-btn""><img src=""stimuli/white_square.png"" style=""width: 200px;height: 200px;""></button>","null","pentagram","star","[""pentagram"",""star""]","left-right","[""pentagram"",""star""]","1","practice","1","left","iti",""
"html-button-response","26","127033","0.0-16.0","CKN_110","110","","","","","","11271","","0","","","","","","","","","","",""
"html-button-response","27","131490","0.0-17.0","CKN_110","110","","","","","","4448","","0","mustard","darkgreenblue","[""mustard"",""darkgreenblue"",""low nameability""]","left-right","[""mustard"",""darkgreenblue"",""low nameability""]","1","low nameability","1","left","trigger",""
"html-button-response","28","149537","0.0-18.0-0.0","CKN_110","110","","","","","","18039","<button class=""jspsych-btn""><img src=""stimuli/mustard.png"" style=""width: 200px;height: 200px;""></button>","1","mustard","darkgreenblue","[""mustard"",""darkgreenblue"",""low nameability""]","left-right","[""mustard"",""darkgreenblue"",""low nameability""]","1","low nameability","1","left","response","0"
"html-audio-button-response","29","150181","0.0-18.0-1.0","CKN_110","110","","","","","","null","stimuli/boing.m4a","null","mustard","darkgreenblue","[""mustard"",""darkgreenblue"",""low nameability""]","left-right","[""mustard"",""darkgreenblue"",""low nameability""]","1","low nameability","1","left","audio_feedback","0"
"html-button-response","30","154660","0.0-18.1-0.1","CKN_110","110","","","","","","4459","<button class=""jspsych-btn""><img src=""stimuli/mustard.png"" style=""width: 200px;height: 200px;""></button>","0","mustard","darkgreenblue","[""mustard"",""darkgreenblue"",""low nameability""]","left-right","[""mustard"",""darkgreenblue"",""low nameability""]","1","low nameability","1","left","response","1"
"html-audio-button-response","31","154874","0.0-18.1-1.1","CKN_110","110","","","","","","null","stimuli/bleep.m4a","null","mustard","darkgreenblue","[""mustard"",""darkgreenblue"",""low nameability""]","left-right","[""mustard"",""darkgreenblue"",""low nameability""]","1","low nameability","1","left","audio_feedback","1"
"html-button-response","32","155389","0.0-19.0","CKN_110","110","","","","","","null","<button class=""jspsych-btn""><img src=""stimuli/white_square.png"" style=""width: 200px;height: 200px;""></button>","null","mustard","darkgreenblue","[""mustard"",""darkgreenblue"",""low nameability""]","left-right","[""mustard"",""darkgreenblue"",""low nameability""]","1","low nameability","1","left","iti",""
"html-button-response","33","159864","0.0-20.0","CKN_110","110","","","","","","4462","","0","turquoise","neonyellow","[""turquoise"",""neonyellow"",""low nameability""]","left-right","[""turquoise"",""neonyellow"",""low nameability""]","1","low nameability","2","left","trigger",""
"html-button-response","34","171490","0.0-21.0-0.0","CKN_110","110","","","","","","11616","<button class=""jspsych-btn""><img src=""stimuli/turquoise.png"" style=""width: 200px;height: 200px;""></button>","1","turquoise","neonyellow","[""turquoise"",""neonyellow"",""low nameability""]","left-right","[""turquoise"",""neonyellow"",""low nameability""]","1","low nameability","2","left","response","0"
"html-audio-button-response","35","172117","0.0-21.0-1.0","CKN_110","110","","","","","","null","stimuli/boing.m4a","null","turquoise","neonyellow","[""turquoise"",""neonyellow"",""low nameability""]","left-right","[""turquoise"",""neonyellow"",""low nameability""]","1","low nameability","2","left","audio_feedback","0"
"html-button-response","36","174781","0.0-21.1-0.1","CKN_110","110","","","","","","2646","<button class=""jspsych-btn""><img src=""stimuli/turquoise.png"" style=""width: 200px;height: 200px;""></button>","0","turquoise","neonyellow","[""turquoise"",""neonyellow"",""low nameability""]","left-right","[""turquoise"",""neonyellow"",""low nameability""]","1","low nameability","2","left","response","1"
"html-audio-button-response","37","174987","0.0-21.1-1.1","CKN_110","110","","","","","","null","stimuli/bleep.m4a","null","turquoise","neonyellow","[""turquoise"",""neonyellow"",""low nameability""]","left-right","[""turquoise"",""neonyellow"",""low nameability""]","1","low nameability","2","left","audio_feedback","1"
"html-button-response","38","175504","0.0-22.0","CKN_110","110","","","","","","null","<button class=""jspsych-btn""><img src=""stimuli/white_square.png"" style=""width: 200px;height: 200px;""></button>","null","turquoise","neonyellow","[""turquoise"",""neonyellow"",""low nameability""]","left-right","[""turquoise"",""neonyellow"",""low nameability""]","1","low nameability","2","left","iti",""
"html-button-response","39","177810","0.0-23.0","CKN_110","110","","","","","","2289","","0","brown","orange","[""brown"",""orange"",""high nameability""]","left-right","[""brown"",""orange"",""high nameability""]","1","high nameability","3","left","trigger",""
"html-button-response","40","180665","0.0-24.0-0.0","CKN_110","110","","","","","","2847","<button class=""jspsych-btn""><img src=""stimuli/brown.png"" style=""width: 200px;height: 200px;""></button>","1","brown","orange","[""brown"",""orange"",""high nameability""]","left-right","[""brown"",""orange"",""high nameability""]","1","high nameability","3","left","response","0"
"html-audio-button-response","41","181287","0.0-24.0-1.0","CKN_110","110","","","","","","null","stimuli/boing.m4a","null","brown","orange","[""brown"",""orange"",""high nameability""]","left-right","[""brown"",""orange"",""high nameability""]","1","high nameability","3","left","audio_feedback","0"
"html-button-response","42","182717","0.0-24.1-0.1","CKN_110","110","","","","","","1417","<button class=""jspsych-btn""><img src=""stimuli/brown.png"" style=""width: 200px;height: 200px;""></button>","0","brown","orange","[""brown"",""orange"",""high nameability""]","left-right","[""brown"",""orange"",""high nameability""]","1","high nameability","3","left","response","1"
"html-audio-button-response","43","182916","0.0-24.1-1.1","CKN_110","110","","","","","","null","stimuli/bleep.m4a","null","brown","orange","[""brown"",""orange"",""high nameability""]","left-right","[""brown"",""orange"",""high nameability""]","1","high nameability","3","left","audio_feedback","1"
"html-button-response","44","183430","0.0-25.0","CKN_110","110","","","","","","null","<button class=""jspsych-btn""><img src=""stimuli/white_square.png"" style=""width: 200px;height: 200px;""></button>","null","brown","orange","[""brown"",""orange"",""high nameability""]","left-right","[""brown"",""orange"",""high nameability""]","1","high nameability","3","left","iti",""
"html-button-response","45","185119","0.0-26.0","CKN_110","110","","","","","","1678","","0","brown","yellow","[""brown"",""yellow"",""high nameability""]","left-right","[""brown"",""yellow"",""high nameability""]","1","high nameability","4","left","trigger",""
"html-button-response","46","188467","0.0-27.0-0.0","CKN_110","110","","","","","","3337","<button class=""jspsych-btn""><img src=""stimuli/brown.png"" style=""width: 200px;height: 200px;""></button>","1","brown","yellow","[""brown"",""yellow"",""high nameability""]","left-right","[""brown"",""yellow"",""high nameability""]","1","high nameability","4","left","response","0"
"html-audio-button-response","47","189096","0.0-27.0-1.0","CKN_110","110","","","","","","null","stimuli/boing.m4a","null","brown","yellow","[""brown"",""yellow"",""high nameability""]","left-right","[""brown"",""yellow"",""high nameability""]","1","high nameability","4","left","audio_feedback","0"
"html-button-response","48","200591","0.0-27.1-0.1","CKN_110","110","","","","","","11489","<button class=""jspsych-btn""><img src=""stimuli/brown.png"" style=""width: 200px;height: 200px;""></button>","0","brown","yellow","[""brown"",""yellow"",""high nameability""]","left-right","[""brown"",""yellow"",""high nameability""]","1","high nameability","4","left","response","1"
"html-audio-button-response","49","200794","0.0-27.1-1.1","CKN_110","110","","","","","","null","stimuli/bleep.m4a","null","brown","yellow","[""brown"",""yellow"",""high nameability""]","left-right","[""brown"",""yellow"",""high nameability""]","1","high nameability","4","left","audio_feedback","1"
"html-button-response","50","201310","0.0-28.0","CKN_110","110","","","","","","null","<button class=""jspsych-btn""><img src=""stimuli/white_square.png"" style=""width: 200px;height: 200px;""></button>","null","brown","yellow","[""brown"",""yellow"",""high nameability""]","left-right","[""brown"",""yellow"",""high nameability""]","1","high nameability","4","left","iti",""
"html-button-response","51","205763","0.0-29.0","CKN_110","110","","","","","","4442","","0","purple","red","[""purple"",""red"",""high nameability""]","left-right","[""purple"",""red"",""high nameability""]","1","high nameability","5","left","trigger",""
"html-button-response","52","209537","0.0-30.0-0.0","CKN_110","110","","","","","","3764","<button class=""jspsych-btn""><img src=""stimuli/purple.png"" style=""width: 200px;height: 200px;""></button>","1","purple","red","[""purple"",""red"",""high nameability""]","left-right","[""purple"",""red"",""high nameability""]","1","high nameability","5","left","response","0"
"html-audio-button-response","53","210168","0.0-30.0-1.0","CKN_110","110","","","","","","null","stimuli/boing.m4a","null","purple","red","[""purple"",""red"",""high nameability""]","left-right","[""purple"",""red"",""high nameability""]","1","high nameability","5","left","audio_feedback","0"
"html-button-response","54","211756","0.0-30.1-0.1","CKN_110","110","","","","","","1571","<button class=""jspsych-btn""><img src=""stimuli/purple.png"" style=""width: 200px;height: 200px;""></button>","0","purple","red","[""purple"",""red"",""high nameability""]","left-right","[""purple"",""red"",""high nameability""]","1","high nameability","5","left","response","1"
"html-audio-button-response","55","211965","0.0-30.1-1.1","CKN_110","110","","","","","","null","stimuli/bleep.m4a","null","purple","red","[""purple"",""red"",""high nameability""]","left-right","[""purple"",""red"",""high nameability""]","1","high nameability","5","left","audio_feedback","1"
"html-button-response","56","212480","0.0-31.0","CKN_110","110","","","","","","null","<button class=""jspsych-btn""><img src=""stimuli/white_square.png"" style=""width: 200px;height: 200px;""></button>","null","purple","red","[""purple"",""red"",""high nameability""]","left-right","[""purple"",""red"",""high nameability""]","1","high nameability","5","left","iti",""
"html-button-response","57","217572","0.0-32.0","CKN_110","110","","","","","","5084","","0","purple","orange","[""purple"",""orange"",""high nameability""]","right-left","[""orange"",""purple""]","1","high nameability","6","right","trigger",""
"html-button-response","58","221760","0.0-33.0-0.0","CKN_110","110","","","","","","4181","<button class=""jspsych-btn""><img src=""stimuli/purple.png"" style=""width: 200px;height: 200px;""></button>","0","purple","orange","[""purple"",""orange"",""high nameability""]","right-left","[""orange"",""purple""]","1","high nameability","6","right","response","0"
"html-audio-button-response","59","222389","0.0-33.0-1.0","CKN_110","110","","","","","","null","stimuli/boing.m4a","null","purple","orange","[""purple"",""orange"",""high nameability""]","right-left","[""orange"",""purple""]","1","high nameability","6","right","audio_feedback","0"
"html-button-response","60","225470","0.0-33.1-0.1","CKN_110","110","","","","","","3060","<button class=""jspsych-btn""><img src=""stimuli/purple.png"" style=""width: 200px;height: 200px;""></button>","0","purple","orange","[""purple"",""orange"",""high nameability""]","right-left","[""orange"",""purple""]","1","high nameability","6","right","response","0"
"html-audio-button-response","61","226095","0.0-33.1-1.1","CKN_110","110","","","","","","null","stimuli/boing.m4a","null","purple","orange","[""purple"",""orange"",""high nameability""]","right-left","[""orange"",""purple""]","1","high nameability","6","right","audio_feedback","0"
"html-button-response","62","235331","0.0-33.2-0.2","CKN_110","110","","","","","","9224","<button class=""jspsych-btn""><img src=""stimuli/purple.png"" style=""width: 200px;height: 200px;""></button>","1","purple","orange","[""purple"",""orange"",""high nameability""]","right-left","[""orange"",""purple""]","1","high nameability","6","right","response","1"
"html-audio-button-response","63","235537","0.0-33.2-1.2","CKN_110","110","","","","","","null","stimuli/bleep.m4a","null","purple","orange","[""purple"",""orange"",""high nameability""]","right-left","[""orange"",""purple""]","1","high nameability","6","right","audio_feedback","1"
"html-button-response","64","236050","0.0-34.0","CKN_110","110","","","","","","null","<button class=""jspsych-btn""><img src=""stimuli/white_square.png"" style=""width: 200px;height: 200px;""></button>","null","purple","orange","[""purple"",""orange"",""high nameability""]","right-left","[""orange"",""purple""]","1","high nameability","6","right","iti",""
"html-button-response","65","238468","0.0-35.0","CKN_110","110","","","","","","2404","","0","blue","purple","[""blue"",""purple"",""high nameability""]","left-right","[""blue"",""purple"",""high nameability""]","1","high nameability","7","left","trigger",""
"html-button-response","66","240802","0.0-36.0-0.0","CKN_110","110","","","","","","2329","<button class=""jspsych-btn""><img src=""stimuli/blue.png"" style=""width: 200px;height: 200px;""></button>","1","blue","purple","[""blue"",""purple"",""high nameability""]","left-right","[""blue"",""purple"",""high nameability""]","1","high nameability","7","left","response","0"
"html-audio-button-response","67","241433","0.0-36.0-1.0","CKN_110","110","","","","","","null","stimuli/boing.m4a","null","blue","purple","[""blue"",""purple"",""high nameability""]","left-right","[""blue"",""purple"",""high nameability""]","1","high nameability","7","left","audio_feedback","0"
"html-button-response","68","247234","0.0-36.1-0.1","CKN_110","110","","","","","","5782","<button class=""jspsych-btn""><img src=""stimuli/blue.png"" style=""width: 200px;height: 200px;""></button>","1","blue","purple","[""blue"",""purple"",""high nameability""]","left-right","[""blue"",""purple"",""high nameability""]","1","high nameability","7","left","response","0"
"html-audio-button-response","69","247859","0.0-36.1-1.1","CKN_110","110","","","","","","null","stimuli/boing.m4a","null","blue","purple","[""blue"",""purple"",""high nameability""]","left-right","[""blue"",""purple"",""high nameability""]","1","high nameability","7","left","audio_feedback","0"
"html-button-response","70","251458","0.0-36.2-0.2","CKN_110","110","","","","","","3591","<button class=""jspsych-btn""><img src=""stimuli/blue.png"" style=""width: 200px;height: 200px;""></button>","0","blue","purple","[""blue"",""purple"",""high nameability""]","left-right","[""blue"",""purple"",""high nameability""]","1","high nameability","7","left","response","1"
"html-audio-button-response","71","251660","0.0-36.2-1.2","CKN_110","110","","","","","","null","stimuli/bleep.m4a","null","blue","purple","[""blue"",""purple"",""high nameability""]","left-right","[""blue"",""purple"",""high nameability""]","1","high nameability","7","left","audio_feedback","1"
"html-button-response","72","252174","0.0-37.0","CKN_110","110","","","","","","null","<button class=""jspsych-btn""><img src=""stimuli/white_square.png"" style=""width: 200px;height: 200px;""></button>","null","blue","purple","[""blue"",""purple"",""high nameability""]","left-right","[""blue"",""purple"",""high nameability""]","1","high nameability","7","left","iti",""
"html-button-response","73","255611","0.0-38.0","CKN_110","110","","","","","","3424","","0","orange","red","[""orange"",""red"",""high nameability""]","left-right","[""orange"",""red"",""high nameability""]","1","high nameability","8","left","trigger",""
"html-button-response","74","261986","0.0-39.0-0.0","CKN_110","110","","","","","","6362","<button class=""jspsych-btn""><img src=""stimuli/orange.png"" style=""width: 200px;height: 200px;""></button>","1","orange","red","[""orange"",""red"",""high nameability""]","left-right","[""orange"",""red"",""high nameability""]","1","high nameability","8","left","response","0"
"html-audio-button-response","75","262616","0.0-39.0-1.0","CKN_110","110","","","","","","null","stimuli/boing.m4a","null","orange","red","[""orange"",""red"",""high nameability""]","left-right","[""orange"",""red"",""high nameability""]","1","high nameability","8","left","audio_feedback","0"
"html-button-response","76","269555","0.0-39.1-0.1","CKN_110","110","","","","","","6932","<button class=""jspsych-btn""><img src=""stimuli/orange.png"" style=""width: 200px;height: 200px;""></button>","0","orange","red","[""orange"",""red"",""high nameability""]","left-right","[""orange"",""red"",""high nameability""]","1","high nameability","8","left","response","1"
"html-audio-button-response","77","269762","0.0-39.1-1.1","CKN_110","110","","","","","","null","stimuli/bleep.m4a","null","orange","red","[""orange"",""red"",""high nameability""]","left-right","[""orange"",""red"",""high nameability""]","1","high nameability","8","left","audio_feedback","1"
"html-button-response","78","270280","0.0-40.0","CKN_110","110","","","","","","null","<button class=""jspsych-btn""><img src=""stimuli/white_square.png"" style=""width: 200px;height: 200px;""></button>","null","orange","red","[""orange"",""red"",""high nameability""]","left-right","[""orange"",""red"",""high nameability""]","1","high nameability","8","left","iti",""
"html-button-response","79","273998","0.0-41.0","CKN_110","110","","","","","","3704","","0","mustard","pink","[""mustard"",""pink"",""low nameability""]","left-right","[""mustard"",""pink"",""low nameability""]","1","low nameability","9","left","trigger",""
"html-button-response","80","277463","0.0-42.0-0.0","CKN_110","110","","","","","","3457","<button class=""jspsych-btn""><img src=""stimuli/mustard.png"" style=""width: 200px;height: 200px;""></button>","1","mustard","pink","[""mustard"",""pink"",""low nameability""]","left-right","[""mustard"",""pink"",""low nameability""]","1","low nameability","9","left","response","0"
"html-audio-button-response","81","278096","0.0-42.0-1.0","CKN_110","110","","","","","","null","stimuli/boing.m4a","null","mustard","pink","[""mustard"",""pink"",""low nameability""]","left-right","[""mustard"",""pink"",""low nameability""]","1","low nameability","9","left","audio_feedback","0"
"html-button-response","82","280050","0.0-42.1-0.1","CKN_110","110","","","","","","1938","<button class=""jspsych-btn""><img src=""stimuli/mustard.png"" style=""width: 200px;height: 200px;""></button>","0","mustard","pink","[""mustard"",""pink"",""low nameability""]","left-right","[""mustard"",""pink"",""low nameability""]","1","low nameability","9","left","response","1"
"html-audio-button-response","83","280256","0.0-42.1-1.1","CKN_110","110","","","","","","null","stimuli/bleep.m4a","null","mustard","pink","[""mustard"",""pink"",""low nameability""]","left-right","[""mustard"",""pink"",""low nameability""]","1","low nameability","9","left","audio_feedback","1"
"html-button-response","84","280775","0.0-43.0","CKN_110","110","","","","","","null","<button class=""jspsych-btn""><img src=""stimuli/white_square.png"" style=""width: 200px;height: 200px;""></button>","null","mustard","pink","[""mustard"",""pink"",""low nameability""]","left-right","[""mustard"",""pink"",""low nameability""]","1","low nameability","9","left","iti",""
"html-button-response","85","285286","0.0-44.0","CKN_110","110","","","","","","4493","","0","blue","red","[""blue"",""red"",""high nameability""]","right-left","[""red"",""blue""]","1","high nameability","10","right","trigger",""
"html-button-response","86","288564","0.0-45.0-0.0","CKN_110","110","","","","","","3266","<button class=""jspsych-btn""><img src=""stimuli/blue.png"" style=""width: 200px;height: 200px;""></button>","0","blue","red","[""blue"",""red"",""high nameability""]","right-left","[""red"",""blue""]","1","high nameability","10","right","response","0"
"html-audio-button-response","87","289192","0.0-45.0-1.0","CKN_110","110","","","","","","null","stimuli/boing.m4a","null","blue","red","[""blue"",""red"",""high nameability""]","right-left","[""red"",""blue""]","1","high nameability","10","right","audio_feedback","0"
"html-button-response","88","293922","0.0-45.1-0.1","CKN_110","110","","","","","","4716","<button class=""jspsych-btn""><img src=""stimuli/blue.png"" style=""width: 200px;height: 200px;""></button>","1","blue","red","[""blue"",""red"",""high nameability""]","right-left","[""red"",""blue""]","1","high nameability","10","right","response","1"
"html-audio-button-response","89","294128","0.0-45.1-1.1","CKN_110","110","","","","","","null","stimuli/bleep.m4a","null","blue","red","[""blue"",""red"",""high nameability""]","right-left","[""red"",""blue""]","1","high nameability","10","right","audio_feedback","1"
"html-button-response","90","294644","0.0-46.0","CKN_110","110","","","","","","null","<button class=""jspsych-btn""><img src=""stimuli/white_square.png"" style=""width: 200px;height: 200px;""></button>","null","blue","red","[""blue"",""red"",""high nameability""]","right-left","[""red"",""blue""]","1","high nameability","10","right","iti",""
"pavlovia","91","294764","0.0-47.0","CKN_110","110","","","","","","","","","","","","","","","","","","",""
"pavlovia","92","294777","0.0-48.0","CKN_110","110","","","","","","","","","","","","","","","","","","",""
"html-audio-button-response","93","312287","0.0-49.0","CKN_110","110","","","","","","17635","stimuli/tada.m4a","0","","","","","","","","","","",""
"html-button-response","94","313055","0.0-50.0","CKN_110","110","","","","","","763","","0","","","","","","","","","","",""
"html-button-response","95","315663","0.0-51.0","CKN_110","110","","","","","","2602","","0","mustard","neonyellow","[""mustard"",""neonyellow"",""low nameability""]","right-left","[""neonyellow"",""mustard""]","2","low nameability","11","right","trigger",""
"html-button-response","96","317945","0.0-52.0-0.0","CKN_110","110","","","","","","2270","<button class=""jspsych-btn""><img src=""stimuli/mustard.png"" style=""width: 200px;height: 200px;""></button>","0","mustard","neonyellow","[""mustard"",""neonyellow"",""low nameability""]","right-left","[""neonyellow"",""mustard""]","2","low nameability","11","right","response","0"
"html-audio-button-response","97","318567","0.0-52.0-1.0","CKN_110","110","","","","","","null","stimuli/boing.m4a","null","mustard","neonyellow","[""mustard"",""neonyellow"",""low nameability""]","right-left","[""neonyellow"",""mustard""]","2","low nameability","11","right","audio_feedback","0"
"html-button-response","98","319791","0.0-52.1-0.1","CKN_110","110","","","","","","1215","<button class=""jspsych-btn""><img src=""stimuli/mustard.png"" style=""width: 200px;height: 200px;""></button>","1","mustard","neonyellow","[""mustard"",""neonyellow"",""low nameability""]","right-left","[""neonyellow"",""mustard""]","2","low nameability","11","right","response","1"
"html-audio-button-response","99","319997","0.0-52.1-1.1","CKN_110","110","","","","","","null","stimuli/bleep.m4a","null","mustard","neonyellow","[""mustard"",""neonyellow"",""low nameability""]","right-left","[""neonyellow"",""mustard""]","2","low nameability","11","right","audio_feedback","1"
"html-button-response","100","320511","0.0-53.0","CKN_110","110","","","","","","null","<button class=""jspsych-btn""><img src=""stimuli/white_square.png"" style=""width: 200px;height: 200px;""></button>","null","mustard","neonyellow","[""mustard"",""neonyellow"",""low nameability""]","right-left","[""neonyellow"",""mustard""]","2","low nameability","11","right","iti",""
"html-button-response","101","323548","0.0-54.0","CKN_110","110","","","","","","3027","","0","purple","brown","[""purple"",""brown"",""high nameability""]","right-left","[""brown"",""purple""]","2","high nameability","12","right","trigger",""
"html-button-response","102","330838","0.0-55.0-0.0","CKN_110","110","","","","","","7280","<button class=""jspsych-btn""><img src=""stimuli/purple.png"" style=""width: 200px;height: 200px;""></button>","1","purple","brown","[""purple"",""brown"",""high nameability""]","right-left","[""brown"",""purple""]","2","high nameability","12","right","response","1"
"html-audio-button-response","103","331043","0.0-55.0-1.0","CKN_110","110","","","","","","null","stimuli/bleep.m4a","null","purple","brown","[""purple"",""brown"",""high nameability""]","right-left","[""brown"",""purple""]","2","high nameability","12","right","audio_feedback","1"
"html-button-response","104","331560","0.0-56.0","CKN_110","110","","","","","","null","<button class=""jspsych-btn""><img src=""stimuli/white_square.png"" style=""width: 200px;height: 200px;""></button>","null","purple","brown","[""purple"",""brown"",""high nameability""]","right-left","[""brown"",""purple""]","2","high nameability","12","right","iti",""
"html-button-response","105","335074","0.0-57.0","CKN_110","110","","","","","","3501","","0","brown","purple","[""brown"",""purple"",""high nameability""]","left-right","[""brown"",""purple"",""high nameability""]","2","high nameability","13","left","trigger",""
"html-button-response","106","349538","0.0-58.0-0.0","CKN_110","110","","","","","","14452","<button class=""jspsych-btn""><img src=""stimuli/brown.png"" style=""width: 200px;height: 200px;""></button>","0","brown","purple","[""brown"",""purple"",""high nameability""]","left-right","[""brown"",""purple"",""high nameability""]","2","high nameability","13","left","response","1"
"html-audio-button-response","107","349745","0.0-58.0-1.0","CKN_110","110","","","","","","null","stimuli/bleep.m4a","null","brown","purple","[""brown"",""purple"",""high nameability""]","left-right","[""brown"",""purple"",""high nameability""]","2","high nameability","13","left","audio_feedback","1"
"html-button-response","108","350258","0.0-59.0","CKN_110","110","","","","","","null","<button class=""jspsych-btn""><img src=""stimuli/white_square.png"" style=""width: 200px;height: 200px;""></button>","null","brown","purple","[""brown"",""purple"",""high nameability""]","left-right","[""brown"",""purple"",""high nameability""]","2","high nameability","13","left","iti",""
"html-button-response","109","352999","0.0-60.0","CKN_110","110","","","","","","2729","","0","red","purple","[""red"",""purple"",""high nameability""]","left-right","[""red"",""purple"",""high nameability""]","2","high nameability","14","left","trigger",""
"html-button-response","110","356031","0.0-61.0-0.0","CKN_110","110","","","","","","3024","<button class=""jspsych-btn""><img src=""stimuli/red.png"" style=""width: 200px;height: 200px;""></button>","0","red","purple","[""red"",""purple"",""high nameability""]","left-right","[""red"",""purple"",""high nameability""]","2","high nameability","14","left","response","1"
"html-audio-button-response","111","356237","0.0-61.0-1.0","CKN_110","110","","","","","","null","stimuli/bleep.m4a","null","red","purple","[""red"",""purple"",""high nameability""]","left-right","[""red"",""purple"",""high nameability""]","2","high nameability","14","left","audio_feedback","1"
"html-button-response","112","356752","0.0-62.0","CKN_110","110","","","","","","null","<button class=""jspsych-btn""><img src=""stimuli/white_square.png"" style=""width: 200px;height: 200px;""></button>","null","red","purple","[""red"",""purple"",""high nameability""]","left-right","[""red"",""purple"",""high nameability""]","2","high nameability","14","left","iti",""
"html-button-response","113","358854","0.0-63.0","CKN_110","110","","","","","","2092","","0","orange","yellow","[""orange"",""yellow"",""high nameability""]","right-left","[""yellow"",""orange""]","2","high nameability","15","right","trigger",""
"html-button-response","114","362561","0.0-64.0-0.0","CKN_110","110","","","","","","3697","<button class=""jspsych-btn""><img src=""stimuli/orange.png"" style=""width: 200px;height: 200px;""></button>","1","orange","yellow","[""orange"",""yellow"",""high nameability""]","right-left","[""yellow"",""orange""]","2","high nameability","15","right","response","1"
"html-audio-button-response","115","362766","0.0-64.0-1.0","CKN_110","110","","","","","","null","stimuli/bleep.m4a","null","orange","yellow","[""orange"",""yellow"",""high nameability""]","right-left","[""yellow"",""orange""]","2","high nameability","15","right","audio_feedback","1"
"html-button-response","116","363278","0.0-65.0","CKN_110","110","","","","","","null","<button class=""jspsych-btn""><img src=""stimuli/white_square.png"" style=""width: 200px;height: 200px;""></button>","null","orange","yellow","[""orange"",""yellow"",""high nameability""]","right-left","[""yellow"",""orange""]","2","high nameability","15","right","iti",""
"html-button-response","117","365358","0.0-66.0","CKN_110","110","","","","","","2071","","0","lightred","turquoise","[""lightred"",""turquoise"",""low nameability""]","left-right","[""lightred"",""turquoise"",""low nameability""]","2","low nameability","16","left","trigger",""
"html-button-response","118","368647","0.0-67.0-0.0","CKN_110","110","","","","","","3277","<button class=""jspsych-btn""><img src=""stimuli/lightred.png"" style=""width: 200px;height: 200px;""></button>","0","lightred","turquoise","[""lightred"",""turquoise"",""low nameability""]","left-right","[""lightred"",""turquoise"",""low nameability""]","2","low nameability","16","left","response","1"
"html-audio-button-response","119","368856","0.0-67.0-1.0","CKN_110","110","","","","","","null","stimuli/bleep.m4a","null","lightred","turquoise","[""lightred"",""turquoise"",""low nameability""]","left-right","[""lightred"",""turquoise"",""low nameability""]","2","low nameability","16","left","audio_feedback","1"
"html-button-response","120","369375","0.0-68.0","CKN_110","110","","","","","","null","<button class=""jspsych-btn""><img src=""stimuli/white_square.png"" style=""width: 200px;height: 200px;""></button>","null","lightred","turquoise","[""lightred"",""turquoise"",""low nameability""]","left-right","[""lightred"",""turquoise"",""low nameability""]","2","low nameability","16","left","iti",""
"html-button-response","121","370757","0.0-69.0","CKN_110","110","","","","","","1374","","0","darkgreenblue","mustard","[""darkgreenblue"",""mustard"",""low nameability""]","left-right","[""darkgreenblue"",""mustard"",""low nameability""]","2","low nameability","17","left","trigger",""
"html-button-response","122","373967","0.0-70.0-0.0","CKN_110","110","","","","","","3200","<button class=""jspsych-btn""><img src=""stimuli/darkgreenblue.png"" style=""width: 200px;height: 200px;""></button>","0","darkgreenblue","mustard","[""darkgreenblue"",""mustard"",""low nameability""]","left-right","[""darkgreenblue"",""mustard"",""low nameability""]","2","low nameability","17","left","response","1"
"html-audio-button-response","123","374170","0.0-70.0-1.0","CKN_110","110","","","","","","null","stimuli/bleep.m4a","null","darkgreenblue","mustard","[""darkgreenblue"",""mustard"",""low nameability""]","left-right","[""darkgreenblue"",""mustard"",""low nameability""]","2","low nameability","17","left","audio_feedback","1"
"html-button-response","124","374688","0.0-71.0","CKN_110","110","","","","","","null","<button class=""jspsych-btn""><img src=""stimuli/white_square.png"" style=""width: 200px;height: 200px;""></button>","null","darkgreenblue","mustard","[""darkgreenblue"",""mustard"",""low nameability""]","left-right","[""darkgreenblue"",""mustard"",""low nameability""]","2","low nameability","17","left","iti",""
"html-button-response","125","376057","0.0-72.0","CKN_110","110","","","","","","1358","","0","lightred","pink","[""lightred"",""pink"",""low nameability""]","right-left","[""pink"",""lightred""]","2","low nameability","18","right","trigger",""
"html-button-response","126","382509","0.0-73.0-0.0","CKN_110","110","","","","","","6441","<button class=""jspsych-btn""><img src=""stimuli/lightred.png"" style=""width: 200px;height: 200px;""></button>","1","lightred","pink","[""lightred"",""pink"",""low nameability""]","right-left","[""pink"",""lightred""]","2","low nameability","18","right","response","1"
"html-audio-button-response","127","382717","0.0-73.0-1.0","CKN_110","110","","","","","","null","stimuli/bleep.m4a","null","lightred","pink","[""lightred"",""pink"",""low nameability""]","right-left","[""pink"",""lightred""]","2","low nameability","18","right","audio_feedback","1"
"html-button-response","128","383232","0.0-74.0","CKN_110","110","","","","","","null","<button class=""jspsych-btn""><img src=""stimuli/white_square.png"" style=""width: 200px;height: 200px;""></button>","null","lightred","pink","[""lightred"",""pink"",""low nameability""]","right-left","[""pink"",""lightred""]","2","low nameability","18","right","iti",""
"html-button-response","129","386034","0.0-75.0","CKN_110","110","","","","","","2790","","0","yellow","purple","[""yellow"",""purple"",""high nameability""]","right-left","[""purple"",""yellow""]","2","high nameability","19","right","trigger",""
"html-button-response","130","391161","0.0-76.0-0.0","CKN_110","110","","","","","","5121","<button class=""jspsych-btn""><img src=""stimuli/yellow.png"" style=""width: 200px;height: 200px;""></button>","1","yellow","purple","[""yellow"",""purple"",""high nameability""]","right-left","[""purple"",""yellow""]","2","high nameability","19","right","response","1"
"html-audio-button-response","131","391376","0.0-76.0-1.0","CKN_110","110","","","","","","null","stimuli/bleep.m4a","null","yellow","purple","[""yellow"",""purple"",""high nameability""]","right-left","[""purple"",""yellow""]","2","high nameability","19","right","audio_feedback","1"
"html-button-response","132","391885","0.0-77.0","CKN_110","110","","","","","","null","<button class=""jspsych-btn""><img src=""stimuli/white_square.png"" style=""width: 200px;height: 200px;""></button>","null","yellow","purple","[""yellow"",""purple"",""high nameability""]","right-left","[""purple"",""yellow""]","2","high nameability","19","right","iti",""
"html-button-response","133","396021","0.0-78.0","CKN_110","110","","","","","","4130","","0","pink","turquoise","[""pink"",""turquoise"",""low nameability""]","left-right","[""pink"",""turquoise"",""low nameability""]","2","low nameability","20","left","trigger",""
"html-button-response","134","401345","0.0-79.0-0.0","CKN_110","110","","","","","","5313","<button class=""jspsych-btn""><img src=""stimuli/pink.png"" style=""width: 200px;height: 200px;""></button>","0","pink","turquoise","[""pink"",""turquoise"",""low nameability""]","left-right","[""pink"",""turquoise"",""low nameability""]","2","low nameability","20","left","response","1"
"html-audio-button-response","135","401553","0.0-79.0-1.0","CKN_110","110","","","","","","null","stimuli/bleep.m4a","null","pink","turquoise","[""pink"",""turquoise"",""low nameability""]","left-right","[""pink"",""turquoise"",""low nameability""]","2","low nameability","20","left","audio_feedback","1"
"html-button-response","136","402069","0.0-80.0","CKN_110","110","","","","","","null","<button class=""jspsych-btn""><img src=""stimuli/white_square.png"" style=""width: 200px;height: 200px;""></button>","null","pink","turquoise","[""pink"",""turquoise"",""low nameability""]","left-right","[""pink"",""turquoise"",""low nameability""]","2","low nameability","20","left","iti",""
"pavlovia","137","402128","0.0-81.0","CKN_110","110","","","","","","","","","","","","","","","","","","",""
"pavlovia","138","402135","0.0-82.0","CKN_110","110","","","","","","","","","","","","","","","","","","",""
"html-audio-button-response","139","410204","0.0-83.0","CKN_110","110","","","","","","8136","stimuli/tada.m4a","0","","","","","","","","","","",""
"html-button-response","140","410938","0.0-84.0","CKN_110","110","","","","","","728","","0","","","","","","","","","","",""
"html-button-response","141","413177","0.0-85.0","CKN_110","110","","","","","","2231","","0","turquoise","mustard","[""turquoise"",""mustard"",""low nameability""]","right-left","[""mustard"",""turquoise""]","3","low nameability","21","right","trigger",""
"html-button-response","142","415618","0.0-86.0-0.0","CKN_110","110","","","","","","2428","<button class=""jspsych-btn""><img src=""stimuli/turquoise.png"" style=""width: 200px;height: 200px;""></button>","1","turquoise","mustard","[""turquoise"",""mustard"",""low nameability""]","right-left","[""mustard"",""turquoise""]","3","low nameability","21","right","response","1"
"html-audio-button-response","143","415830","0.0-86.0-1.0","CKN_110","110","","","","","","null","stimuli/bleep.m4a","null","turquoise","mustard","[""turquoise"",""mustard"",""low nameability""]","right-left","[""mustard"",""turquoise""]","3","low nameability","21","right","audio_feedback","1"
"html-button-response","144","416347","0.0-87.0","CKN_110","110","","","","","","null","<button class=""jspsych-btn""><img src=""stimuli/white_square.png"" style=""width: 200px;height: 200px;""></button>","null","turquoise","mustard","[""turquoise"",""mustard"",""low nameability""]","right-left","[""mustard"",""turquoise""]","3","low nameability","21","right","iti",""
"html-button-response","145","422167","0.0-88.0","CKN_110","110","","","","","","5782","","0","darkgreenblue","pink","[""darkgreenblue"",""pink"",""low nameability""]","left-right","[""darkgreenblue"",""pink"",""low nameability""]","3","low nameability","22","left","trigger",""
"html-button-response","146","427151","0.0-89.0-0.0","CKN_110","110","","","","","","4970","<button class=""jspsych-btn""><img src=""stimuli/darkgreenblue.png"" style=""width: 200px;height: 200px;""></button>","0","darkgreenblue","pink","[""darkgreenblue"",""pink"",""low nameability""]","left-right","[""darkgreenblue"",""pink"",""low nameability""]","3","low nameability","22","left","response","1"
"html-audio-button-response","147","427365","0.0-89.0-1.0","CKN_110","110","","","","","","null","stimuli/bleep.m4a","null","darkgreenblue","pink","[""darkgreenblue"",""pink"",""low nameability""]","left-right","[""darkgreenblue"",""pink"",""low nameability""]","3","low nameability","22","left","audio_feedback","1"
"html-button-response","148","427889","0.0-90.0","CKN_110","110","","","","","","null","<button class=""jspsych-btn""><img src=""stimuli/white_square.png"" style=""width: 200px;height: 200px;""></button>","null","darkgreenblue","pink","[""darkgreenblue"",""pink"",""low nameability""]","left-right","[""darkgreenblue"",""pink"",""low nameability""]","3","low nameability","22","left","iti",""
"html-button-response","149","432576","0.0-91.0","CKN_110","110","","","","","","4660","","0","pink","lightred","[""pink"",""lightred"",""low nameability""]","right-left","[""lightred"",""pink""]","3","low nameability","23","right","trigger",""
"html-button-response","150","436110","0.0-92.0-0.0","CKN_110","110","","","","","","3523","<button class=""jspsych-btn""><img src=""stimuli/pink.png"" style=""width: 200px;height: 200px;""></button>","1","pink","lightred","[""pink"",""lightred"",""low nameability""]","right-left","[""lightred"",""pink""]","3","low nameability","23","right","response","1"
"html-audio-button-response","151","436316","0.0-92.0-1.0","CKN_110","110","","","","","","null","stimuli/bleep.m4a","null","pink","lightred","[""pink"",""lightred"",""low nameability""]","right-left","[""lightred"",""pink""]","3","low nameability","23","right","audio_feedback","1"
"html-button-response","152","436832","0.0-93.0","CKN_110","110","","","","","","null","<button class=""jspsych-btn""><img src=""stimuli/white_square.png"" style=""width: 200px;height: 200px;""></button>","null","pink","lightred","[""pink"",""lightred"",""low nameability""]","right-left","[""lightred"",""pink""]","3","low nameability","23","right","iti",""
"html-button-response","153","443294","0.0-94.0","CKN_110","110","","","","","","6450","","0","yellow","orange","[""yellow"",""orange"",""high nameability""]","left-right","[""yellow"",""orange"",""high nameability""]","3","high nameability","24","left","trigger",""
"html-button-response","154","446121","0.0-95.0-0.0","CKN_110","110","","","","","","2817","<button class=""jspsych-btn""><img src=""stimuli/yellow.png"" style=""width: 200px;height: 200px;""></button>","0","yellow","orange","[""yellow"",""orange"",""high nameability""]","left-right","[""yellow"",""orange"",""high nameability""]","3","high nameability","24","left","response","1"
"html-audio-button-response","155","446331","0.0-95.0-1.0","CKN_110","110","","","","","","null","stimuli/bleep.m4a","null","yellow","orange","[""yellow"",""orange"",""high nameability""]","left-right","[""yellow"",""orange"",""high nameability""]","3","high nameability","24","left","audio_feedback","1"
"html-button-response","156","446860","0.0-96.0","CKN_110","110","","","","","","null","<button class=""jspsych-btn""><img src=""stimuli/white_square.png"" style=""width: 200px;height: 200px;""></button>","null","yellow","orange","[""yellow"",""orange"",""high nameability""]","left-right","[""yellow"",""orange"",""high nameability""]","3","high nameability","24","left","iti",""
"html-button-response","157","449033","0.0-97.0","CKN_110","110","","","","","","2158","","0","neonyellow","mustard","[""neonyellow"",""mustard"",""low nameability""]","right-left","[""mustard"",""neonyellow""]","3","low nameability","25","right","trigger",""
"html-button-response","158","451037","0.0-98.0-0.0","CKN_110","110","","","","","","1992","<button class=""jspsych-btn""><img src=""stimuli/neonyellow.png"" style=""width: 200px;height: 200px;""></button>","1","neonyellow","mustard","[""neonyellow"",""mustard"",""low nameability""]","right-left","[""mustard"",""neonyellow""]","3","low nameability","25","right","response","1"
"html-audio-button-response","159","451247","0.0-98.0-1.0","CKN_110","110","","","","","","null","stimuli/bleep.m4a","null","neonyellow","mustard","[""neonyellow"",""mustard"",""low nameability""]","right-left","[""mustard"",""neonyellow""]","3","low nameability","25","right","audio_feedback","1"
"html-button-response","160","451761","0.0-99.0","CKN_110","110","","","","","","null","<button class=""jspsych-btn""><img src=""stimuli/white_square.png"" style=""width: 200px;height: 200px;""></button>","null","neonyellow","mustard","[""neonyellow"",""mustard"",""low nameability""]","right-left","[""mustard"",""neonyellow""]","3","low nameability","25","right","iti",""
"html-button-response","161","455464","0.0-100.0","CKN_110","110","","","","","","3693","","0","neonyellow","lightred","[""neonyellow"",""lightred"",""low nameability""]","left-right","[""neonyellow"",""lightred"",""low nameability""]","3","low nameability","26","left","trigger",""
"html-button-response","162","458282","0.0-101.0-0.0","CKN_110","110","","","","","","2808","<button class=""jspsych-btn""><img src=""stimuli/neonyellow.png"" style=""width: 200px;height: 200px;""></button>","0","neonyellow","lightred","[""neonyellow"",""lightred"",""low nameability""]","left-right","[""neonyellow"",""lightred"",""low nameability""]","3","low nameability","26","left","response","1"
"html-audio-button-response","163","458491","0.0-101.0-1.0","CKN_110","110","","","","","","null","stimuli/bleep.m4a","null","neonyellow","lightred","[""neonyellow"",""lightred"",""low nameability""]","left-right","[""neonyellow"",""lightred"",""low nameability""]","3","low nameability","26","left","audio_feedback","1"
"html-button-response","164","459004","0.0-102.0","CKN_110","110","","","","","","null","<button class=""jspsych-btn""><img src=""stimuli/white_square.png"" style=""width: 200px;height: 200px;""></button>","null","neonyellow","lightred","[""neonyellow"",""lightred"",""low nameability""]","left-right","[""neonyellow"",""lightred"",""low nameability""]","3","low nameability","26","left","iti",""
"html-button-response","165","464726","0.0-103.0","CKN_110","110","","","","","","5708","","0","pink","neonyellow","[""pink"",""neonyellow"",""low nameability""]","right-left","[""neonyellow"",""pink""]","3","low nameability","27","right","trigger",""
"html-button-response","166","466680","0.0-104.0-0.0","CKN_110","110","","","","","","1947","<button class=""jspsych-btn""><img src=""stimuli/pink.png"" style=""width: 200px;height: 200px;""></button>","1","pink","neonyellow","[""pink"",""neonyellow"",""low nameability""]","right-left","[""neonyellow"",""pink""]","3","low nameability","27","right","response","1"
"html-audio-button-response","167","466885","0.0-104.0-1.0","CKN_110","110","","","","","","null","stimuli/bleep.m4a","null","pink","neonyellow","[""pink"",""neonyellow"",""low nameability""]","right-left","[""neonyellow"",""pink""]","3","low nameability","27","right","audio_feedback","1"
"html-button-response","168","467400","0.0-105.0","CKN_110","110","","","","","","null","<button class=""jspsych-btn""><img src=""stimuli/white_square.png"" style=""width: 200px;height: 200px;""></button>","null","pink","neonyellow","[""pink"",""neonyellow"",""low nameability""]","right-left","[""neonyellow"",""pink""]","3","low nameability","27","right","iti",""
"html-button-response","169","471991","0.0-106.0","CKN_110","110","","","","","","4579","","0","lightred","darkgreenblue","[""lightred"",""darkgreenblue"",""low nameability""]","left-right","[""lightred"",""darkgreenblue"",""low nameability""]","3","low nameability","28","left","trigger",""
"html-button-response","170","477933","0.0-107.0-0.0","CKN_110","110","","","","","","5933","<button class=""jspsych-btn""><img src=""stimuli/lightred.png"" style=""width: 200px;height: 200px;""></button>","0","lightred","darkgreenblue","[""lightred"",""darkgreenblue"",""low nameability""]","left-right","[""lightred"",""darkgreenblue"",""low nameability""]","3","low nameability","28","left","response","1"
"html-audio-button-response","171","478136","0.0-107.0-1.0","CKN_110","110","","","","","","null","stimuli/bleep.m4a","null","lightred","darkgreenblue","[""lightred"",""darkgreenblue"",""low nameability""]","left-right","[""lightred"",""darkgreenblue"",""low nameability""]","3","low nameability","28","left","audio_feedback","1"
"html-button-response","172","478644","0.0-108.0","CKN_110","110","","","","","","null","<button class=""jspsych-btn""><img src=""stimuli/white_square.png"" style=""width: 200px;height: 200px;""></button>","null","lightred","darkgreenblue","[""lightred"",""darkgreenblue"",""low nameability""]","left-right","[""lightred"",""darkgreenblue"",""low nameability""]","3","low nameability","28","left","iti",""
"html-button-response","173","482253","0.0-109.0","CKN_110","110","","","","","","3603","","0","yellow","brown","[""yellow"",""brown"",""high nameability""]","left-right","[""yellow"",""brown"",""high nameability""]","3","high nameability","29","left","trigger",""
"html-button-response","174","485977","0.0-110.0-0.0","CKN_110","110","","","","","","3710","<button class=""jspsych-btn""><img src=""stimuli/yellow.png"" style=""width: 200px;height: 200px;""></button>","0","yellow","brown","[""yellow"",""brown"",""high nameability""]","left-right","[""yellow"",""brown"",""high nameability""]","3","high nameability","29","left","response","1"
"html-audio-button-response","175","486192","0.0-110.0-1.0","CKN_110","110","","","","","","null","stimuli/bleep.m4a","null","yellow","brown","[""yellow"",""brown"",""high nameability""]","left-right","[""yellow"",""brown"",""high nameability""]","3","high nameability","29","left","audio_feedback","1"
"html-button-response","176","486720","0.0-111.0","CKN_110","110","","","","","","null","<button class=""jspsych-btn""><img src=""stimuli/white_square.png"" style=""width: 200px;height: 200px;""></button>","null","yellow","brown","[""yellow"",""brown"",""high nameability""]","left-right","[""yellow"",""brown"",""high nameability""]","3","high nameability","29","left","iti",""
"html-button-response","177","490930","0.0-112.0","CKN_110","110","","","","","","4182","","0","turquoise","pink","[""turquoise"",""pink"",""low nameability""]","right-left","[""pink"",""turquoise""]","3","low nameability","30","right","trigger",""
"html-button-response","178","494279","0.0-113.0-0.0","CKN_110","110","","","","","","3335","<button class=""jspsych-btn""><img src=""stimuli/turquoise.png"" style=""width: 200px;height: 200px;""></button>","1","turquoise","pink","[""turquoise"",""pink"",""low nameability""]","right-left","[""pink"",""turquoise""]","3","low nameability","30","right","response","1"
"html-audio-button-response","179","494488","0.0-113.0-1.0","CKN_110","110","","","","","","null","stimuli/bleep.m4a","null","turquoise","pink","[""turquoise"",""pink"",""low nameability""]","right-left","[""pink"",""turquoise""]","3","low nameability","30","right","audio_feedback","1"
"html-button-response","180","495003","0.0-114.0","CKN_110","110","","","","","","null","<button class=""jspsych-btn""><img src=""stimuli/white_square.png"" style=""width: 200px;height: 200px;""></button>","null","turquoise","pink","[""turquoise"",""pink"",""low nameability""]","right-left","[""pink"",""turquoise""]","3","low nameability","30","right","iti",""
"pavlovia","181","495102","0.0-115.0","CKN_110","110","","","","","","","","","","","","","","","","","","",""
"pavlovia","182","495110","0.0-116.0","CKN_110","110","","","","","","","","","","","","","","","","","","",""
"html-audio-button-response","183","500614","0.0-117.0","CKN_110","110","","","","","","5608","stimuli/tada.m4a","0","","","","","","","","","","",""
"html-button-response","184","505112","0.0-118.0","CKN_110","110","","","","","","4491","","0","","","","","","","","","","",""
"html-button-response","185","507541","0.0-119.0","CKN_110","110","","","","","","2420","","0","purple","yellow","[""purple"",""yellow"",""high nameability""]","right-left","[""yellow"",""purple""]","4","high nameability","31","right","trigger",""
"html-button-response","186","509331","0.0-120.0-0.0","CKN_110","110","","","","","","1781","<button class=""jspsych-btn""><img src=""stimuli/purple.png"" style=""width: 200px;height: 200px;""></button>","1","purple","yellow","[""purple"",""yellow"",""high nameability""]","right-left","[""yellow"",""purple""]","4","high nameability","31","right","response","1"
"html-audio-button-response","187","509538","0.0-120.0-1.0","CKN_110","110","","","","","","null","stimuli/bleep.m4a","null","purple","yellow","[""purple"",""yellow"",""high nameability""]","right-left","[""yellow"",""purple""]","4","high nameability","31","right","audio_feedback","1"
"html-button-response","188","510056","0.0-121.0","CKN_110","110","","","","","","null","<button class=""jspsych-btn""><img src=""stimuli/white_square.png"" style=""width: 200px;height: 200px;""></button>","null","purple","yellow","[""purple"",""yellow"",""high nameability""]","right-left","[""yellow"",""purple""]","4","high nameability","31","right","iti",""
"html-button-response","189","514085","0.0-122.0","CKN_110","110","","","","","","4016","","0","yellow","red","[""yellow"",""red"",""high nameability""]","right-left","[""red"",""yellow""]","4","high nameability","32","right","trigger",""
"html-button-response","190","516661","0.0-123.0-0.0","CKN_110","110","","","","","","2565","<button class=""jspsych-btn""><img src=""stimuli/yellow.png"" style=""width: 200px;height: 200px;""></button>","1","yellow","red","[""yellow"",""red"",""high nameability""]","right-left","[""red"",""yellow""]","4","high nameability","32","right","response","1"
"html-audio-button-response","191","516867","0.0-123.0-1.0","CKN_110","110","","","","","","null","stimuli/bleep.m4a","null","yellow","red","[""yellow"",""red"",""high nameability""]","right-left","[""red"",""yellow""]","4","high nameability","32","right","audio_feedback","1"
"html-button-response","192","517381","0.0-124.0","CKN_110","110","","","","","","null","<button class=""jspsych-btn""><img src=""stimuli/white_square.png"" style=""width: 200px;height: 200px;""></button>","null","yellow","red","[""yellow"",""red"",""high nameability""]","right-left","[""red"",""yellow""]","4","high nameability","32","right","iti",""
"html-button-response","193","519636","0.0-125.0","CKN_110","110","","","","","","2245","","0","turquoise","darkgreenblue","[""turquoise"",""darkgreenblue"",""low nameability""]","left-right","[""turquoise"",""darkgreenblue"",""low nameability""]","4","low nameability","33","left","trigger",""
"html-button-response","194","523543","0.0-126.0-0.0","CKN_110","110","","","","","","3898","<button class=""jspsych-btn""><img src=""stimuli/turquoise.png"" style=""width: 200px;height: 200px;""></button>","0","turquoise","darkgreenblue","[""turquoise"",""darkgreenblue"",""low nameability""]","left-right","[""turquoise"",""darkgreenblue"",""low nameability""]","4","low nameability","33","left","response","1"
"html-audio-button-response","195","523748","0.0-126.0-1.0","CKN_110","110","","","","","","null","stimuli/bleep.m4a","null","turquoise","darkgreenblue","[""turquoise"",""darkgreenblue"",""low nameability""]","left-right","[""turquoise"",""darkgreenblue"",""low nameability""]","4","low nameability","33","left","audio_feedback","1"
"html-button-response","196","524266","0.0-127.0","CKN_110","110","","","","","","null","<button class=""jspsych-btn""><img src=""stimuli/white_square.png"" style=""width: 200px;height: 200px;""></button>","null","turquoise","darkgreenblue","[""turquoise"",""darkgreenblue"",""low nameability""]","left-right","[""turquoise"",""darkgreenblue"",""low nameability""]","4","low nameability","33","left","iti",""
"html-button-response","197","527609","0.0-128.0","CKN_110","110","","","","","","3330","","0","darkgreenblue","turquoise","[""darkgreenblue"",""turquoise"",""low nameability""]","right-left","[""turquoise"",""darkgreenblue""]","4","low nameability","34","right","trigger",""
"html-button-response","198","530994","0.0-129.0-0.0","CKN_110","110","","","","","","3372","<button class=""jspsych-btn""><img src=""stimuli/darkgreenblue.png"" style=""width: 200px;height: 200px;""></button>","1","darkgreenblue","turquoise","[""darkgreenblue"",""turquoise"",""low nameability""]","right-left","[""turquoise"",""darkgreenblue""]","4","low nameability","34","right","response","1"
"html-audio-button-response","199","531195","0.0-129.0-1.0","CKN_110","110","","","","","","null","stimuli/bleep.m4a","null","darkgreenblue","turquoise","[""darkgreenblue"",""turquoise"",""low nameability""]","right-left","[""turquoise"",""darkgreenblue""]","4","low nameability","34","right","audio_feedback","1"
"html-button-response","200","531709","0.0-130.0","CKN_110","110","","","","","","null","<button class=""jspsych-btn""><img src=""stimuli/white_square.png"" style=""width: 200px;height: 200px;""></button>","null","darkgreenblue","turquoise","[""darkgreenblue"",""turquoise"",""low nameability""]","right-left","[""turquoise"",""darkgreenblue""]","4","low nameability","34","right","iti",""
"html-button-response","201","533859","0.0-131.0","CKN_110","110","","","","","","2133","","0","blue","brown","[""blue"",""brown"",""high nameability""]","left-right","[""blue"",""brown"",""high nameability""]","4","high nameability","35","left","trigger",""
"html-button-response","202","536001","0.0-132.0-0.0","CKN_110","110","","","","","","2133","<button class=""jspsych-btn""><img src=""stimuli/blue.png"" style=""width: 200px;height: 200px;""></button>","0","blue","brown","[""blue"",""brown"",""high nameability""]","left-right","[""blue"",""brown"",""high nameability""]","4","high nameability","35","left","response","1"
"html-audio-button-response","203","536201","0.0-132.0-1.0","CKN_110","110","","","","","","null","stimuli/bleep.m4a","null","blue","brown","[""blue"",""brown"",""high nameability""]","left-right","[""blue"",""brown"",""high nameability""]","4","high nameability","35","left","audio_feedback","1"
"html-button-response","204","536716","0.0-133.0","CKN_110","110","","","","","","null","<button class=""jspsych-btn""><img src=""stimuli/white_square.png"" style=""width: 200px;height: 200px;""></button>","null","blue","brown","[""blue"",""brown"",""high nameability""]","left-right","[""blue"",""brown"",""high nameability""]","4","high nameability","35","left","iti",""
"html-button-response","205","538106","0.0-134.0","CKN_110","110","","","","","","1378","","0","mustard","lightred","[""mustard"",""lightred"",""low nameability""]","left-right","[""mustard"",""lightred"",""low nameability""]","4","low nameability","36","left","trigger",""
"html-button-response","206","542583","0.0-135.0-0.0","CKN_110","110","","","","","","4467","<button class=""jspsych-btn""><img src=""stimuli/mustard.png"" style=""width: 200px;height: 200px;""></button>","0","mustard","lightred","[""mustard"",""lightred"",""low nameability""]","left-right","[""mustard"",""lightred"",""low nameability""]","4","low nameability","36","left","response","1"
"html-audio-button-response","207","542785","0.0-135.0-1.0","CKN_110","110","","","","","","null","stimuli/bleep.m4a","null","mustard","lightred","[""mustard"",""lightred"",""low nameability""]","left-right","[""mustard"",""lightred"",""low nameability""]","4","low nameability","36","left","audio_feedback","1"
"html-button-response","208","543299","0.0-136.0","CKN_110","110","","","","","","93","<button class=""jspsych-btn""><img src=""stimuli/white_square.png"" style=""width: 200px;height: 200px;""></button>","0","mustard","lightred","[""mustard"",""lightred"",""low nameability""]","left-right","[""mustard"",""lightred"",""low nameability""]","4","low nameability","36","left","iti",""
"html-button-response","209","549189","0.0-137.0","CKN_110","110","","","","","","5882","","0","darkgreenblue","neonyellow","[""darkgreenblue"",""neonyellow"",""low nameability""]","right-left","[""neonyellow"",""darkgreenblue""]","4","low nameability","37","right","trigger",""
"html-button-response","210","550915","0.0-138.0-0.0","CKN_110","110","","","","","","1715","<button class=""jspsych-btn""><img src=""stimuli/darkgreenblue.png"" style=""width: 200px;height: 200px;""></button>","1","darkgreenblue","neonyellow","[""darkgreenblue"",""neonyellow"",""low nameability""]","right-left","[""neonyellow"",""darkgreenblue""]","4","low nameability","37","right","response","1"
"html-audio-button-response","211","551120","0.0-138.0-1.0","CKN_110","110","","","","","","null","stimuli/bleep.m4a","null","darkgreenblue","neonyellow","[""darkgreenblue"",""neonyellow"",""low nameability""]","right-left","[""neonyellow"",""darkgreenblue""]","4","low nameability","37","right","audio_feedback","1"
"html-button-response","212","551634","0.0-139.0","CKN_110","110","","","","","","null","<button class=""jspsych-btn""><img src=""stimuli/white_square.png"" style=""width: 200px;height: 200px;""></button>","null","darkgreenblue","neonyellow","[""darkgreenblue"",""neonyellow"",""low nameability""]","right-left","[""neonyellow"",""darkgreenblue""]","4","low nameability","37","right","iti",""
"html-button-response","213","553300","0.0-140.0","CKN_110","110","","","","","","1658","","0","brown","blue","[""brown"",""blue"",""high nameability""]","right-left","[""blue"",""brown""]","4","high nameability","38","right","trigger",""
"html-button-response","214","556818","0.0-141.0-0.0","CKN_110","110","","","","","","3512","<button class=""jspsych-btn""><img src=""stimuli/brown.png"" style=""width: 200px;height: 200px;""></button>","1","brown","blue","[""brown"",""blue"",""high nameability""]","right-left","[""blue"",""brown""]","4","high nameability","38","right","response","1"
"html-audio-button-response","215","557028","0.0-141.0-1.0","CKN_110","110","","","","","","null","stimuli/bleep.m4a","null","brown","blue","[""brown"",""blue"",""high nameability""]","right-left","[""blue"",""brown""]","4","high nameability","38","right","audio_feedback","1"
"html-button-response","216","557544","0.0-142.0","CKN_110","110","","","","","","null","<button class=""jspsych-btn""><img src=""stimuli/white_square.png"" style=""width: 200px;height: 200px;""></button>","null","brown","blue","[""brown"",""blue"",""high nameability""]","right-left","[""blue"",""brown""]","4","high nameability","38","right","iti",""
"html-button-response","217","560226","0.0-143.0","CKN_110","110","","","","","","2666","","0","neonyellow","turquoise","[""neonyellow"",""turquoise"",""low nameability""]","right-left","[""turquoise"",""neonyellow""]","4","low nameability","39","right","trigger",""
"html-button-response","218","563893","0.0-144.0-0.0","CKN_110","110","","","","","","3660","<button class=""jspsych-btn""><img src=""stimuli/neonyellow.png"" style=""width: 200px;height: 200px;""></button>","1","neonyellow","turquoise","[""neonyellow"",""turquoise"",""low nameability""]","right-left","[""turquoise"",""neonyellow""]","4","low nameability","39","right","response","1"
"html-audio-button-response","219","564103","0.0-144.0-1.0","CKN_110","110","","","","","","null","stimuli/bleep.m4a","null","neonyellow","turquoise","[""neonyellow"",""turquoise"",""low nameability""]","right-left","[""turquoise"",""neonyellow""]","4","low nameability","39","right","audio_feedback","1"
"html-button-response","220","564620","0.0-145.0","CKN_110","110","","","","","","null","<button class=""jspsych-btn""><img src=""stimuli/white_square.png"" style=""width: 200px;height: 200px;""></button>","null","neonyellow","turquoise","[""neonyellow"",""turquoise"",""low nameability""]","right-left","[""turquoise"",""neonyellow""]","4","low nameability","39","right","iti",""
"html-button-response","221","568797","0.0-146.0","CKN_110","110","","","","","","4168","","0","neonyellow","pink","[""neonyellow"",""pink"",""low nameability""]","left-right","[""neonyellow"",""pink"",""low nameability""]","4","low nameability","40","left","trigger",""
"html-button-response","222","571917","0.0-147.0-0.0","CKN_110","110","","","","","","3110","<button class=""jspsych-btn""><img src=""stimuli/neonyellow.png"" style=""width: 200px;height: 200px;""></button>","0","neonyellow","pink","[""neonyellow"",""pink"",""low nameability""]","left-right","[""neonyellow"",""pink"",""low nameability""]","4","low nameability","40","left","response","1"
"html-audio-button-response","223","572117","0.0-147.0-1.0","CKN_110","110","","","","","","null","stimuli/bleep.m4a","null","neonyellow","pink","[""neonyellow"",""pink"",""low nameability""]","left-right","[""neonyellow"",""pink"",""low nameability""]","4","low nameability","40","left","audio_feedback","1"
"html-button-response","224","572631","0.0-148.0","CKN_110","110","","","","","","null","<button class=""jspsych-btn""><img src=""stimuli/white_square.png"" style=""width: 200px;height: 200px;""></button>","null","neonyellow","pink","[""neonyellow"",""pink"",""low nameability""]","left-right","[""neonyellow"",""pink"",""low nameability""]","4","low nameability","40","left","iti",""
"pavlovia","225","572691","0.0-149.0","CKN_110","110","","","","","","","","","","","","","","","","","","",""
"pavlovia","226","572699","0.0-150.0","CKN_110","110","","","","","","","","","","","","","","","","","","",""
"html-audio-button-response","227","578109","0.0-151.0","CKN_110","110","","","","","","5472","stimuli/tada.m4a","0","","","","","","","","","","",""
"html-button-response","228","578836","0.0-152.0","CKN_110","110","","","","","","722","","0","","","","","","","","","","",""
"html-button-response","229","581503","0.0-153.0","CKN_110","110","","","","","","2659","","0","red","yellow","[""red"",""yellow"",""high nameability""]","left-right","[""red"",""yellow"",""high nameability""]","5","high nameability","41","left","trigger",""
"html-button-response","230","586127","0.0-154.0-0.0","CKN_110","110","","","","","","4614","<button class=""jspsych-btn""><img src=""stimuli/red.png"" style=""width: 200px;height: 200px;""></button>","0","red","yellow","[""red"",""yellow"",""high nameability""]","left-right","[""red"",""yellow"",""high nameability""]","5","high nameability","41","left","response","1"
"html-audio-button-response","231","586330","0.0-154.0-1.0","CKN_110","110","","","","","","null","stimuli/bleep.m4a","null","red","yellow","[""red"",""yellow"",""high nameability""]","left-right","[""red"",""yellow"",""high nameability""]","5","high nameability","41","left","audio_feedback","1"
"html-button-response","232","586843","0.0-155.0","CKN_110","110","","","","","","null","<button class=""jspsych-btn""><img src=""stimuli/white_square.png"" style=""width: 200px;height: 200px;""></button>","null","red","yellow","[""red"",""yellow"",""high nameability""]","left-right","[""red"",""yellow"",""high nameability""]","5","high nameability","41","left","iti",""
"html-button-response","233","591194","0.0-156.0","CKN_110","110","","","","","","4337","","0","yellow","blue","[""yellow"",""blue"",""high nameability""]","right-left","[""blue"",""yellow""]","5","high nameability","42","right","trigger",""
"html-button-response","234","596497","0.0-157.0-0.0","CKN_110","110","","","","","","5290","<button class=""jspsych-btn""><img src=""stimuli/yellow.png"" style=""width: 200px;height: 200px;""></button>","1","yellow","blue","[""yellow"",""blue"",""high nameability""]","right-left","[""blue"",""yellow""]","5","high nameability","42","right","response","1"
"html-audio-button-response","235","596702","0.0-157.0-1.0","CKN_110","110","","","","","","null","stimuli/bleep.m4a","null","yellow","blue","[""yellow"",""blue"",""high nameability""]","right-left","[""blue"",""yellow""]","5","high nameability","42","right","audio_feedback","1"
"html-button-response","236","597218","0.0-158.0","CKN_110","110","","","","","","null","<button class=""jspsych-btn""><img src=""stimuli/white_square.png"" style=""width: 200px;height: 200px;""></button>","null","yellow","blue","[""yellow"",""blue"",""high nameability""]","right-left","[""blue"",""yellow""]","5","high nameability","42","right","iti",""
"html-button-response","237","599297","0.0-159.0","CKN_110","110","","","","","","2068","","0","neonyellow","darkgreenblue","[""neonyellow"",""darkgreenblue"",""low nameability""]","left-right","[""neonyellow"",""darkgreenblue"",""low nameability""]","5","low nameability","43","left","trigger",""
"html-button-response","238","605562","0.0-160.0-0.0","CKN_110","110","","","","","","6259","<button class=""jspsych-btn""><img src=""stimuli/neonyellow.png"" style=""width: 200px;height: 200px;""></button>","0","neonyellow","darkgreenblue","[""neonyellow"",""darkgreenblue"",""low nameability""]","left-right","[""neonyellow"",""darkgreenblue"",""low nameability""]","5","low nameability","43","left","response","1"
"html-audio-button-response","239","605764","0.0-160.0-1.0","CKN_110","110","","","","","","null","stimuli/bleep.m4a","null","neonyellow","darkgreenblue","[""neonyellow"",""darkgreenblue"",""low nameability""]","left-right","[""neonyellow"",""darkgreenblue"",""low nameability""]","5","low nameability","43","left","audio_feedback","1"
"html-button-response","240","606277","0.0-161.0","CKN_110","110","","","","","","null","<button class=""jspsych-btn""><img src=""stimuli/white_square.png"" style=""width: 200px;height: 200px;""></button>","null","neonyellow","darkgreenblue","[""neonyellow"",""darkgreenblue"",""low nameability""]","left-right","[""neonyellow"",""darkgreenblue"",""low nameability""]","5","low nameability","43","left","iti",""
"html-button-response","241","615141","0.0-162.0","CKN_110","110","","","","","","8850","","0","darkgreenblue","lightred","[""darkgreenblue"",""lightred"",""low nameability""]","right-left","[""lightred"",""darkgreenblue""]","5","low nameability","44","right","trigger",""
"html-button-response","242","618539","0.0-163.0-0.0","CKN_110","110","","","","","","3390","<button class=""jspsych-btn""><img src=""stimuli/darkgreenblue.png"" style=""width: 200px;height: 200px;""></button>","1","darkgreenblue","lightred","[""darkgreenblue"",""lightred"",""low nameability""]","right-left","[""lightred"",""darkgreenblue""]","5","low nameability","44","right","response","1"
"html-audio-button-response","243","618746","0.0-163.0-1.0","CKN_110","110","","","","","","null","stimuli/bleep.m4a","null","darkgreenblue","lightred","[""darkgreenblue"",""lightred"",""low nameability""]","right-left","[""lightred"",""darkgreenblue""]","5","low nameability","44","right","audio_feedback","1"
"html-button-response","244","619260","0.0-164.0","CKN_110","110","","","","","","null","<button class=""jspsych-btn""><img src=""stimuli/white_square.png"" style=""width: 200px;height: 200px;""></button>","null","darkgreenblue","lightred","[""darkgreenblue"",""lightred"",""low nameability""]","right-left","[""lightred"",""darkgreenblue""]","5","low nameability","44","right","iti",""
"html-button-response","245","622733","0.0-165.0","CKN_110","110","","","","","","3452","","0","orange","purple","[""orange"",""purple"",""high nameability""]","left-right","[""orange"",""purple"",""high nameability""]","5","high nameability","45","left","trigger",""
"html-button-response","246","625691","0.0-166.0-0.0","CKN_110","110","","","","","","2951","<button class=""jspsych-btn""><img src=""stimuli/orange.png"" style=""width: 200px;height: 200px;""></button>","0","orange","purple","[""orange"",""purple"",""high nameability""]","left-right","[""orange"",""purple"",""high nameability""]","5","high nameability","45","left","response","1"
"html-audio-button-response","247","625891","0.0-166.0-1.0","CKN_110","110","","","","","","null","stimuli/bleep.m4a","null","orange","purple","[""orange"",""purple"",""high nameability""]","left-right","[""orange"",""purple"",""high nameability""]","5","high nameability","45","left","audio_feedback","1"
"html-button-response","248","626398","0.0-167.0","CKN_110","110","","","","","","null","<button class=""jspsych-btn""><img src=""stimuli/white_square.png"" style=""width: 200px;height: 200px;""></button>","null","orange","purple","[""orange"",""purple"",""high nameability""]","left-right","[""orange"",""purple"",""high nameability""]","5","high nameability","45","left","iti",""
"html-button-response","249","632485","0.0-168.0","CKN_110","110","","","","","","6082","","0","red","orange","[""red"",""orange"",""high nameability""]","right-left","[""orange"",""red""]","5","high nameability","46","right","trigger",""
"html-button-response","250","636181","0.0-169.0-0.0","CKN_110","110","","","","","","3685","<button class=""jspsych-btn""><img src=""stimuli/red.png"" style=""width: 200px;height: 200px;""></button>","1","red","orange","[""red"",""orange"",""high nameability""]","right-left","[""orange"",""red""]","5","high nameability","46","right","response","1"
"html-audio-button-response","251","636391","0.0-169.0-1.0","CKN_110","110","","","","","","null","stimuli/bleep.m4a","null","red","orange","[""red"",""orange"",""high nameability""]","right-left","[""orange"",""red""]","5","high nameability","46","right","audio_feedback","1"
"html-button-response","252","636905","0.0-170.0","CKN_110","110","","","","","","null","<button class=""jspsych-btn""><img src=""stimuli/white_square.png"" style=""width: 200px;height: 200px;""></button>","null","red","orange","[""red"",""orange"",""high nameability""]","right-left","[""orange"",""red""]","5","high nameability","46","right","iti",""
"html-button-response","253","639408","0.0-171.0","CKN_110","110","","","","","","2488","","0","red","blue","[""red"",""blue"",""high nameability""]","right-left","[""blue"",""red""]","5","high nameability","47","right","trigger",""
"html-button-response","254","644126","0.0-172.0-0.0","CKN_110","110","","","","","","4707","<button class=""jspsych-btn""><img src=""stimuli/red.png"" style=""width: 200px;height: 200px;""></button>","1","red","blue","[""red"",""blue"",""high nameability""]","right-left","[""blue"",""red""]","5","high nameability","47","right","response","1"
"html-audio-button-response","255","644330","0.0-172.0-1.0","CKN_110","110","","","","","","null","stimuli/bleep.m4a","null","red","blue","[""red"",""blue"",""high nameability""]","right-left","[""blue"",""red""]","5","high nameability","47","right","audio_feedback","1"
"html-button-response","256","644845","0.0-173.0","CKN_110","110","","","","","","null","<button class=""jspsych-btn""><img src=""stimuli/white_square.png"" style=""width: 200px;height: 200px;""></button>","null","red","blue","[""red"",""blue"",""high nameability""]","right-left","[""blue"",""red""]","5","high nameability","47","right","iti",""
"html-button-response","257","649171","0.0-174.0","CKN_110","110","","","","","","4314","","0","lightred","neonyellow","[""lightred"",""neonyellow"",""low nameability""]","left-right","[""lightred"",""neonyellow"",""low nameability""]","5","low nameability","48","left","trigger",""
"html-button-response","258","651263","0.0-175.0-0.0","CKN_110","110","","","","","","2082","<button class=""jspsych-btn""><img src=""stimuli/lightred.png"" style=""width: 200px;height: 200px;""></button>","0","lightred","neonyellow","[""lightred"",""neonyellow"",""low nameability""]","left-right","[""lightred"",""neonyellow"",""low nameability""]","5","low nameability","48","left","response","1"
"html-audio-button-response","259","651472","0.0-175.0-1.0","CKN_110","110","","","","","","null","stimuli/bleep.m4a","null","lightred","neonyellow","[""lightred"",""neonyellow"",""low nameability""]","left-right","[""lightred"",""neonyellow"",""low nameability""]","5","low nameability","48","left","audio_feedback","1"
"html-button-response","260","651990","0.0-176.0","CKN_110","110","","","","","","null","<button class=""jspsych-btn""><img src=""stimuli/white_square.png"" style=""width: 200px;height: 200px;""></button>","null","lightred","neonyellow","[""lightred"",""neonyellow"",""low nameability""]","left-right","[""lightred"",""neonyellow"",""low nameability""]","5","low nameability","48","left","iti",""
"html-button-response","261","653429","0.0-177.0","CKN_110","110","","","","","","1422","","0","lightred","mustard","[""lightred"",""mustard"",""low nameability""]","right-left","[""mustard"",""lightred""]","5","low nameability","49","right","trigger",""
"html-button-response","262","655265","0.0-178.0-0.0","CKN_110","110","","","","","","1828","<button class=""jspsych-btn""><img src=""stimuli/lightred.png"" style=""width: 200px;height: 200px;""></button>","1","lightred","mustard","[""lightred"",""mustard"",""low nameability""]","right-left","[""mustard"",""lightred""]","5","low nameability","49","right","response","1"
"html-audio-button-response","263","655478","0.0-178.0-1.0","CKN_110","110","","","","","","null","stimuli/bleep.m4a","null","lightred","mustard","[""lightred"",""mustard"",""low nameability""]","right-left","[""mustard"",""lightred""]","5","low nameability","49","right","audio_feedback","1"
"html-button-response","264","655997","0.0-179.0","CKN_110","110","","","","","","null","<button class=""jspsych-btn""><img src=""stimuli/white_square.png"" style=""width: 200px;height: 200px;""></button>","null","lightred","mustard","[""lightred"",""mustard"",""low nameability""]","right-left","[""mustard"",""lightred""]","5","low nameability","49","right","iti",""
"html-button-response","265","659224","0.0-180.0","CKN_110","110","","","","","","3211","","0","purple","blue","[""purple"",""blue"",""high nameability""]","right-left","[""blue"",""purple""]","5","high nameability","50","right","trigger",""
"html-button-response","266","662468","0.0-181.0-0.0","CKN_110","110","","","","","","3234","<button class=""jspsych-btn""><img src=""stimuli/purple.png"" style=""width: 200px;height: 200px;""></button>","1","purple","blue","[""purple"",""blue"",""high nameability""]","right-left","[""blue"",""purple""]","5","high nameability","50","right","response","1"
"html-audio-button-response","267","662670","0.0-181.0-1.0","CKN_110","110","","","","","","null","stimuli/bleep.m4a","null","purple","blue","[""purple"",""blue"",""high nameability""]","right-left","[""blue"",""purple""]","5","high nameability","50","right","audio_feedback","1"
"html-button-response","268","663188","0.0-182.0","CKN_110","110","","","","","","null","<button class=""jspsych-btn""><img src=""stimuli/white_square.png"" style=""width: 200px;height: 200px;""></button>","null","purple","blue","[""purple"",""blue"",""high nameability""]","right-left","[""blue"",""purple""]","5","high nameability","50","right","iti",""
"pavlovia","269","663275","0.0-183.0","CKN_110","110","","","","","","","","","","","","","","","","","","",""
"pavlovia","270","663281","0.0-184.0","CKN_110","110","","","","","","","","","","","","","","","","","","",""
"html-audio-button-response","271","670538","0.0-185.0","CKN_110","110","","","","","","7336","stimuli/tada.m4a","0","","","","","","","","","","",""
"html-button-response","272","671457","0.0-186.0","CKN_110","110","","","","","","913","","0","","","","","","","","","","",""
"html-button-response","273","674366","0.0-187.0","CKN_110","110","","","","","","2899","","0","pink","darkgreenblue","[""pink"",""darkgreenblue"",""low nameability""]","right-left","[""darkgreenblue"",""pink""]","6","low nameability","51","right","trigger",""
"html-button-response","274","677954","0.0-188.0-0.0","CKN_110","110","","","","","","3576","<button class=""jspsych-btn""><img src=""stimuli/pink.png"" style=""width: 200px;height: 200px;""></button>","1","pink","darkgreenblue","[""pink"",""darkgreenblue"",""low nameability""]","right-left","[""darkgreenblue"",""pink""]","6","low nameability","51","right","response","1"
"html-audio-button-response","275","678161","0.0-188.0-1.0","CKN_110","110","","","","","","null","stimuli/bleep.m4a","null","pink","darkgreenblue","[""pink"",""darkgreenblue"",""low nameability""]","right-left","[""darkgreenblue"",""pink""]","6","low nameability","51","right","audio_feedback","1"
"html-button-response","276","678673","0.0-189.0","CKN_110","110","","","","","","null","<button class=""jspsych-btn""><img src=""stimuli/white_square.png"" style=""width: 200px;height: 200px;""></button>","null","pink","darkgreenblue","[""pink"",""darkgreenblue"",""low nameability""]","right-left","[""darkgreenblue"",""pink""]","6","low nameability","51","right","iti",""
"html-button-response","277","681452","0.0-190.0","CKN_110","110","","","","","","2773","","0","orange","brown","[""orange"",""brown"",""high nameability""]","right-left","[""brown"",""orange""]","6","high nameability","52","right","trigger",""
"html-button-response","278","683935","0.0-191.0-0.0","CKN_110","110","","","","","","2470","<button class=""jspsych-btn""><img src=""stimuli/orange.png"" style=""width: 200px;height: 200px;""></button>","1","orange","brown","[""orange"",""brown"",""high nameability""]","right-left","[""brown"",""orange""]","6","high nameability","52","right","response","1"
"html-audio-button-response","279","684140","0.0-191.0-1.0","CKN_110","110","","","","","","null","stimuli/bleep.m4a","null","orange","brown","[""orange"",""brown"",""high nameability""]","right-left","[""brown"",""orange""]","6","high nameability","52","right","audio_feedback","1"
"html-button-response","280","684657","0.0-192.0","CKN_110","110","","","","","","null","<button class=""jspsych-btn""><img src=""stimuli/white_square.png"" style=""width: 200px;height: 200px;""></button>","null","orange","brown","[""orange"",""brown"",""high nameability""]","right-left","[""brown"",""orange""]","6","high nameability","52","right","iti",""
"html-button-response","281","689035","0.0-193.0","CKN_110","110","","","","","","4370","","0","brown","red","[""brown"",""red"",""high nameability""]","right-left","[""red"",""brown""]","6","high nameability","53","right","trigger",""
"html-button-response","282","692902","0.0-194.0-0.0","CKN_110","110","","","","","","3861","<button class=""jspsych-btn""><img src=""stimuli/brown.png"" style=""width: 200px;height: 200px;""></button>","1","brown","red","[""brown"",""red"",""high nameability""]","right-left","[""red"",""brown""]","6","high nameability","53","right","response","1"
"html-audio-button-response","283","693103","0.0-194.0-1.0","CKN_110","110","","","","","","null","stimuli/bleep.m4a","null","brown","red","[""brown"",""red"",""high nameability""]","right-left","[""red"",""brown""]","6","high nameability","53","right","audio_feedback","1"
"html-button-response","284","693616","0.0-195.0","CKN_110","110","","","","","","null","<button class=""jspsych-btn""><img src=""stimuli/white_square.png"" style=""width: 200px;height: 200px;""></button>","null","brown","red","[""brown"",""red"",""high nameability""]","right-left","[""red"",""brown""]","6","high nameability","53","right","iti",""
"html-button-response","285","699679","0.0-196.0","CKN_110","110","","","","","","6047","","0","blue","orange","[""blue"",""orange"",""high nameability""]","right-left","[""orange"",""blue""]","6","high nameability","54","right","trigger",""
"html-button-response","286","701533","0.0-197.0-0.0","CKN_110","110","","","","","","1841","<button class=""jspsych-btn""><img src=""stimuli/blue.png"" style=""width: 200px;height: 200px;""></button>","1","blue","orange","[""blue"",""orange"",""high nameability""]","right-left","[""orange"",""blue""]","6","high nameability","54","right","response","1"
"html-audio-button-response","287","701734","0.0-197.0-1.0","CKN_110","110","","","","","","null","stimuli/bleep.m4a","null","blue","orange","[""blue"",""orange"",""high nameability""]","right-left","[""orange"",""blue""]","6","high nameability","54","right","audio_feedback","1"
"html-button-response","288","702243","0.0-198.0","CKN_110","110","","","","","","null","<button class=""jspsych-btn""><img src=""stimuli/white_square.png"" style=""width: 200px;height: 200px;""></button>","null","blue","orange","[""blue"",""orange"",""high nameability""]","right-left","[""orange"",""blue""]","6","high nameability","54","right","iti",""
"html-button-response","289","706416","0.0-199.0","CKN_110","110","","","","","","4157","","0","red","brown","[""red"",""brown"",""high nameability""]","left-right","[""red"",""brown"",""high nameability""]","6","high nameability","55","left","trigger",""
"html-button-response","290","708304","0.0-200.0-0.0","CKN_110","110","","","","","","1881","<button class=""jspsych-btn""><img src=""stimuli/red.png"" style=""width: 200px;height: 200px;""></button>","0","red","brown","[""red"",""brown"",""high nameability""]","left-right","[""red"",""brown"",""high nameability""]","6","high nameability","55","left","response","1"
"html-audio-button-response","291","708510","0.0-200.0-1.0","CKN_110","110","","","","","","null","stimuli/bleep.m4a","null","red","brown","[""red"",""brown"",""high nameability""]","left-right","[""red"",""brown"",""high nameability""]","6","high nameability","55","left","audio_feedback","1"
"html-button-response","292","709022","0.0-201.0","CKN_110","110","","","","","","null","<button class=""jspsych-btn""><img src=""stimuli/white_square.png"" style=""width: 200px;height: 200px;""></button>","null","red","brown","[""red"",""brown"",""high nameability""]","left-right","[""red"",""brown"",""high nameability""]","6","high nameability","55","left","iti",""
"html-button-response","293","710800","0.0-202.0","CKN_110","110","","","","","","1766","","0","orange","blue","[""orange"",""blue"",""high nameability""]","left-right","[""orange"",""blue"",""high nameability""]","6","high nameability","56","left","trigger",""
"html-button-response","294","712250","0.0-203.0-0.0","CKN_110","110","","","","","","1440","<button class=""jspsych-btn""><img src=""stimuli/orange.png"" style=""width: 200px;height: 200px;""></button>","0","orange","blue","[""orange"",""blue"",""high nameability""]","left-right","[""orange"",""blue"",""high nameability""]","6","high nameability","56","left","response","1"
"html-audio-button-response","295","712452","0.0-203.0-1.0","CKN_110","110","","","","","","null","stimuli/bleep.m4a","null","orange","blue","[""orange"",""blue"",""high nameability""]","left-right","[""orange"",""blue"",""high nameability""]","6","high nameability","56","left","audio_feedback","1"
"html-button-response","296","712968","0.0-204.0","CKN_110","110","","","","","","null","<button class=""jspsych-btn""><img src=""stimuli/white_square.png"" style=""width: 200px;height: 200px;""></button>","null","orange","blue","[""orange"",""blue"",""high nameability""]","left-right","[""orange"",""blue"",""high nameability""]","6","high nameability","56","left","iti",""
"html-button-response","297","716168","0.0-205.0","CKN_110","110","","","","","","3187","","0","turquoise","lightred","[""turquoise"",""lightred"",""low nameability""]","left-right","[""turquoise"",""lightred"",""low nameability""]","6","low nameability","57","left","trigger",""
"html-button-response","298","717400","0.0-206.0-0.0","CKN_110","110","","","","","","1222","<button class=""jspsych-btn""><img src=""stimuli/turquoise.png"" style=""width: 200px;height: 200px;""></button>","0","turquoise","lightred","[""turquoise"",""lightred"",""low nameability""]","left-right","[""turquoise"",""lightred"",""low nameability""]","6","low nameability","57","left","response","1"
"html-audio-button-response","299","717605","0.0-206.0-1.0","CKN_110","110","","","","","","null","stimuli/bleep.m4a","null","turquoise","lightred","[""turquoise"",""lightred"",""low nameability""]","left-right","[""turquoise"",""lightred"",""low nameability""]","6","low nameability","57","left","audio_feedback","1"
"html-button-response","300","718122","0.0-207.0","CKN_110","110","","","","","","null","<button class=""jspsych-btn""><img src=""stimuli/white_square.png"" style=""width: 200px;height: 200px;""></button>","null","turquoise","lightred","[""turquoise"",""lightred"",""low nameability""]","left-right","[""turquoise"",""lightred"",""low nameability""]","6","low nameability","57","left","iti",""
"html-button-response","301","720052","0.0-208.0","CKN_110","110","","","","","","1921","","0","mustard","turquoise","[""mustard"",""turquoise"",""low nameability""]","left-right","[""mustard"",""turquoise"",""low nameability""]","6","low nameability","58","left","trigger",""
"html-button-response","302","724643","0.0-209.0-0.0","CKN_110","110","","","","","","4584","<button class=""jspsych-btn""><img src=""stimuli/mustard.png"" style=""width: 200px;height: 200px;""></button>","0","mustard","turquoise","[""mustard"",""turquoise"",""low nameability""]","left-right","[""mustard"",""turquoise"",""low nameability""]","6","low nameability","58","left","response","1"
"html-audio-button-response","303","724848","0.0-209.0-1.0","CKN_110","110","","","","","","null","stimuli/bleep.m4a","null","mustard","turquoise","[""mustard"",""turquoise"",""low nameability""]","left-right","[""mustard"",""turquoise"",""low nameability""]","6","low nameability","58","left","audio_feedback","1"
"html-button-response","304","725360","0.0-210.0","CKN_110","110","","","","","","null","<button class=""jspsych-btn""><img src=""stimuli/white_square.png"" style=""width: 200px;height: 200px;""></button>","null","mustard","turquoise","[""mustard"",""turquoise"",""low nameability""]","left-right","[""mustard"",""turquoise"",""low nameability""]","6","low nameability","58","left","iti",""
"html-button-response","305","728260","0.0-211.0","CKN_110","110","","","","","","2886","","0","blue","yellow","[""blue"",""yellow"",""high nameability""]","right-left","[""yellow"",""blue""]","6","high nameability","59","right","trigger",""
"html-button-response","306","730323","0.0-212.0-0.0","CKN_110","110","","","","","","2056","<button class=""jspsych-btn""><img src=""stimuli/blue.png"" style=""width: 200px;height: 200px;""></button>","1","blue","yellow","[""blue"",""yellow"",""high nameability""]","right-left","[""yellow"",""blue""]","6","high nameability","59","right","response","1"
"html-audio-button-response","307","730524","0.0-212.0-1.0","CKN_110","110","","","","","","null","stimuli/bleep.m4a","null","blue","yellow","[""blue"",""yellow"",""high nameability""]","right-left","[""yellow"",""blue""]","6","high nameability","59","right","audio_feedback","1"
"html-button-response","308","731035","0.0-213.0","CKN_110","110","","","","","","null","<button class=""jspsych-btn""><img src=""stimuli/white_square.png"" style=""width: 200px;height: 200px;""></button>","null","blue","yellow","[""blue"",""yellow"",""high nameability""]","right-left","[""yellow"",""blue""]","6","high nameability","59","right","iti",""
"html-button-response","309","738633","0.0-214.0","CKN_110","110","","","","","","7582","","0","pink","mustard","[""pink"",""mustard"",""low nameability""]","right-left","[""mustard"",""pink""]","6","low nameability","60","right","trigger",""
"html-button-response","310","741623","0.0-215.0-0.0","CKN_110","110","","","","","","2980","<button class=""jspsych-btn""><img src=""stimuli/pink.png"" style=""width: 200px;height: 200px;""></button>","1","pink","mustard","[""pink"",""mustard"",""low nameability""]","right-left","[""mustard"",""pink""]","6","low nameability","60","right","response","1"
"html-audio-button-response","311","741835","0.0-215.0-1.0","CKN_110","110","","","","","","null","stimuli/bleep.m4a","null","pink","mustard","[""pink"",""mustard"",""low nameability""]","right-left","[""mustard"",""pink""]","6","low nameability","60","right","audio_feedback","1"
"html-button-response","312","742349","0.0-216.0","CKN_110","110","","","","","","null","<button class=""jspsych-btn""><img src=""stimuli/white_square.png"" style=""width: 200px;height: 200px;""></button>","null","pink","mustard","[""pink"",""mustard"",""low nameability""]","right-left","[""mustard"",""pink""]","6","low nameability","60","right","iti",""
