"trial_type","trial_index","time_elapsed","internal_node_id","subject_id","seed","success","timeout","failed_images","failed_audio","failed_video","rt","stimulus","response","target","foil","choices","combination_order","choices_in_order","round","condition","trial_counter","target_location","trial_kind","correct"
"pavlovia","0","22","0.0-0.0","CKN_120","120","","","","","","","","","","","","","","","","","","",""
"preload","1","1029","0.0-1.0","CKN_120","120","true","false","[]","[]","[]","","","","","","","","","","","","","",""
"fullscreen","2","5717","0.0-2.0","CKN_120","120","true","","","","","","","","","","","","","","","","","",""
"html-button-response","3","17458","0.0-3.0","CKN_120","120","","","","","","11722","","0","","","","","","","","","","",""
"html-button-response","4","20202","0.0-4.0","CKN_120","120","","","","","","2732","","0","star","square","[""square"",""star""]","left-right","[""square"",""star""]","1","practice","1","right","trigger",""
"html-button-response","5","28529","0.0-5.0-0.0","CKN_120","120","","","","","","8314","<button class=""jspsych-btn""><img src=""stimuli/star.png"" style=""width: 200px;height: 200px;""></button>","0","star","square","[""square"",""star""]","left-right","[""square"",""star""]","1","practice","1","right","response","0"
"html-audio-button-response","6","29182","0.0-5.0-1.0","CKN_120","120","","","","","","null","stimuli/boing.m4a","null","star","square","[""square"",""star""]","left-right","[""square"",""star""]","1","practice","1","right","audio_feedback","0"
"html-button-response","7","35148","0.0-5.1-0.1","CKN_120","120","","","","","","5922","<button class=""jspsych-btn""><img src=""stimuli/star.png"" style=""width: 200px;height: 200px;""></button>","1","star","square","[""square"",""star""]","left-right","[""square"",""star""]","1","practice","1","right","response","1"
"html-audio-button-response","8","35369","0.0-5.1-1.1","CKN_120","120","","","","","","null","stimuli/bleep.m4a","null","star","square","[""square"",""star""]","left-right","[""square"",""star""]","1","practice","1","right","audio_feedback","1"
"html-button-response","9","35909","0.0-6.0","CKN_120","120","","","","","","null","<button class=""jspsych-btn""><img src=""stimuli/white_square.png"" style=""width: 200px;height: 200px;""></button>","null","star","square","[""square"",""star""]","left-right","[""square"",""star""]","1","practice","1","right","iti",""
"html-button-response","10","38315","0.0-7.0","CKN_120","120","","","","","","2389","","0","triangle","pentagram","[""triangle"",""pentagram""]","left-right","[""triangle"",""pentagram""]","1","practice","1","left","trigger",""
"html-button-response","11","43144","0.0-8.0-0.0","CKN_120","120","","","","","","4815","<button class=""jspsych-btn""><img src=""stimuli/triangle.png"" style=""width: 200px;height: 200px;""></button>","0","triangle","pentagram","[""triangle"",""pentagram""]","left-right","[""triangle"",""pentagram""]","1","practice","1","left","response","1"
"html-audio-button-response","12","43351","0.0-8.0-1.0","CKN_120","120","","","","","","null","stimuli/bleep.m4a","null","triangle","pentagram","[""triangle"",""pentagram""]","left-right","[""triangle"",""pentagram""]","1","practice","1","left","audio_feedback","1"
"html-button-response","13","43862","0.0-9.0","CKN_120","120","","","","","","null","<button class=""jspsych-btn""><img src=""stimuli/white_square.png"" style=""width: 200px;height: 200px;""></button>","null","triangle","pentagram","[""triangle"",""pentagram""]","left-right","[""triangle"",""pentagram""]","1","practice","1","left","iti",""
"html-button-response","14","45258","0.0-10.0","CKN_120","120","","","","","","1389","","0","diamond","rectangle","[""rectangle"",""diamond""]","left-right","[""rectangle"",""diamond""]","1","practice","1","right","trigger",""
"html-button-response","15","47469","0.0-11.0-0.0","CKN_120","120","","","","","","2200","<button class=""jspsych-btn""><img src=""stimuli/diamond.png"" style=""width: 200px;height: 200px;""></button>","0","diamond","rectangle","[""rectangle"",""diamond""]","left-right","[""rectangle"",""diamond""]","1","practice","1","right","response","0"
"html-audio-button-response","16","48124","0.0-11.0-1.0","CKN_120","120","","","","","","null","stimuli/boing.m4a","null","diamond","rectangle","[""rectangle"",""diamond""]","left-right","[""rectangle"",""diamond""]","1","practice","1","right","audio_feedback","0"
"html-button-response","17","49259","0.0-11.1-0.1","CKN_120","120","","","","","","1104","<button class=""jspsych-btn""><img src=""stimuli/diamond.png"" style=""width: 200px;height: 200px;""></button>","1","diamond","rectangle","[""rectangle"",""diamond""]","left-right","[""rectangle"",""diamond""]","1","practice","1","right","response","1"
"html-audio-button-response","18","49472","0.0-11.1-1.1","CKN_120","120","","","","","","null","stimuli/bleep.m4a","null","diamond","rectangle","[""rectangle"",""diamond""]","left-right","[""rectangle"",""diamond""]","1","practice","1","right","audio_feedback","1"
"html-button-response","19","49998","0.0-12.0","CKN_120","120","","","","","","null","<button class=""jspsych-btn""><img src=""stimuli/white_square.png"" style=""width: 200px;height: 200px;""></button>","null","diamond","rectangle","[""rectangle"",""diamond""]","left-right","[""rectangle"",""diamond""]","1","practice","1","right","iti",""
"html-button-response","20","53025","0.0-13.0","CKN_120","120","","","","","","3019","","0","pentagram","star","[""pentagram"",""star""]","left-right","[""pentagram"",""star""]","1","practice","1","left","trigger",""
"html-button-response","21","56617","0.0-14.0-0.0","CKN_120","120","","","","","","3585","<button class=""jspsych-btn""><img src=""stimuli/pentagram.png"" style=""width: 200px;height: 200px;""></button>","0","pentagram","star","[""pentagram"",""star""]","left-right","[""pentagram"",""star""]","1","practice","1","left","response","1"
"html-audio-button-response","22","56839","0.0-14.0-1.0","CKN_120","120","","","","","","null","stimuli/bleep.m4a","null","pentagram","star","[""pentagram"",""star""]","left-right","[""pentagram"",""star""]","1","practice","1","left","audio_feedback","1"
"html-button-response","23","57354","0.0-15.0","CKN_120","120","","","","","","null","<button class=""jspsych-btn""><img src=""stimuli/white_square.png"" style=""width: 200px;height: 200px;""></button>","null","pentagram","star","[""pentagram"",""star""]","left-right","[""pentagram"",""star""]","1","practice","1","left","iti",""
"html-button-response","24","62451","0.0-16.0","CKN_120","120","","","","","","5086","","0","","","","","","","","","","",""
"html-button-response","25","65320","0.0-17.0","CKN_120","120","","","","","","2856","","0","brown","yellow","[""brown"",""yellow"",""high nameability""]","left-right","[""brown"",""yellow"",""high nameability""]","1","high nameability","1","left","trigger",""
"html-button-response","26","67822","0.0-18.0-0.0","CKN_120","120","","","","","","2483","<button class=""jspsych-btn""><img src=""stimuli/brown.png"" style=""width: 200px;height: 200px;""></button>","1","brown","yellow","[""brown"",""yellow"",""high nameability""]","left-right","[""brown"",""yellow"",""high nameability""]","1","high nameability","1","left","response","0"
"html-audio-button-response","27","68474","0.0-18.0-1.0","CKN_120","120","","","","","","null","stimuli/boing.m4a","null","brown","yellow","[""brown"",""yellow"",""high nameability""]","left-right","[""brown"",""yellow"",""high nameability""]","1","high nameability","1","left","audio_feedback","0"
"html-button-response","28","69808","0.0-18.1-0.1","CKN_120","120","","","","","","1291","<button class=""jspsych-btn""><img src=""stimuli/brown.png"" style=""width: 200px;height: 200px;""></button>","0","brown","yellow","[""brown"",""yellow"",""high nameability""]","left-right","[""brown"",""yellow"",""high nameability""]","1","high nameability","1","left","response","1"
"html-audio-button-response","29","70024","0.0-18.1-1.1","CKN_120","120","","","","","","null","stimuli/bleep.m4a","null","brown","yellow","[""brown"",""yellow"",""high nameability""]","left-right","[""brown"",""yellow"",""high nameability""]","1","high nameability","1","left","audio_feedback","1"
"html-button-response","30","70544","0.0-19.0","CKN_120","120","","","","","","null","<button class=""jspsych-btn""><img src=""stimuli/white_square.png"" style=""width: 200px;height: 200px;""></button>","null","brown","yellow","[""brown"",""yellow"",""high nameability""]","left-right","[""brown"",""yellow"",""high nameability""]","1","high nameability","1","left","iti",""
"html-button-response","31","71775","0.0-20.0","CKN_120","120","","","","","","1217","","0","red","brown","[""red"",""brown"",""high nameability""]","left-right","[""red"",""brown"",""high nameability""]","1","high nameability","2","left","trigger",""
"html-button-response","32","75442","0.0-21.0-0.0","CKN_120","120","","","","","","3652","<button class=""jspsych-btn""><img src=""stimuli/red.png"" style=""width: 200px;height: 200px;""></button>","0","red","brown","[""red"",""brown"",""high nameability""]","left-right","[""red"",""brown"",""high nameability""]","1","high nameability","2","left","response","1"
"html-audio-button-response","33","75680","0.0-21.0-1.0","CKN_120","120","","","","","","null","stimuli/bleep.m4a","null","red","brown","[""red"",""brown"",""high nameability""]","left-right","[""red"",""brown"",""high nameability""]","1","high nameability","2","left","audio_feedback","1"
"html-button-response","34","76202","0.0-22.0","CKN_120","120","","","","","","null","<button class=""jspsych-btn""><img src=""stimuli/white_square.png"" style=""width: 200px;height: 200px;""></button>","null","red","brown","[""red"",""brown"",""high nameability""]","left-right","[""red"",""brown"",""high nameability""]","1","high nameability","2","left","iti",""
"html-button-response","35","80005","0.0-23.0","CKN_120","120","","","","","","3784","","0","turquoise","mustard","[""turquoise"",""mustard"",""low nameability""]","left-right","[""turquoise"",""mustard"",""low nameability""]","1","low nameability","3","left","trigger",""
"html-button-response","36","83233","0.0-24.0-0.0","CKN_120","120","","","","","","3216","<button class=""jspsych-btn""><img src=""stimuli/turquoise.png"" style=""width: 200px;height: 200px;""></button>","0","turquoise","mustard","[""turquoise"",""mustard"",""low nameability""]","left-right","[""turquoise"",""mustard"",""low nameability""]","1","low nameability","3","left","response","1"
"html-audio-button-response","37","83440","0.0-24.0-1.0","CKN_120","120","","","","","","null","stimuli/bleep.m4a","null","turquoise","mustard","[""turquoise"",""mustard"",""low nameability""]","left-right","[""turquoise"",""mustard"",""low nameability""]","1","low nameability","3","left","audio_feedback","1"
"html-button-response","38","83968","0.0-25.0","CKN_120","120","","","","","","null","<button class=""jspsych-btn""><img src=""stimuli/white_square.png"" style=""width: 200px;height: 200px;""></button>","null","turquoise","mustard","[""turquoise"",""mustard"",""low nameability""]","left-right","[""turquoise"",""mustard"",""low nameability""]","1","low nameability","3","left","iti",""
"html-button-response","39","85844","0.0-26.0","CKN_120","120","","","","","","1859","","0","mustard","pink","[""mustard"",""pink"",""low nameability""]","left-right","[""mustard"",""pink"",""low nameability""]","1","low nameability","4","left","trigger",""
"html-button-response","40","87217","0.0-27.0-0.0","CKN_120","120","","","","","","1365","<button class=""jspsych-btn""><img src=""stimuli/mustard.png"" style=""width: 200px;height: 200px;""></button>","0","mustard","pink","[""mustard"",""pink"",""low nameability""]","left-right","[""mustard"",""pink"",""low nameability""]","1","low nameability","4","left","response","1"
"html-audio-button-response","41","87424","0.0-27.0-1.0","CKN_120","120","","","","","","null","stimuli/bleep.m4a","null","mustard","pink","[""mustard"",""pink"",""low nameability""]","left-right","[""mustard"",""pink"",""low nameability""]","1","low nameability","4","left","audio_feedback","1"
"html-button-response","42","87941","0.0-28.0","CKN_120","120","","","","","","null","<button class=""jspsych-btn""><img src=""stimuli/white_square.png"" style=""width: 200px;height: 200px;""></button>","null","mustard","pink","[""mustard"",""pink"",""low nameability""]","left-right","[""mustard"",""pink"",""low nameability""]","1","low nameability","4","left","iti",""
"html-button-response","43","90368","0.0-29.0","CKN_120","120","","","","","","2412","","0","red","purple","[""red"",""purple"",""high nameability""]","right-left","[""purple"",""red""]","1","high nameability","5","right","trigger",""
"html-button-response","44","91464","0.0-30.0-0.0","CKN_120","120","","","","","","1084","<button class=""jspsych-btn""><img src=""stimuli/red.png"" style=""width: 200px;height: 200px;""></button>","0","red","purple","[""red"",""purple"",""high nameability""]","right-left","[""purple"",""red""]","1","high nameability","5","right","response","0"
"html-audio-button-response","45","92091","0.0-30.0-1.0","CKN_120","120","","","","","","null","stimuli/boing.m4a","null","red","purple","[""red"",""purple"",""high nameability""]","right-left","[""purple"",""red""]","1","high nameability","5","right","audio_feedback","0"
"html-button-response","46","92887","0.0-30.1-0.1","CKN_120","120","","","","","","764","<button class=""jspsych-btn""><img src=""stimuli/red.png"" style=""width: 200px;height: 200px;""></button>","1","red","purple","[""red"",""purple"",""high nameability""]","right-left","[""purple"",""red""]","1","high nameability","5","right","response","1"
"html-audio-button-response","47","93095","0.0-30.1-1.1","CKN_120","120","","","","","","null","stimuli/bleep.m4a","null","red","purple","[""red"",""purple"",""high nameability""]","right-left","[""purple"",""red""]","1","high nameability","5","right","audio_feedback","1"
"html-button-response","48","93606","0.0-31.0","CKN_120","120","","","","","","null","<button class=""jspsych-btn""><img src=""stimuli/white_square.png"" style=""width: 200px;height: 200px;""></button>","null","red","purple","[""red"",""purple"",""high nameability""]","right-left","[""purple"",""red""]","1","high nameability","5","right","iti",""
"html-button-response","49","94937","0.0-32.0","CKN_120","120","","","","","","1316","","0","lightred","darkgreenblue","[""lightred"",""darkgreenblue"",""low nameability""]","right-left","[""darkgreenblue"",""lightred""]","1","low nameability","6","right","trigger",""
"html-button-response","50","96758","0.0-33.0-0.0","CKN_120","120","","","","","","1812","<button class=""jspsych-btn""><img src=""stimuli/lightred.png"" style=""width: 200px;height: 200px;""></button>","0","lightred","darkgreenblue","[""lightred"",""darkgreenblue"",""low nameability""]","right-left","[""darkgreenblue"",""lightred""]","1","low nameability","6","right","response","0"
"html-audio-button-response","51","97402","0.0-33.0-1.0","CKN_120","120","","","","","","null","stimuli/boing.m4a","null","lightred","darkgreenblue","[""lightred"",""darkgreenblue"",""low nameability""]","right-left","[""darkgreenblue"",""lightred""]","1","low nameability","6","right","audio_feedback","0"
"html-button-response","52","99262","0.0-33.1-0.1","CKN_120","120","","","","","","1830","<button class=""jspsych-btn""><img src=""stimuli/lightred.png"" style=""width: 200px;height: 200px;""></button>","1","lightred","darkgreenblue","[""lightred"",""darkgreenblue"",""low nameability""]","right-left","[""darkgreenblue"",""lightred""]","1","low nameability","6","right","response","1"
"html-audio-button-response","53","99472","0.0-33.1-1.1","CKN_120","120","","","","","","null","stimuli/bleep.m4a","null","lightred","darkgreenblue","[""lightred"",""darkgreenblue"",""low nameability""]","right-left","[""darkgreenblue"",""lightred""]","1","low nameability","6","right","audio_feedback","1"
"html-button-response","54","99991","0.0-34.0","CKN_120","120","","","","","","null","<button class=""jspsych-btn""><img src=""stimuli/white_square.png"" style=""width: 200px;height: 200px;""></button>","null","lightred","darkgreenblue","[""lightred"",""darkgreenblue"",""low nameability""]","right-left","[""darkgreenblue"",""lightred""]","1","low nameability","6","right","iti",""
"html-button-response","55","101110","0.0-35.0","CKN_120","120","","","","","","1099","","0","red","blue","[""red"",""blue"",""high nameability""]","right-left","[""blue"",""red""]","1","high nameability","7","right","trigger",""
"html-button-response","56","102724","0.0-36.0-0.0","CKN_120","120","","","","","","1597","<button class=""jspsych-btn""><img src=""stimuli/red.png"" style=""width: 200px;height: 200px;""></button>","0","red","blue","[""red"",""blue"",""high nameability""]","right-left","[""blue"",""red""]","1","high nameability","7","right","response","0"
"html-audio-button-response","57","103385","0.0-36.0-1.0","CKN_120","120","","","","","","null","stimuli/boing.m4a","null","red","blue","[""red"",""blue"",""high nameability""]","right-left","[""blue"",""red""]","1","high nameability","7","right","audio_feedback","0"
"html-button-response","58","103723","0.0-36.1-0.1","CKN_120","120","","","","","","297","<button class=""jspsych-btn""><img src=""stimuli/red.png"" style=""width: 200px;height: 200px;""></button>","1","red","blue","[""red"",""blue"",""high nameability""]","right-left","[""blue"",""red""]","1","high nameability","7","right","response","1"
"html-audio-button-response","59","103927","0.0-36.1-1.1","CKN_120","120","","","","","","null","stimuli/bleep.m4a","null","red","blue","[""red"",""blue"",""high nameability""]","right-left","[""blue"",""red""]","1","high nameability","7","right","audio_feedback","1"
"html-button-response","60","104462","0.0-37.0","CKN_120","120","","","","","","null","<button class=""jspsych-btn""><img src=""stimuli/white_square.png"" style=""width: 200px;height: 200px;""></button>","null","red","blue","[""red"",""blue"",""high nameability""]","right-left","[""blue"",""red""]","1","high nameability","7","right","iti",""
"html-button-response","61","105398","0.0-38.0","CKN_120","120","","","","","","910","","0","neonyellow","mustard","[""neonyellow"",""mustard"",""low nameability""]","left-right","[""neonyellow"",""mustard"",""low nameability""]","1","low nameability","8","left","trigger",""
"html-button-response","62","106611","0.0-39.0-0.0","CKN_120","120","","","","","","1204","<button class=""jspsych-btn""><img src=""stimuli/neonyellow.png"" style=""width: 200px;height: 200px;""></button>","0","neonyellow","mustard","[""neonyellow"",""mustard"",""low nameability""]","left-right","[""neonyellow"",""mustard"",""low nameability""]","1","low nameability","8","left","response","1"
"html-audio-button-response","63","106816","0.0-39.0-1.0","CKN_120","120","","","","","","null","stimuli/bleep.m4a","null","neonyellow","mustard","[""neonyellow"",""mustard"",""low nameability""]","left-right","[""neonyellow"",""mustard"",""low nameability""]","1","low nameability","8","left","audio_feedback","1"
"html-button-response","64","107333","0.0-40.0","CKN_120","120","","","","","","null","<button class=""jspsych-btn""><img src=""stimuli/white_square.png"" style=""width: 200px;height: 200px;""></button>","null","neonyellow","mustard","[""neonyellow"",""mustard"",""low nameability""]","left-right","[""neonyellow"",""mustard"",""low nameability""]","1","low nameability","8","left","iti",""
"html-button-response","65","108520","0.0-41.0","CKN_120","120","","","","","","1174","","0","red","yellow","[""red"",""yellow"",""high nameability""]","right-left","[""yellow"",""red""]","1","high nameability","9","right","trigger",""
"html-button-response","66","109656","0.0-42.0-0.0","CKN_120","120","","","","","","1122","<button class=""jspsych-btn""><img src=""stimuli/red.png"" style=""width: 200px;height: 200px;""></button>","0","red","yellow","[""red"",""yellow"",""high nameability""]","right-left","[""yellow"",""red""]","1","high nameability","9","right","response","0"
"html-audio-button-response","67","110301","0.0-42.0-1.0","CKN_120","120","","","","","","null","stimuli/boing.m4a","null","red","yellow","[""red"",""yellow"",""high nameability""]","right-left","[""yellow"",""red""]","1","high nameability","9","right","audio_feedback","0"
"html-button-response","68","110550","0.0-42.1-0.1","CKN_120","120","","","","","","229","<button class=""jspsych-btn""><img src=""stimuli/red.png"" style=""width: 200px;height: 200px;""></button>","1","red","yellow","[""red"",""yellow"",""high nameability""]","right-left","[""yellow"",""red""]","1","high nameability","9","right","response","1"
"html-audio-button-response","69","110752","0.0-42.1-1.1","CKN_120","120","","","","","","null","stimuli/bleep.m4a","null","red","yellow","[""red"",""yellow"",""high nameability""]","right-left","[""yellow"",""red""]","1","high nameability","9","right","audio_feedback","1"
"html-button-response","70","111270","0.0-43.0","CKN_120","120","","","","","","null","<button class=""jspsych-btn""><img src=""stimuli/white_square.png"" style=""width: 200px;height: 200px;""></button>","null","red","yellow","[""red"",""yellow"",""high nameability""]","right-left","[""yellow"",""red""]","1","high nameability","9","right","iti",""
"html-button-response","71","112197","0.0-44.0","CKN_120","120","","","","","","911","","0","brown","purple","[""brown"",""purple"",""high nameability""]","right-left","[""purple"",""brown""]","1","high nameability","10","right","trigger",""
"html-button-response","72","114038","0.0-45.0-0.0","CKN_120","120","","","","","","1833","<button class=""jspsych-btn""><img src=""stimuli/brown.png"" style=""width: 200px;height: 200px;""></button>","0","brown","purple","[""brown"",""purple"",""high nameability""]","right-left","[""purple"",""brown""]","1","high nameability","10","right","response","0"
"html-audio-button-response","73","114675","0.0-45.0-1.0","CKN_120","120","","","","","","null","stimuli/boing.m4a","null","brown","purple","[""brown"",""purple"",""high nameability""]","right-left","[""purple"",""brown""]","1","high nameability","10","right","audio_feedback","0"
"html-button-response","74","115042","0.0-45.1-0.1","CKN_120","120","","","","","","339","<button class=""jspsych-btn""><img src=""stimuli/brown.png"" style=""width: 200px;height: 200px;""></button>","1","brown","purple","[""brown"",""purple"",""high nameability""]","right-left","[""purple"",""brown""]","1","high nameability","10","right","response","1"
"html-audio-button-response","75","115260","0.0-45.1-1.1","CKN_120","120","","","","","","null","stimuli/bleep.m4a","null","brown","purple","[""brown"",""purple"",""high nameability""]","right-left","[""purple"",""brown""]","1","high nameability","10","right","audio_feedback","1"
"html-button-response","76","115784","0.0-46.0","CKN_120","120","","","","","","null","<button class=""jspsych-btn""><img src=""stimuli/white_square.png"" style=""width: 200px;height: 200px;""></button>","null","brown","purple","[""brown"",""purple"",""high nameability""]","right-left","[""purple"",""brown""]","1","high nameability","10","right","iti",""
"pavlovia","77","115858","0.0-47.0","CKN_120","120","","","","","","","","","","","","","","","","","","",""
"pavlovia","78","115873","0.0-48.0","CKN_120","120","","","","","","","","","","","","","","","","","","",""
"html-audio-button-response","79","120222","0.0-49.0","CKN_120","120","","","","","","4440","stimuli/tada.m4a","0","","","","","","","","","","",""
"html-button-response","80","121009","0.0-50.0","CKN_120","120","","","","","","783","","0","","","","","","","","","","",""
"html-button-response","81","123207","0.0-51.0","CKN_120","120","","","","","","2190","","0","pink","turquoise","[""pink"",""turquoise"",""low nameability""]","left-right","[""pink"",""turquoise"",""low nameability""]","2","low nameability","11","left","trigger",""
"html-button-response","82","124670","0.0-52.0-0.0","CKN_120","120","","","","","","1449","<button class=""jspsych-btn""><img src=""stimuli/pink.png"" style=""width: 200px;height: 200px;""></button>","1","pink","turquoise","[""pink"",""turquoise"",""low nameability""]","left-right","[""pink"",""turquoise"",""low nameability""]","2","low nameability","11","left","response","0"
"html-audio-button-response","83","125320","0.0-52.0-1.0","CKN_120","120","","","","","","null","stimuli/boing.m4a","null","pink","turquoise","[""pink"",""turquoise"",""low nameability""]","left-right","[""pink"",""turquoise"",""low nameability""]","2","low nameability","11","left","audio_feedback","0"
"html-button-response","84","125757","0.0-52.1-0.1","CKN_120","120","","","","","","417","<button class=""jspsych-btn""><img src=""stimuli/pink.png"" style=""width: 200px;height: 200px;""></button>","0","pink","turquoise","[""pink"",""turquoise"",""low nameability""]","left-right","[""pink"",""turquoise"",""low nameability""]","2","low nameability","11","left","response","1"
"html-audio-button-response","85","125959","0.0-52.1-1.1","CKN_120","120","","","","","","null","stimuli/bleep.m4a","null","pink","turquoise","[""pink"",""turquoise"",""low nameability""]","left-right","[""pink"",""turquoise"",""low nameability""]","2","low nameability","11","left","audio_feedback","1"
"html-button-response","86","126480","0.0-53.0","CKN_120","120","","","","","","null","<button class=""jspsych-btn""><img src=""stimuli/white_square.png"" style=""width: 200px;height: 200px;""></button>","null","pink","turquoise","[""pink"",""turquoise"",""low nameability""]","left-right","[""pink"",""turquoise"",""low nameability""]","2","low nameability","11","left","iti",""
"html-button-response","87","127883","0.0-54.0","CKN_120","120","","","","","","1380","","0","yellow","red","[""yellow"",""red"",""high nameability""]","right-left","[""red"",""yellow""]","2","high nameability","12","right","trigger",""
"html-button-response","88","129060","0.0-55.0-0.0","CKN_120","120","","","","","","1162","<button class=""jspsych-btn""><img src=""stimuli/yellow.png"" style=""width: 200px;height: 200px;""></button>","0","yellow","red","[""yellow"",""red"",""high nameability""]","right-left","[""red"",""yellow""]","2","high nameability","12","right","response","0"
"html-audio-button-response","89","129717","0.0-55.0-1.0","CKN_120","120","","","","","","null","stimuli/boing.m4a","null","yellow","red","[""yellow"",""red"",""high nameability""]","right-left","[""red"",""yellow""]","2","high nameability","12","right","audio_feedback","0"
"html-button-response","90","129912","0.0-55.1-0.1","CKN_120","120","","","","","","166","<button class=""jspsych-btn""><img src=""stimuli/yellow.png"" style=""width: 200px;height: 200px;""></button>","1","yellow","red","[""yellow"",""red"",""high nameability""]","right-left","[""red"",""yellow""]","2","high nameability","12","right","response","1"
"html-audio-button-response","91","130131","0.0-55.1-1.1","CKN_120","120","","","","","","null","stimuli/bleep.m4a","null","yellow","red","[""yellow"",""red"",""high nameability""]","right-left","[""red"",""yellow""]","2","high nameability","12","right","audio_feedback","1"
"html-button-response","92","130652","0.0-56.0","CKN_120","120","","","","","","null","<button class=""jspsych-btn""><img src=""stimuli/white_square.png"" style=""width: 200px;height: 200px;""></button>","null","yellow","red","[""yellow"",""red"",""high nameability""]","right-left","[""red"",""yellow""]","2","high nameability","12","right","iti",""
"html-button-response","93","131939","0.0-57.0","CKN_120","120","","","","","","1274","","0","turquoise","pink","[""turquoise"",""pink"",""low nameability""]","left-right","[""turquoise"",""pink"",""low nameability""]","2","low nameability","13","left","trigger",""
"html-button-response","94","134757","0.0-58.0-0.0","CKN_120","120","","","","","","2812","<button class=""jspsych-btn""><img src=""stimuli/turquoise.png"" style=""width: 200px;height: 200px;""></button>","0","turquoise","pink","[""turquoise"",""pink"",""low nameability""]","left-right","[""turquoise"",""pink"",""low nameability""]","2","low nameability","13","left","response","1"
"html-audio-button-response","95","134973","0.0-58.0-1.0","CKN_120","120","","","","","","null","stimuli/bleep.m4a","null","turquoise","pink","[""turquoise"",""pink"",""low nameability""]","left-right","[""turquoise"",""pink"",""low nameability""]","2","low nameability","13","left","audio_feedback","1"
"html-button-response","96","135496","0.0-59.0","CKN_120","120","","","","","","null","<button class=""jspsych-btn""><img src=""stimuli/white_square.png"" style=""width: 200px;height: 200px;""></button>","null","turquoise","pink","[""turquoise"",""pink"",""low nameability""]","left-right","[""turquoise"",""pink"",""low nameability""]","2","low nameability","13","left","iti",""
"html-button-response","97","138008","0.0-60.0","CKN_120","120","","","","","","2494","","0","darkgreenblue","mustard","[""darkgreenblue"",""mustard"",""low nameability""]","right-left","[""mustard"",""darkgreenblue""]","2","low nameability","14","right","trigger",""
"html-button-response","98","140108","0.0-61.0-0.0","CKN_120","120","","","","","","2093","<button class=""jspsych-btn""><img src=""stimuli/darkgreenblue.png"" style=""width: 200px;height: 200px;""></button>","1","darkgreenblue","mustard","[""darkgreenblue"",""mustard"",""low nameability""]","right-left","[""mustard"",""darkgreenblue""]","2","low nameability","14","right","response","1"
"html-audio-button-response","99","140319","0.0-61.0-1.0","CKN_120","120","","","","","","null","stimuli/bleep.m4a","null","darkgreenblue","mustard","[""darkgreenblue"",""mustard"",""low nameability""]","right-left","[""mustard"",""darkgreenblue""]","2","low nameability","14","right","audio_feedback","1"
"html-button-response","100","140828","0.0-62.0","CKN_120","120","","","","","","null","<button class=""jspsych-btn""><img src=""stimuli/white_square.png"" style=""width: 200px;height: 200px;""></button>","null","darkgreenblue","mustard","[""darkgreenblue"",""mustard"",""low nameability""]","right-left","[""mustard"",""darkgreenblue""]","2","low nameability","14","right","iti",""
"html-button-response","101","141674","0.0-63.0","CKN_120","120","","","","","","831","","0","darkgreenblue","lightred","[""darkgreenblue"",""lightred"",""low nameability""]","left-right","[""darkgreenblue"",""lightred"",""low nameability""]","2","low nameability","15","left","trigger",""
"html-button-response","102","142856","0.0-64.0-0.0","CKN_120","120","","","","","","1175","<button class=""jspsych-btn""><img src=""stimuli/darkgreenblue.png"" style=""width: 200px;height: 200px;""></button>","0","darkgreenblue","lightred","[""darkgreenblue"",""lightred"",""low nameability""]","left-right","[""darkgreenblue"",""lightred"",""low nameability""]","2","low nameability","15","left","response","1"
"html-audio-button-response","103","143056","0.0-64.0-1.0","CKN_120","120","","","","","","null","stimuli/bleep.m4a","null","darkgreenblue","lightred","[""darkgreenblue"",""lightred"",""low nameability""]","left-right","[""darkgreenblue"",""lightred"",""low nameability""]","2","low nameability","15","left","audio_feedback","1"
"html-button-response","104","143577","0.0-65.0","CKN_120","120","","","","","","null","<button class=""jspsych-btn""><img src=""stimuli/white_square.png"" style=""width: 200px;height: 200px;""></button>","null","darkgreenblue","lightred","[""darkgreenblue"",""lightred"",""low nameability""]","left-right","[""darkgreenblue"",""lightred"",""low nameability""]","2","low nameability","15","left","iti",""
"html-button-response","105","144355","0.0-66.0","CKN_120","120","","","","","","759","","0","lightred","mustard","[""lightred"",""mustard"",""low nameability""]","left-right","[""lightred"",""mustard"",""low nameability""]","2","low nameability","16","left","trigger",""
"html-button-response","106","145470","0.0-67.0-0.0","CKN_120","120","","","","","","1108","<button class=""jspsych-btn""><img src=""stimuli/lightred.png"" style=""width: 200px;height: 200px;""></button>","1","lightred","mustard","[""lightred"",""mustard"",""low nameability""]","left-right","[""lightred"",""mustard"",""low nameability""]","2","low nameability","16","left","response","0"
"html-audio-button-response","107","146118","0.0-67.0-1.0","CKN_120","120","","","","","","null","stimuli/boing.m4a","null","lightred","mustard","[""lightred"",""mustard"",""low nameability""]","left-right","[""lightred"",""mustard"",""low nameability""]","2","low nameability","16","left","audio_feedback","0"
"html-button-response","108","147086","0.0-67.1-0.1","CKN_120","120","","","","","","953","<button class=""jspsych-btn""><img src=""stimuli/lightred.png"" style=""width: 200px;height: 200px;""></button>","0","lightred","mustard","[""lightred"",""mustard"",""low nameability""]","left-right","[""lightred"",""mustard"",""low nameability""]","2","low nameability","16","left","response","1"
"html-audio-button-response","109","147297","0.0-67.1-1.1","CKN_120","120","","","","","","null","stimuli/bleep.m4a","null","lightred","mustard","[""lightred"",""mustard"",""low nameability""]","left-right","[""lightred"",""mustard"",""low nameability""]","2","low nameability","16","left","audio_feedback","1"
"html-button-response","110","147819","0.0-68.0","CKN_120","120","","","","","","null","<button class=""jspsych-btn""><img src=""stimuli/white_square.png"" style=""width: 200px;height: 200px;""></button>","null","lightred","mustard","[""lightred"",""mustard"",""low nameability""]","left-right","[""lightred"",""mustard"",""low nameability""]","2","low nameability","16","left","iti",""
"html-button-response","111","148758","0.0-69.0","CKN_120","120","","","","","","927","","0","purple","blue","[""purple"",""blue"",""high nameability""]","left-right","[""purple"",""blue"",""high nameability""]","2","high nameability","17","left","trigger",""
"html-button-response","112","150600","0.0-70.0-0.0","CKN_120","120","","","","","","1834","<button class=""jspsych-btn""><img src=""stimuli/purple.png"" style=""width: 200px;height: 200px;""></button>","1","purple","blue","[""purple"",""blue"",""high nameability""]","left-right","[""purple"",""blue"",""high nameability""]","2","high nameability","17","left","response","0"
"html-audio-button-response","113","151237","0.0-70.0-1.0","CKN_120","120","","","","","","null","stimuli/boing.m4a","null","purple","blue","[""purple"",""blue"",""high nameability""]","left-right","[""purple"",""blue"",""high nameability""]","2","high nameability","17","left","audio_feedback","0"
"html-button-response","114","151536","0.0-70.1-0.1","CKN_120","120","","","","","","285","<button class=""jspsych-btn""><img src=""stimuli/purple.png"" style=""width: 200px;height: 200px;""></button>","0","purple","blue","[""purple"",""blue"",""high nameability""]","left-right","[""purple"",""blue"",""high nameability""]","2","high nameability","17","left","response","1"
"html-audio-button-response","115","151744","0.0-70.1-1.1","CKN_120","120","","","","","","null","stimuli/bleep.m4a","null","purple","blue","[""purple"",""blue"",""high nameability""]","left-right","[""purple"",""blue"",""high nameability""]","2","high nameability","17","left","audio_feedback","1"
"html-button-response","116","152275","0.0-71.0","CKN_120","120","","","","","","null","<button class=""jspsych-btn""><img src=""stimuli/white_square.png"" style=""width: 200px;height: 200px;""></button>","null","purple","blue","[""purple"",""blue"",""high nameability""]","left-right","[""purple"",""blue"",""high nameability""]","2","high nameability","17","left","iti",""
"html-button-response","117","153264","0.0-72.0","CKN_120","120","","","","","","960","","0","darkgreenblue","pink","[""darkgreenblue"",""pink"",""low nameability""]","right-left","[""pink"",""darkgreenblue""]","2","low nameability","18","right","trigger",""
"html-button-response","118","154646","0.0-73.0-0.0","CKN_120","120","","","","","","1374","<button class=""jspsych-btn""><img src=""stimuli/darkgreenblue.png"" style=""width: 200px;height: 200px;""></button>","1","darkgreenblue","pink","[""darkgreenblue"",""pink"",""low nameability""]","right-left","[""pink"",""darkgreenblue""]","2","low nameability","18","right","response","1"
"html-audio-button-response","119","154854","0.0-73.0-1.0","CKN_120","120","","","","","","null","stimuli/bleep.m4a","null","darkgreenblue","pink","[""darkgreenblue"",""pink"",""low nameability""]","right-left","[""pink"",""darkgreenblue""]","2","low nameability","18","right","audio_feedback","1"
"html-button-response","120","155388","0.0-74.0","CKN_120","120","","","","","","null","<button class=""jspsych-btn""><img src=""stimuli/white_square.png"" style=""width: 200px;height: 200px;""></button>","null","darkgreenblue","pink","[""darkgreenblue"",""pink"",""low nameability""]","right-left","[""pink"",""darkgreenblue""]","2","low nameability","18","right","iti",""
"html-button-response","121","156235","0.0-75.0","CKN_120","120","","","","","","834","","0","yellow","orange","[""yellow"",""orange"",""high nameability""]","left-right","[""yellow"",""orange"",""high nameability""]","2","high nameability","19","left","trigger",""
"html-button-response","122","157342","0.0-76.0-0.0","CKN_120","120","","","","","","1099","<button class=""jspsych-btn""><img src=""stimuli/yellow.png"" style=""width: 200px;height: 200px;""></button>","0","yellow","orange","[""yellow"",""orange"",""high nameability""]","left-right","[""yellow"",""orange"",""high nameability""]","2","high nameability","19","left","response","1"
"html-audio-button-response","123","157552","0.0-76.0-1.0","CKN_120","120","","","","","","null","stimuli/bleep.m4a","null","yellow","orange","[""yellow"",""orange"",""high nameability""]","left-right","[""yellow"",""orange"",""high nameability""]","2","high nameability","19","left","audio_feedback","1"
"html-button-response","124","158063","0.0-77.0","CKN_120","120","","","","","","null","<button class=""jspsych-btn""><img src=""stimuli/white_square.png"" style=""width: 200px;height: 200px;""></button>","null","yellow","orange","[""yellow"",""orange"",""high nameability""]","left-right","[""yellow"",""orange"",""high nameability""]","2","high nameability","19","left","iti",""
"html-button-response","125","159201","0.0-78.0","CKN_120","120","","","","","","1119","","0","purple","red","[""purple"",""red"",""high nameability""]","right-left","[""red"",""purple""]","2","high nameability","20","right","trigger",""
"html-button-response","126","160894","0.0-79.0-0.0","CKN_120","120","","","","","","1684","<button class=""jspsych-btn""><img src=""stimuli/purple.png"" style=""width: 200px;height: 200px;""></button>","1","purple","red","[""purple"",""red"",""high nameability""]","right-left","[""red"",""purple""]","2","high nameability","20","right","response","1"
"html-audio-button-response","127","161102","0.0-79.0-1.0","CKN_120","120","","","","","","null","stimuli/bleep.m4a","null","purple","red","[""purple"",""red"",""high nameability""]","right-left","[""red"",""purple""]","2","high nameability","20","right","audio_feedback","1"
"html-button-response","128","161629","0.0-80.0","CKN_120","120","","","","","","null","<button class=""jspsych-btn""><img src=""stimuli/white_square.png"" style=""width: 200px;height: 200px;""></button>","null","purple","red","[""purple"",""red"",""high nameability""]","right-left","[""red"",""purple""]","2","high nameability","20","right","iti",""
"pavlovia","129","161698","0.0-81.0","CKN_120","120","","","","","","","","","","","","","","","","","","",""
"pavlovia","130","161706","0.0-82.0","CKN_120","120","","","","","","","","","","","","","","","","","","",""
"html-audio-button-response","131","164651","0.0-83.0","CKN_120","120","","","","","","3016","stimuli/tada.m4a","0","","","","","","","","","","",""
"html-button-response","132","165176","0.0-84.0","CKN_120","120","","","","","","520","","0","","","","","","","","","","",""
"html-button-response","133","167831","0.0-85.0","CKN_120","120","","","","","","2641","","0","blue","yellow","[""blue"",""yellow"",""high nameability""]","left-right","[""blue"",""yellow"",""high nameability""]","3","high nameability","21","left","trigger",""
"html-button-response","134","169141","0.0-86.0-0.0","CKN_120","120","","","","","","1297","<button class=""jspsych-btn""><img src=""stimuli/blue.png"" style=""width: 200px;height: 200px;""></button>","0","blue","yellow","[""blue"",""yellow"",""high nameability""]","left-right","[""blue"",""yellow"",""high nameability""]","3","high nameability","21","left","response","1"
"html-audio-button-response","135","169360","0.0-86.0-1.0","CKN_120","120","","","","","","null","stimuli/bleep.m4a","null","blue","yellow","[""blue"",""yellow"",""high nameability""]","left-right","[""blue"",""yellow"",""high nameability""]","3","high nameability","21","left","audio_feedback","1"
"html-button-response","136","169889","0.0-87.0","CKN_120","120","","","","","","null","<button class=""jspsych-btn""><img src=""stimuli/white_square.png"" style=""width: 200px;height: 200px;""></button>","null","blue","yellow","[""blue"",""yellow"",""high nameability""]","left-right","[""blue"",""yellow"",""high nameability""]","3","high nameability","21","left","iti",""
"html-button-response","137","171199","0.0-88.0","CKN_120","120","","","","","","1304","","0","orange","blue","[""orange"",""blue"",""high nameability""]","left-right","[""orange"",""blue"",""high nameability""]","3","high nameability","22","left","trigger",""
"html-button-response","138","172082","0.0-89.0-0.0","CKN_120","120","","","","","","873","<button class=""jspsych-btn""><img src=""stimuli/orange.png"" style=""width: 200px;height: 200px;""></button>","1","orange","blue","[""orange"",""blue"",""high nameability""]","left-right","[""orange"",""blue"",""high nameability""]","3","high nameability","22","left","response","0"
"html-audio-button-response","139","172724","0.0-89.0-1.0","CKN_120","120","","","","","","null","stimuli/boing.m4a","null","orange","blue","[""orange"",""blue"",""high nameability""]","left-right","[""orange"",""blue"",""high nameability""]","3","high nameability","22","left","audio_feedback","0"
"html-button-response","140","173364","0.0-89.1-0.1","CKN_120","120","","","","","","618","<button class=""jspsych-btn""><img src=""stimuli/orange.png"" style=""width: 200px;height: 200px;""></button>","0","orange","blue","[""orange"",""blue"",""high nameability""]","left-right","[""orange"",""blue"",""high nameability""]","3","high nameability","22","left","response","1"
"html-audio-button-response","141","173577","0.0-89.1-1.1","CKN_120","120","","","","","","null","stimuli/bleep.m4a","null","orange","blue","[""orange"",""blue"",""high nameability""]","left-right","[""orange"",""blue"",""high nameability""]","3","high nameability","22","left","audio_feedback","1"
"html-button-response","142","174101","0.0-90.0","CKN_120","120","","","","","","null","<button class=""jspsych-btn""><img src=""stimuli/white_square.png"" style=""width: 200px;height: 200px;""></button>","null","orange","blue","[""orange"",""blue"",""high nameability""]","left-right","[""orange"",""blue"",""high nameability""]","3","high nameability","22","left","iti",""
"html-button-response","143","174880","0.0-91.0","CKN_120","120","","","","","","756","","0","neonyellow","lightred","[""neonyellow"",""lightred"",""low nameability""]","left-right","[""neonyellow"",""lightred"",""low nameability""]","3","low nameability","23","left","trigger",""
"html-button-response","144","176670","0.0-92.0-0.0","CKN_120","120","","","","","","1773","<button class=""jspsych-btn""><img src=""stimuli/neonyellow.png"" style=""width: 200px;height: 200px;""></button>","0","neonyellow","lightred","[""neonyellow"",""lightred"",""low nameability""]","left-right","[""neonyellow"",""lightred"",""low nameability""]","3","low nameability","23","left","response","1"
"html-audio-button-response","145","176880","0.0-92.0-1.0","CKN_120","120","","","","","","null","stimuli/bleep.m4a","null","neonyellow","lightred","[""neonyellow"",""lightred"",""low nameability""]","left-right","[""neonyellow"",""lightred"",""low nameability""]","3","low nameability","23","left","audio_feedback","1"
"html-button-response","146","177394","0.0-93.0","CKN_120","120","","","","","","null","<button class=""jspsych-btn""><img src=""stimuli/white_square.png"" style=""width: 200px;height: 200px;""></button>","null","neonyellow","lightred","[""neonyellow"",""lightred"",""low nameability""]","left-right","[""neonyellow"",""lightred"",""low nameability""]","3","low nameability","23","left","iti",""
"html-button-response","147","178353","0.0-94.0","CKN_120","120","","","","","","949","","0","orange","red","[""orange"",""red"",""high nameability""]","left-right","[""orange"",""red"",""high nameability""]","3","high nameability","24","left","trigger",""
"html-button-response","148","179484","0.0-95.0-0.0","CKN_120","120","","","","","","1120","<button class=""jspsych-btn""><img src=""stimuli/orange.png"" style=""width: 200px;height: 200px;""></button>","0","orange","red","[""orange"",""red"",""high nameability""]","left-right","[""orange"",""red"",""high nameability""]","3","high nameability","24","left","response","1"
"html-audio-button-response","149","179694","0.0-95.0-1.0","CKN_120","120","","","","","","null","stimuli/bleep.m4a","null","orange","red","[""orange"",""red"",""high nameability""]","left-right","[""orange"",""red"",""high nameability""]","3","high nameability","24","left","audio_feedback","1"
"html-button-response","150","180203","0.0-96.0","CKN_120","120","","","","","","null","<button class=""jspsych-btn""><img src=""stimuli/white_square.png"" style=""width: 200px;height: 200px;""></button>","null","orange","red","[""orange"",""red"",""high nameability""]","left-right","[""orange"",""red"",""high nameability""]","3","high nameability","24","left","iti",""
"html-button-response","151","180983","0.0-97.0","CKN_120","120","","","","","","752","","0","blue","brown","[""blue"",""brown"",""high nameability""]","right-left","[""brown"",""blue""]","3","high nameability","25","right","trigger",""
"html-button-response","152","181895","0.0-98.0-0.0","CKN_120","120","","","","","","902","<button class=""jspsych-btn""><img src=""stimuli/blue.png"" style=""width: 200px;height: 200px;""></button>","0","blue","brown","[""blue"",""brown"",""high nameability""]","right-left","[""brown"",""blue""]","3","high nameability","25","right","response","0"
"html-audio-button-response","153","182534","0.0-98.0-1.0","CKN_120","120","","","","","","null","stimuli/boing.m4a","null","blue","brown","[""blue"",""brown"",""high nameability""]","right-left","[""brown"",""blue""]","3","high nameability","25","right","audio_feedback","0"
"html-button-response","154","183163","0.0-98.1-0.1","CKN_120","120","","","","","","601","<button class=""jspsych-btn""><img src=""stimuli/blue.png"" style=""width: 200px;height: 200px;""></button>","1","blue","brown","[""blue"",""brown"",""high nameability""]","right-left","[""brown"",""blue""]","3","high nameability","25","right","response","1"
"html-audio-button-response","155","183369","0.0-98.1-1.1","CKN_120","120","","","","","","null","stimuli/bleep.m4a","null","blue","brown","[""blue"",""brown"",""high nameability""]","right-left","[""brown"",""blue""]","3","high nameability","25","right","audio_feedback","1"
"html-button-response","156","183895","0.0-99.0","CKN_120","120","","","","","","null","<button class=""jspsych-btn""><img src=""stimuli/white_square.png"" style=""width: 200px;height: 200px;""></button>","null","blue","brown","[""blue"",""brown"",""high nameability""]","right-left","[""brown"",""blue""]","3","high nameability","25","right","iti",""
"html-button-response","157","184948","0.0-100.0","CKN_120","120","","","","","","1041","","0","purple","yellow","[""purple"",""yellow"",""high nameability""]","right-left","[""yellow"",""purple""]","3","high nameability","26","right","trigger",""
"html-button-response","158","186066","0.0-101.0-0.0","CKN_120","120","","","","","","1111","<button class=""jspsych-btn""><img src=""stimuli/purple.png"" style=""width: 200px;height: 200px;""></button>","1","purple","yellow","[""purple"",""yellow"",""high nameability""]","right-left","[""yellow"",""purple""]","3","high nameability","26","right","response","1"
"html-audio-button-response","159","186280","0.0-101.0-1.0","CKN_120","120","","","","","","null","stimuli/bleep.m4a","null","purple","yellow","[""purple"",""yellow"",""high nameability""]","right-left","[""yellow"",""purple""]","3","high nameability","26","right","audio_feedback","1"
"html-button-response","160","186802","0.0-102.0","CKN_120","120","","","","","","null","<button class=""jspsych-btn""><img src=""stimuli/white_square.png"" style=""width: 200px;height: 200px;""></button>","null","purple","yellow","[""purple"",""yellow"",""high nameability""]","right-left","[""yellow"",""purple""]","3","high nameability","26","right","iti",""
"html-button-response","161","187663","0.0-103.0","CKN_120","120","","","","","","842","","0","lightred","turquoise","[""lightred"",""turquoise"",""low nameability""]","right-left","[""turquoise"",""lightred""]","3","low nameability","27","right","trigger",""
"html-button-response","162","189941","0.0-104.0-0.0","CKN_120","120","","","","","","2265","<button class=""jspsych-btn""><img src=""stimuli/lightred.png"" style=""width: 200px;height: 200px;""></button>","0","lightred","turquoise","[""lightred"",""turquoise"",""low nameability""]","right-left","[""turquoise"",""lightred""]","3","low nameability","27","right","response","0"
"html-audio-button-response","163","190576","0.0-104.0-1.0","CKN_120","120","","","","","","null","stimuli/boing.m4a","null","lightred","turquoise","[""lightred"",""turquoise"",""low nameability""]","right-left","[""turquoise"",""lightred""]","3","low nameability","27","right","audio_feedback","0"
"html-button-response","164","190911","0.0-104.1-0.1","CKN_120","120","","","","","","302","<button class=""jspsych-btn""><img src=""stimuli/lightred.png"" style=""width: 200px;height: 200px;""></button>","1","lightred","turquoise","[""lightred"",""turquoise"",""low nameability""]","right-left","[""turquoise"",""lightred""]","3","low nameability","27","right","response","1"
"html-audio-button-response","165","191113","0.0-104.1-1.1","CKN_120","120","","","","","","null","stimuli/bleep.m4a","null","lightred","turquoise","[""lightred"",""turquoise"",""low nameability""]","right-left","[""turquoise"",""lightred""]","3","low nameability","27","right","audio_feedback","1"
"html-button-response","166","191637","0.0-105.0","CKN_120","120","","","","","","null","<button class=""jspsych-btn""><img src=""stimuli/white_square.png"" style=""width: 200px;height: 200px;""></button>","null","lightred","turquoise","[""lightred"",""turquoise"",""low nameability""]","right-left","[""turquoise"",""lightred""]","3","low nameability","27","right","iti",""
"html-button-response","167","192502","0.0-106.0","CKN_120","120","","","","","","848","","0","yellow","brown","[""yellow"",""brown"",""high nameability""]","right-left","[""brown"",""yellow""]","3","high nameability","28","right","trigger",""
"html-button-response","168","194108","0.0-107.0-0.0","CKN_120","120","","","","","","1599","<button class=""jspsych-btn""><img src=""stimuli/yellow.png"" style=""width: 200px;height: 200px;""></button>","1","yellow","brown","[""yellow"",""brown"",""high nameability""]","right-left","[""brown"",""yellow""]","3","high nameability","28","right","response","1"
"html-audio-button-response","169","194319","0.0-107.0-1.0","CKN_120","120","","","","","","null","stimuli/bleep.m4a","null","yellow","brown","[""yellow"",""brown"",""high nameability""]","right-left","[""brown"",""yellow""]","3","high nameability","28","right","audio_feedback","1"
"html-button-response","170","194829","0.0-108.0","CKN_120","120","","","","","","null","<button class=""jspsych-btn""><img src=""stimuli/white_square.png"" style=""width: 200px;height: 200px;""></button>","null","yellow","brown","[""yellow"",""brown"",""high nameability""]","right-left","[""brown"",""yellow""]","3","high nameability","28","right","iti",""
"html-button-response","171","195638","0.0-109.0","CKN_120","120","","","","","","794","","0","yellow","blue","[""yellow"",""blue"",""high nameability""]","left-right","[""yellow"",""blue"",""high nameability""]","3","high nameability","29","left","trigger",""
"html-button-response","172","196685","0.0-110.0-0.0","CKN_120","120","","","","","","1037","<button class=""jspsych-btn""><img src=""stimuli/yellow.png"" style=""width: 200px;height: 200px;""></button>","1","yellow","blue","[""yellow"",""blue"",""high nameability""]","left-right","[""yellow"",""blue"",""high nameability""]","3","high nameability","29","left","response","0"
"html-audio-button-response","173","197316","0.0-110.0-1.0","CKN_120","120","","","","","","null","stimuli/boing.m4a","null","yellow","blue","[""yellow"",""blue"",""high nameability""]","left-right","[""yellow"",""blue"",""high nameability""]","3","high nameability","29","left","audio_feedback","0"
"html-button-response","174","197777","0.0-110.1-0.1","CKN_120","120","","","","","","439","<button class=""jspsych-btn""><img src=""stimuli/yellow.png"" style=""width: 200px;height: 200px;""></button>","0","yellow","blue","[""yellow"",""blue"",""high nameability""]","left-right","[""yellow"",""blue"",""high nameability""]","3","high nameability","29","left","response","1"
"html-audio-button-response","175","197990","0.0-110.1-1.1","CKN_120","120","","","","","","null","stimuli/bleep.m4a","null","yellow","blue","[""yellow"",""blue"",""high nameability""]","left-right","[""yellow"",""blue"",""high nameability""]","3","high nameability","29","left","audio_feedback","1"
"html-button-response","176","198512","0.0-111.0","CKN_120","120","","","","","","null","<button class=""jspsych-btn""><img src=""stimuli/white_square.png"" style=""width: 200px;height: 200px;""></button>","null","yellow","blue","[""yellow"",""blue"",""high nameability""]","left-right","[""yellow"",""blue"",""high nameability""]","3","high nameability","29","left","iti",""
"html-button-response","177","199465","0.0-112.0","CKN_120","120","","","","","","928","","0","neonyellow","darkgreenblue","[""neonyellow"",""darkgreenblue"",""low nameability""]","left-right","[""neonyellow"",""darkgreenblue"",""low nameability""]","3","low nameability","30","left","trigger",""
"html-button-response","178","208222","0.0-113.0-0.0","CKN_120","120","","","","","","8743","<button class=""jspsych-btn""><img src=""stimuli/neonyellow.png"" style=""width: 200px;height: 200px;""></button>","0","neonyellow","darkgreenblue","[""neonyellow"",""darkgreenblue"",""low nameability""]","left-right","[""neonyellow"",""darkgreenblue"",""low nameability""]","3","low nameability","30","left","response","1"
"html-audio-button-response","179","208431","0.0-113.0-1.0","CKN_120","120","","","","","","null","stimuli/bleep.m4a","null","neonyellow","darkgreenblue","[""neonyellow"",""darkgreenblue"",""low nameability""]","left-right","[""neonyellow"",""darkgreenblue"",""low nameability""]","3","low nameability","30","left","audio_feedback","1"
"html-button-response","180","208944","0.0-114.0","CKN_120","120","","","","","","null","<button class=""jspsych-btn""><img src=""stimuli/white_square.png"" style=""width: 200px;height: 200px;""></button>","null","neonyellow","darkgreenblue","[""neonyellow"",""darkgreenblue"",""low nameability""]","left-right","[""neonyellow"",""darkgreenblue"",""low nameability""]","3","low nameability","30","left","iti",""
"pavlovia","181","209043","0.0-115.0","CKN_120","120","","","","","","","","","","","","","","","","","","",""
"pavlovia","182","209058","0.0-116.0","CKN_120","120","","","","","","","","","","","","","","","","","","",""
"html-audio-button-response","183","212498","0.0-117.0","CKN_120","120","","","","","","3552","stimuli/tada.m4a","0","","","","","","","","","","",""
"html-button-response","184","213226","0.0-118.0","CKN_120","120","","","","","","722","","0","","","","","","","","","","",""
"html-button-response","185","214547","0.0-119.0","CKN_120","120","","","","","","1315","","0","pink","lightred","[""pink"",""lightred"",""low nameability""]","right-left","[""lightred"",""pink""]","4","low nameability","31","right","trigger",""
"html-button-response","186","216765","0.0-120.0-0.0","CKN_120","120","","","","","","2206","<button class=""jspsych-btn""><img src=""stimuli/pink.png"" style=""width: 200px;height: 200px;""></button>","0","pink","lightred","[""pink"",""lightred"",""low nameability""]","right-left","[""lightred"",""pink""]","4","low nameability","31","right","response","0"
"html-audio-button-response","187","217410","0.0-120.0-1.0","CKN_120","120","","","","","","null","stimuli/boing.m4a","null","pink","lightred","[""pink"",""lightred"",""low nameability""]","right-left","[""lightred"",""pink""]","4","low nameability","31","right","audio_feedback","0"
"html-button-response","188","218106","0.0-120.1-0.1","CKN_120","120","","","","","","667","<button class=""jspsych-btn""><img src=""stimuli/pink.png"" style=""width: 200px;height: 200px;""></button>","1","pink","lightred","[""pink"",""lightred"",""low nameability""]","right-left","[""lightred"",""pink""]","4","low nameability","31","right","response","1"
"html-audio-button-response","189","218314","0.0-120.1-1.1","CKN_120","120","","","","","","null","stimuli/bleep.m4a","null","pink","lightred","[""pink"",""lightred"",""low nameability""]","right-left","[""lightred"",""pink""]","4","low nameability","31","right","audio_feedback","1"
"html-button-response","190","218838","0.0-121.0","CKN_120","120","","","","","","null","<button class=""jspsych-btn""><img src=""stimuli/white_square.png"" style=""width: 200px;height: 200px;""></button>","null","pink","lightred","[""pink"",""lightred"",""low nameability""]","right-left","[""lightred"",""pink""]","4","low nameability","31","right","iti",""
"html-button-response","191","222330","0.0-122.0","CKN_120","120","","","","","","3477","","0","orange","purple","[""orange"",""purple"",""high nameability""]","left-right","[""orange"",""purple"",""high nameability""]","4","high nameability","32","left","trigger",""
"html-button-response","192","223455","0.0-123.0-0.0","CKN_120","120","","","","","","1118","<button class=""jspsych-btn""><img src=""stimuli/orange.png"" style=""width: 200px;height: 200px;""></button>","0","orange","purple","[""orange"",""purple"",""high nameability""]","left-right","[""orange"",""purple"",""high nameability""]","4","high nameability","32","left","response","1"
"html-audio-button-response","193","223656","0.0-123.0-1.0","CKN_120","120","","","","","","null","stimuli/bleep.m4a","null","orange","purple","[""orange"",""purple"",""high nameability""]","left-right","[""orange"",""purple"",""high nameability""]","4","high nameability","32","left","audio_feedback","1"
"html-button-response","194","224175","0.0-124.0","CKN_120","120","","","","","","null","<button class=""jspsych-btn""><img src=""stimuli/white_square.png"" style=""width: 200px;height: 200px;""></button>","null","orange","purple","[""orange"",""purple"",""high nameability""]","left-right","[""orange"",""purple"",""high nameability""]","4","high nameability","32","left","iti",""
"html-button-response","195","224825","0.0-125.0","CKN_120","120","","","","","","643","","0","lightred","neonyellow","[""lightred"",""neonyellow"",""low nameability""]","right-left","[""neonyellow"",""lightred""]","4","low nameability","33","right","trigger",""
"html-button-response","196","225698","0.0-126.0-0.0","CKN_120","120","","","","","","864","<button class=""jspsych-btn""><img src=""stimuli/lightred.png"" style=""width: 200px;height: 200px;""></button>","1","lightred","neonyellow","[""lightred"",""neonyellow"",""low nameability""]","right-left","[""neonyellow"",""lightred""]","4","low nameability","33","right","response","1"
"html-audio-button-response","197","225905","0.0-126.0-1.0","CKN_120","120","","","","","","null","stimuli/bleep.m4a","null","lightred","neonyellow","[""lightred"",""neonyellow"",""low nameability""]","right-left","[""neonyellow"",""lightred""]","4","low nameability","33","right","audio_feedback","1"
"html-button-response","198","226424","0.0-127.0","CKN_120","120","","","","","","null","<button class=""jspsych-btn""><img src=""stimuli/white_square.png"" style=""width: 200px;height: 200px;""></button>","null","lightred","neonyellow","[""lightred"",""neonyellow"",""low nameability""]","right-left","[""neonyellow"",""lightred""]","4","low nameability","33","right","iti",""
"html-button-response","199","226673","0.0-128.0","CKN_120","120","","","","","","237","","0","lightred","pink","[""lightred"",""pink"",""low nameability""]","right-left","[""pink"",""lightred""]","4","low nameability","34","right","trigger",""
"html-button-response","200","227794","0.0-129.0-0.0","CKN_120","120","","","","","","1106","<button class=""jspsych-btn""><img src=""stimuli/lightred.png"" style=""width: 200px;height: 200px;""></button>","0","lightred","pink","[""lightred"",""pink"",""low nameability""]","right-left","[""pink"",""lightred""]","4","low nameability","34","right","response","0"
"html-audio-button-response","201","228433","0.0-129.0-1.0","CKN_120","120","","","","","","null","stimuli/boing.m4a","null","lightred","pink","[""lightred"",""pink"",""low nameability""]","right-left","[""pink"",""lightred""]","4","low nameability","34","right","audio_feedback","0"
"html-button-response","202","228964","0.0-129.1-0.1","CKN_120","120","","","","","","498","<button class=""jspsych-btn""><img src=""stimuli/lightred.png"" style=""width: 200px;height: 200px;""></button>","1","lightred","pink","[""lightred"",""pink"",""low nameability""]","right-left","[""pink"",""lightred""]","4","low nameability","34","right","response","1"
"html-audio-button-response","203","229182","0.0-129.1-1.1","CKN_120","120","","","","","","null","stimuli/bleep.m4a","null","lightred","pink","[""lightred"",""pink"",""low nameability""]","right-left","[""pink"",""lightred""]","4","low nameability","34","right","audio_feedback","1"
"html-button-response","204","229711","0.0-130.0","CKN_120","120","","","","","","null","<button class=""jspsych-btn""><img src=""stimuli/white_square.png"" style=""width: 200px;height: 200px;""></button>","null","lightred","pink","[""lightred"",""pink"",""low nameability""]","right-left","[""pink"",""lightred""]","4","low nameability","34","right","iti",""
"html-button-response","205","230494","0.0-131.0","CKN_120","120","","","","","","769","","0","blue","red","[""blue"",""red"",""high nameability""]","left-right","[""blue"",""red"",""high nameability""]","4","high nameability","35","left","trigger",""
"html-button-response","206","232023","0.0-132.0-0.0","CKN_120","120","","","","","","1518","<button class=""jspsych-btn""><img src=""stimuli/blue.png"" style=""width: 200px;height: 200px;""></button>","0","blue","red","[""blue"",""red"",""high nameability""]","left-right","[""blue"",""red"",""high nameability""]","4","high nameability","35","left","response","1"
"html-audio-button-response","207","232234","0.0-132.0-1.0","CKN_120","120","","","","","","null","stimuli/bleep.m4a","null","blue","red","[""blue"",""red"",""high nameability""]","left-right","[""blue"",""red"",""high nameability""]","4","high nameability","35","left","audio_feedback","1"
"html-button-response","208","232765","0.0-133.0","CKN_120","120","","","","","","null","<button class=""jspsych-btn""><img src=""stimuli/white_square.png"" style=""width: 200px;height: 200px;""></button>","null","blue","red","[""blue"",""red"",""high nameability""]","left-right","[""blue"",""red"",""high nameability""]","4","high nameability","35","left","iti",""
"html-button-response","209","233481","0.0-134.0","CKN_120","120","","","","","","682","","0","pink","darkgreenblue","[""pink"",""darkgreenblue"",""low nameability""]","right-left","[""darkgreenblue"",""pink""]","4","low nameability","36","right","trigger",""
"html-button-response","210","234183","0.0-135.0-0.0","CKN_120","120","","","","","","689","<button class=""jspsych-btn""><img src=""stimuli/pink.png"" style=""width: 200px;height: 200px;""></button>","1","pink","darkgreenblue","[""pink"",""darkgreenblue"",""low nameability""]","right-left","[""darkgreenblue"",""pink""]","4","low nameability","36","right","response","1"
"html-audio-button-response","211","234393","0.0-135.0-1.0","CKN_120","120","","","","","","null","stimuli/bleep.m4a","null","pink","darkgreenblue","[""pink"",""darkgreenblue"",""low nameability""]","right-left","[""darkgreenblue"",""pink""]","4","low nameability","36","right","audio_feedback","1"
"html-button-response","212","234915","0.0-136.0","CKN_120","120","","","","","","null","<button class=""jspsych-btn""><img src=""stimuli/white_square.png"" style=""width: 200px;height: 200px;""></button>","null","pink","darkgreenblue","[""pink"",""darkgreenblue"",""low nameability""]","right-left","[""darkgreenblue"",""pink""]","4","low nameability","36","right","iti",""
"html-button-response","213","235751","0.0-137.0","CKN_120","120","","","","","","820","","0","mustard","lightred","[""mustard"",""lightred"",""low nameability""]","right-left","[""lightred"",""mustard""]","4","low nameability","37","right","trigger",""
"html-button-response","214","236600","0.0-138.0-0.0","CKN_120","120","","","","","","842","<button class=""jspsych-btn""><img src=""stimuli/mustard.png"" style=""width: 200px;height: 200px;""></button>","0","mustard","lightred","[""mustard"",""lightred"",""low nameability""]","right-left","[""lightred"",""mustard""]","4","low nameability","37","right","response","0"
"html-audio-button-response","215","237253","0.0-138.0-1.0","CKN_120","120","","","","","","null","stimuli/boing.m4a","null","mustard","lightred","[""mustard"",""lightred"",""low nameability""]","right-left","[""lightred"",""mustard""]","4","low nameability","37","right","audio_feedback","0"
"html-button-response","216","237622","0.0-138.1-0.1","CKN_120","120","","","","","","318","<button class=""jspsych-btn""><img src=""stimuli/mustard.png"" style=""width: 200px;height: 200px;""></button>","1","mustard","lightred","[""mustard"",""lightred"",""low nameability""]","right-left","[""lightred"",""mustard""]","4","low nameability","37","right","response","1"
"html-audio-button-response","217","237841","0.0-138.1-1.1","CKN_120","120","","","","","","null","stimuli/bleep.m4a","null","mustard","lightred","[""mustard"",""lightred"",""low nameability""]","right-left","[""lightred"",""mustard""]","4","low nameability","37","right","audio_feedback","1"
"html-button-response","218","238360","0.0-139.0","CKN_120","120","","","","","","null","<button class=""jspsych-btn""><img src=""stimuli/white_square.png"" style=""width: 200px;height: 200px;""></button>","null","mustard","lightred","[""mustard"",""lightred"",""low nameability""]","right-left","[""lightred"",""mustard""]","4","low nameability","37","right","iti",""
"html-button-response","219","238878","0.0-140.0","CKN_120","120","","","","","","505","","0","mustard","neonyellow","[""mustard"",""neonyellow"",""low nameability""]","left-right","[""mustard"",""neonyellow"",""low nameability""]","4","low nameability","38","left","trigger",""
"html-button-response","220","240968","0.0-141.0-0.0","CKN_120","120","","","","","","2082","<button class=""jspsych-btn""><img src=""stimuli/mustard.png"" style=""width: 200px;height: 200px;""></button>","0","mustard","neonyellow","[""mustard"",""neonyellow"",""low nameability""]","left-right","[""mustard"",""neonyellow"",""low nameability""]","4","low nameability","38","left","response","1"
"html-audio-button-response","221","241179","0.0-141.0-1.0","CKN_120","120","","","","","","null","stimuli/bleep.m4a","null","mustard","neonyellow","[""mustard"",""neonyellow"",""low nameability""]","left-right","[""mustard"",""neonyellow"",""low nameability""]","4","low nameability","38","left","audio_feedback","1"
"html-button-response","222","241707","0.0-142.0","CKN_120","120","","","","","","null","<button class=""jspsych-btn""><img src=""stimuli/white_square.png"" style=""width: 200px;height: 200px;""></button>","null","mustard","neonyellow","[""mustard"",""neonyellow"",""low nameability""]","left-right","[""mustard"",""neonyellow"",""low nameability""]","4","low nameability","38","left","iti",""
"html-button-response","223","242896","0.0-143.0","CKN_120","120","","","","","","1173","","0","turquoise","neonyellow","[""turquoise"",""neonyellow"",""low nameability""]","left-right","[""turquoise"",""neonyellow"",""low nameability""]","4","low nameability","39","left","trigger",""
"html-button-response","224","244123","0.0-144.0-0.0","CKN_120","120","","","","","","1213","<button class=""jspsych-btn""><img src=""stimuli/turquoise.png"" style=""width: 200px;height: 200px;""></button>","1","turquoise","neonyellow","[""turquoise"",""neonyellow"",""low nameability""]","left-right","[""turquoise"",""neonyellow"",""low nameability""]","4","low nameability","39","left","response","0"
"html-audio-button-response","225","244763","0.0-144.0-1.0","CKN_120","120","","","","","","null","stimuli/boing.m4a","null","turquoise","neonyellow","[""turquoise"",""neonyellow"",""low nameability""]","left-right","[""turquoise"",""neonyellow"",""low nameability""]","4","low nameability","39","left","audio_feedback","0"
"html-button-response","226","245082","0.0-144.1-0.1","CKN_120","120","","","","","","286","<button class=""jspsych-btn""><img src=""stimuli/turquoise.png"" style=""width: 200px;height: 200px;""></button>","0","turquoise","neonyellow","[""turquoise"",""neonyellow"",""low nameability""]","left-right","[""turquoise"",""neonyellow"",""low nameability""]","4","low nameability","39","left","response","1"
"html-audio-button-response","227","245289","0.0-144.1-1.1","CKN_120","120","","","","","","null","stimuli/bleep.m4a","null","turquoise","neonyellow","[""turquoise"",""neonyellow"",""low nameability""]","left-right","[""turquoise"",""neonyellow"",""low nameability""]","4","low nameability","39","left","audio_feedback","1"
"html-button-response","228","245822","0.0-145.0","CKN_120","120","","","","","","null","<button class=""jspsych-btn""><img src=""stimuli/white_square.png"" style=""width: 200px;height: 200px;""></button>","null","turquoise","neonyellow","[""turquoise"",""neonyellow"",""low nameability""]","left-right","[""turquoise"",""neonyellow"",""low nameability""]","4","low nameability","39","left","iti",""
"html-button-response","229","246675","0.0-146.0","CKN_120","120","","","","","","832","","0","pink","neonyellow","[""pink"",""neonyellow"",""low nameability""]","right-left","[""neonyellow"",""pink""]","4","low nameability","40","right","trigger",""
"html-button-response","230","249235","0.0-147.0-0.0","CKN_120","120","","","","","","2552","<button class=""jspsych-btn""><img src=""stimuli/pink.png"" style=""width: 200px;height: 200px;""></button>","1","pink","neonyellow","[""pink"",""neonyellow"",""low nameability""]","right-left","[""neonyellow"",""pink""]","4","low nameability","40","right","response","1"
"html-audio-button-response","231","249441","0.0-147.0-1.0","CKN_120","120","","","","","","null","stimuli/bleep.m4a","null","pink","neonyellow","[""pink"",""neonyellow"",""low nameability""]","right-left","[""neonyellow"",""pink""]","4","low nameability","40","right","audio_feedback","1"
"html-button-response","232","249963","0.0-148.0","CKN_120","120","","","","","","null","<button class=""jspsych-btn""><img src=""stimuli/white_square.png"" style=""width: 200px;height: 200px;""></button>","null","pink","neonyellow","[""pink"",""neonyellow"",""low nameability""]","right-left","[""neonyellow"",""pink""]","4","low nameability","40","right","iti",""
"pavlovia","233","250062","0.0-149.0","CKN_120","120","","","","","","","","","","","","","","","","","","",""
"pavlovia","234","250073","0.0-150.0","CKN_120","120","","","","","","","","","","","","","","","","","","",""
"html-audio-button-response","235","253285","0.0-151.0","CKN_120","120","","","","","","3320","stimuli/tada.m4a","0","","","","","","","","","","",""
"html-button-response","236","253798","0.0-152.0","CKN_120","120","","","","","","507","","0","","","","","","","","","","",""
"html-button-response","237","256590","0.0-153.0","CKN_120","120","","","","","","2783","","0","brown","blue","[""brown"",""blue"",""high nameability""]","left-right","[""brown"",""blue"",""high nameability""]","5","high nameability","41","left","trigger",""
"html-button-response","238","257947","0.0-154.0-0.0","CKN_120","120","","","","","","1344","<button class=""jspsych-btn""><img src=""stimuli/brown.png"" style=""width: 200px;height: 200px;""></button>","1","brown","blue","[""brown"",""blue"",""high nameability""]","left-right","[""brown"",""blue"",""high nameability""]","5","high nameability","41","left","response","0"
"html-audio-button-response","239","258598","0.0-154.0-1.0","CKN_120","120","","","","","","null","stimuli/boing.m4a","null","brown","blue","[""brown"",""blue"",""high nameability""]","left-right","[""brown"",""blue"",""high nameability""]","5","high nameability","41","left","audio_feedback","0"
"html-button-response","240","258778","0.0-154.1-0.1","CKN_120","120","","","","","","153","<button class=""jspsych-btn""><img src=""stimuli/brown.png"" style=""width: 200px;height: 200px;""></button>","0","brown","blue","[""brown"",""blue"",""high nameability""]","left-right","[""brown"",""blue"",""high nameability""]","5","high nameability","41","left","response","1"
"html-audio-button-response","241","258993","0.0-154.1-1.1","CKN_120","120","","","","","","null","stimuli/bleep.m4a","null","brown","blue","[""brown"",""blue"",""high nameability""]","left-right","[""brown"",""blue"",""high nameability""]","5","high nameability","41","left","audio_feedback","1"
"html-button-response","242","259515","0.0-155.0","CKN_120","120","","","","","","null","<button class=""jspsych-btn""><img src=""stimuli/white_square.png"" style=""width: 200px;height: 200px;""></button>","null","brown","blue","[""brown"",""blue"",""high nameability""]","left-right","[""brown"",""blue"",""high nameability""]","5","high nameability","41","left","iti",""
"html-button-response","243","260282","0.0-156.0","CKN_120","120","","","","","","753","","0","neonyellow","pink","[""neonyellow"",""pink"",""low nameability""]","right-left","[""pink"",""neonyellow""]","5","low nameability","42","right","trigger",""
"html-button-response","244","261309","0.0-157.0-0.0","CKN_120","120","","","","","","1017","<button class=""jspsych-btn""><img src=""stimuli/neonyellow.png"" style=""width: 200px;height: 200px;""></button>","1","neonyellow","pink","[""neonyellow"",""pink"",""low nameability""]","right-left","[""pink"",""neonyellow""]","5","low nameability","42","right","response","1"
"html-audio-button-response","245","261512","0.0-157.0-1.0","CKN_120","120","","","","","","null","stimuli/bleep.m4a","null","neonyellow","pink","[""neonyellow"",""pink"",""low nameability""]","right-left","[""pink"",""neonyellow""]","5","low nameability","42","right","audio_feedback","1"
"html-button-response","246","262031","0.0-158.0","CKN_120","120","","","","","","null","<button class=""jspsych-btn""><img src=""stimuli/white_square.png"" style=""width: 200px;height: 200px;""></button>","null","neonyellow","pink","[""neonyellow"",""pink"",""low nameability""]","right-left","[""pink"",""neonyellow""]","5","low nameability","42","right","iti",""
"html-button-response","247","262880","0.0-159.0","CKN_120","120","","","","","","834","","0","purple","orange","[""purple"",""orange"",""high nameability""]","left-right","[""purple"",""orange"",""high nameability""]","5","high nameability","43","left","trigger",""
"html-button-response","248","263892","0.0-160.0-0.0","CKN_120","120","","","","","","1005","<button class=""jspsych-btn""><img src=""stimuli/purple.png"" style=""width: 200px;height: 200px;""></button>","0","purple","orange","[""purple"",""orange"",""high nameability""]","left-right","[""purple"",""orange"",""high nameability""]","5","high nameability","43","left","response","1"
"html-audio-button-response","249","264105","0.0-160.0-1.0","CKN_120","120","","","","","","null","stimuli/bleep.m4a","null","purple","orange","[""purple"",""orange"",""high nameability""]","left-right","[""purple"",""orange"",""high nameability""]","5","high nameability","43","left","audio_feedback","1"
"html-button-response","250","264629","0.0-161.0","CKN_120","120","","","","","","null","<button class=""jspsych-btn""><img src=""stimuli/white_square.png"" style=""width: 200px;height: 200px;""></button>","null","purple","orange","[""purple"",""orange"",""high nameability""]","left-right","[""purple"",""orange"",""high nameability""]","5","high nameability","43","left","iti",""
"html-button-response","251","265558","0.0-162.0","CKN_120","120","","","","","","915","","0","mustard","darkgreenblue","[""mustard"",""darkgreenblue"",""low nameability""]","right-left","[""darkgreenblue"",""mustard""]","5","low nameability","44","right","trigger",""
"html-button-response","252","266707","0.0-163.0-0.0","CKN_120","120","","","","","","1141","<button class=""jspsych-btn""><img src=""stimuli/mustard.png"" style=""width: 200px;height: 200px;""></button>","1","mustard","darkgreenblue","[""mustard"",""darkgreenblue"",""low nameability""]","right-left","[""darkgreenblue"",""mustard""]","5","low nameability","44","right","response","1"
"html-audio-button-response","253","266912","0.0-163.0-1.0","CKN_120","120","","","","","","null","stimuli/bleep.m4a","null","mustard","darkgreenblue","[""mustard"",""darkgreenblue"",""low nameability""]","right-left","[""darkgreenblue"",""mustard""]","5","low nameability","44","right","audio_feedback","1"
"html-button-response","254","267425","0.0-164.0","CKN_120","120","","","","","","null","<button class=""jspsych-btn""><img src=""stimuli/white_square.png"" style=""width: 200px;height: 200px;""></button>","null","mustard","darkgreenblue","[""mustard"",""darkgreenblue"",""low nameability""]","right-left","[""darkgreenblue"",""mustard""]","5","low nameability","44","right","iti",""
"html-button-response","255","268233","0.0-165.0","CKN_120","120","","","","","","793","","0","orange","yellow","[""orange"",""yellow"",""high nameability""]","left-right","[""orange"",""yellow"",""high nameability""]","5","high nameability","45","left","trigger",""
"html-button-response","256","269553","0.0-166.0-0.0","CKN_120","120","","","","","","1310","<button class=""jspsych-btn""><img src=""stimuli/orange.png"" style=""width: 200px;height: 200px;""></button>","1","orange","yellow","[""orange"",""yellow"",""high nameability""]","left-right","[""orange"",""yellow"",""high nameability""]","5","high nameability","45","left","response","0"
"html-audio-button-response","257","270201","0.0-166.0-1.0","CKN_120","120","","","","","","null","stimuli/boing.m4a","null","orange","yellow","[""orange"",""yellow"",""high nameability""]","left-right","[""orange"",""yellow"",""high nameability""]","5","high nameability","45","left","audio_feedback","0"
"html-button-response","258","270478","0.0-166.1-0.1","CKN_120","120","","","","","","253","<button class=""jspsych-btn""><img src=""stimuli/orange.png"" style=""width: 200px;height: 200px;""></button>","0","orange","yellow","[""orange"",""yellow"",""high nameability""]","left-right","[""orange"",""yellow"",""high nameability""]","5","high nameability","45","left","response","1"
"html-audio-button-response","259","270690","0.0-166.1-1.1","CKN_120","120","","","","","","null","stimuli/bleep.m4a","null","orange","yellow","[""orange"",""yellow"",""high nameability""]","left-right","[""orange"",""yellow"",""high nameability""]","5","high nameability","45","left","audio_feedback","1"
"html-button-response","260","271204","0.0-167.0","CKN_120","120","","","","","","null","<button class=""jspsych-btn""><img src=""stimuli/white_square.png"" style=""width: 200px;height: 200px;""></button>","null","orange","yellow","[""orange"",""yellow"",""high nameability""]","left-right","[""orange"",""yellow"",""high nameability""]","5","high nameability","45","left","iti",""
"html-button-response","261","272038","0.0-168.0","CKN_120","120","","","","","","818","","0","brown","orange","[""brown"",""orange"",""high nameability""]","right-left","[""orange"",""brown""]","5","high nameability","46","right","trigger",""
"html-button-response","262","273788","0.0-169.0-0.0","CKN_120","120","","","","","","1741","<button class=""jspsych-btn""><img src=""stimuli/brown.png"" style=""width: 200px;height: 200px;""></button>","1","brown","orange","[""brown"",""orange"",""high nameability""]","right-left","[""orange"",""brown""]","5","high nameability","46","right","response","1"
"html-audio-button-response","263","274000","0.0-169.0-1.0","CKN_120","120","","","","","","null","stimuli/bleep.m4a","null","brown","orange","[""brown"",""orange"",""high nameability""]","right-left","[""orange"",""brown""]","5","high nameability","46","right","audio_feedback","1"
"html-button-response","264","274514","0.0-170.0","CKN_120","120","","","","","","null","<button class=""jspsych-btn""><img src=""stimuli/white_square.png"" style=""width: 200px;height: 200px;""></button>","null","brown","orange","[""brown"",""orange"",""high nameability""]","right-left","[""orange"",""brown""]","5","high nameability","46","right","iti",""
"html-button-response","265","275223","0.0-171.0","CKN_120","120","","","","","","699","","0","darkgreenblue","turquoise","[""darkgreenblue"",""turquoise"",""low nameability""]","right-left","[""turquoise"",""darkgreenblue""]","5","low nameability","47","right","trigger",""
"html-button-response","266","276132","0.0-172.0-0.0","CKN_120","120","","","","","","899","<button class=""jspsych-btn""><img src=""stimuli/darkgreenblue.png"" style=""width: 200px;height: 200px;""></button>","0","darkgreenblue","turquoise","[""darkgreenblue"",""turquoise"",""low nameability""]","right-left","[""turquoise"",""darkgreenblue""]","5","low nameability","47","right","response","0"
"html-audio-button-response","267","276783","0.0-172.0-1.0","CKN_120","120","","","","","","null","stimuli/boing.m4a","null","darkgreenblue","turquoise","[""darkgreenblue"",""turquoise"",""low nameability""]","right-left","[""turquoise"",""darkgreenblue""]","5","low nameability","47","right","audio_feedback","0"
"html-button-response","268","277294","0.0-172.1-0.1","CKN_120","120","","","","","","486","<button class=""jspsych-btn""><img src=""stimuli/darkgreenblue.png"" style=""width: 200px;height: 200px;""></button>","1","darkgreenblue","turquoise","[""darkgreenblue"",""turquoise"",""low nameability""]","right-left","[""turquoise"",""darkgreenblue""]","5","low nameability","47","right","response","1"
"html-audio-button-response","269","277497","0.0-172.1-1.1","CKN_120","120","","","","","","null","stimuli/bleep.m4a","null","darkgreenblue","turquoise","[""darkgreenblue"",""turquoise"",""low nameability""]","right-left","[""turquoise"",""darkgreenblue""]","5","low nameability","47","right","audio_feedback","1"
"html-button-response","270","278013","0.0-173.0","CKN_120","120","","","","","","null","<button class=""jspsych-btn""><img src=""stimuli/white_square.png"" style=""width: 200px;height: 200px;""></button>","null","darkgreenblue","turquoise","[""darkgreenblue"",""turquoise"",""low nameability""]","right-left","[""turquoise"",""darkgreenblue""]","5","low nameability","47","right","iti",""
"html-button-response","271","278406","0.0-174.0","CKN_120","120","","","","","","380","","0","neonyellow","turquoise","[""neonyellow"",""turquoise"",""low nameability""]","right-left","[""turquoise"",""neonyellow""]","5","low nameability","48","right","trigger",""
"html-button-response","272","279288","0.0-175.0-0.0","CKN_120","120","","","","","","876","<button class=""jspsych-btn""><img src=""stimuli/neonyellow.png"" style=""width: 200px;height: 200px;""></button>","0","neonyellow","turquoise","[""neonyellow"",""turquoise"",""low nameability""]","right-left","[""turquoise"",""neonyellow""]","5","low nameability","48","right","response","0"
"html-audio-button-response","273","279934","0.0-175.0-1.0","CKN_120","120","","","","","","null","stimuli/boing.m4a","null","neonyellow","turquoise","[""neonyellow"",""turquoise"",""low nameability""]","right-left","[""turquoise"",""neonyellow""]","5","low nameability","48","right","audio_feedback","0"
"html-button-response","274","280115","0.0-175.1-0.1","CKN_120","120","","","","","","156","<button class=""jspsych-btn""><img src=""stimuli/neonyellow.png"" style=""width: 200px;height: 200px;""></button>","1","neonyellow","turquoise","[""neonyellow"",""turquoise"",""low nameability""]","right-left","[""turquoise"",""neonyellow""]","5","low nameability","48","right","response","1"
"html-audio-button-response","275","280322","0.0-175.1-1.1","CKN_120","120","","","","","","null","stimuli/bleep.m4a","null","neonyellow","turquoise","[""neonyellow"",""turquoise"",""low nameability""]","right-left","[""turquoise"",""neonyellow""]","5","low nameability","48","right","audio_feedback","1"
"html-button-response","276","280850","0.0-176.0","CKN_120","120","","","","","","null","<button class=""jspsych-btn""><img src=""stimuli/white_square.png"" style=""width: 200px;height: 200px;""></button>","null","neonyellow","turquoise","[""neonyellow"",""turquoise"",""low nameability""]","right-left","[""turquoise"",""neonyellow""]","5","low nameability","48","right","iti",""
"html-button-response","277","280917","0.0-177.0","CKN_120","120","","","","","","62","","0","darkgreenblue","neonyellow","[""darkgreenblue"",""neonyellow"",""low nameability""]","right-left","[""neonyellow"",""darkgreenblue""]","5","low nameability","49","right","trigger",""
"html-button-response","278","282716","0.0-178.0-0.0","CKN_120","120","","","","","","1793","<button class=""jspsych-btn""><img src=""stimuli/darkgreenblue.png"" style=""width: 200px;height: 200px;""></button>","0","darkgreenblue","neonyellow","[""darkgreenblue"",""neonyellow"",""low nameability""]","right-left","[""neonyellow"",""darkgreenblue""]","5","low nameability","49","right","response","0"
"html-audio-button-response","279","283358","0.0-178.0-1.0","CKN_120","120","","","","","","null","stimuli/boing.m4a","null","darkgreenblue","neonyellow","[""darkgreenblue"",""neonyellow"",""low nameability""]","right-left","[""neonyellow"",""darkgreenblue""]","5","low nameability","49","right","audio_feedback","0"
"html-button-response","280","284203","0.0-178.1-0.1","CKN_120","120","","","","","","819","<button class=""jspsych-btn""><img src=""stimuli/darkgreenblue.png"" style=""width: 200px;height: 200px;""></button>","1","darkgreenblue","neonyellow","[""darkgreenblue"",""neonyellow"",""low nameability""]","right-left","[""neonyellow"",""darkgreenblue""]","5","low nameability","49","right","response","1"
"html-audio-button-response","281","284415","0.0-178.1-1.1","CKN_120","120","","","","","","null","stimuli/bleep.m4a","null","darkgreenblue","neonyellow","[""darkgreenblue"",""neonyellow"",""low nameability""]","right-left","[""neonyellow"",""darkgreenblue""]","5","low nameability","49","right","audio_feedback","1"
"html-button-response","282","284935","0.0-179.0","CKN_120","120","","","","","","null","<button class=""jspsych-btn""><img src=""stimuli/white_square.png"" style=""width: 200px;height: 200px;""></button>","null","darkgreenblue","neonyellow","[""darkgreenblue"",""neonyellow"",""low nameability""]","right-left","[""neonyellow"",""darkgreenblue""]","5","low nameability","49","right","iti",""
"html-button-response","283","286026","0.0-180.0","CKN_120","120","","","","","","1077","","0","pink","mustard","[""pink"",""mustard"",""low nameability""]","right-left","[""mustard"",""pink""]","5","low nameability","50","right","trigger",""
"html-button-response","284","292348","0.0-181.0-0.0","CKN_120","120","","","","","","6308","<button class=""jspsych-btn""><img src=""stimuli/pink.png"" style=""width: 200px;height: 200px;""></button>","1","pink","mustard","[""pink"",""mustard"",""low nameability""]","right-left","[""mustard"",""pink""]","5","low nameability","50","right","response","1"
"html-audio-button-response","285","292576","0.0-181.0-1.0","CKN_120","120","","","","","","null","stimuli/bleep.m4a","null","pink","mustard","[""pink"",""mustard"",""low nameability""]","right-left","[""mustard"",""pink""]","5","low nameability","50","right","audio_feedback","1"
"html-button-response","286","293106","0.0-182.0","CKN_120","120","","","","","","null","<button class=""jspsych-btn""><img src=""stimuli/white_square.png"" style=""width: 200px;height: 200px;""></button>","null","pink","mustard","[""pink"",""mustard"",""low nameability""]","right-left","[""mustard"",""pink""]","5","low nameability","50","right","iti",""
"pavlovia","287","293207","0.0-183.0","CKN_120","120","","","","","","","","","","","","","","","","","","",""
"pavlovia","288","293220","0.0-184.0","CKN_120","120","","","","","","","","","","","","","","","","","","",""
"html-audio-button-response","289","297213","0.0-185.0","CKN_120","120","","","","","","4104","stimuli/tada.m4a","0","","","","","","","","","","",""
"html-button-response","290","298321","0.0-186.0","CKN_120","120","","","","","","1098","","0","","","","","","","","","","",""
"html-button-response","291","299891","0.0-187.0","CKN_120","120","","","","","","1558","","0","red","orange","[""red"",""orange"",""high nameability""]","left-right","[""red"",""orange"",""high nameability""]","6","high nameability","51","left","trigger",""
"html-button-response","292","301021","0.0-188.0-0.0","CKN_120","120","","","","","","1115","<button class=""jspsych-btn""><img src=""stimuli/red.png"" style=""width: 200px;height: 200px;""></button>","1","red","orange","[""red"",""orange"",""high nameability""]","left-right","[""red"",""orange"",""high nameability""]","6","high nameability","51","left","response","0"
"html-audio-button-response","293","301668","0.0-188.0-1.0","CKN_120","120","","","","","","null","stimuli/boing.m4a","null","red","orange","[""red"",""orange"",""high nameability""]","left-right","[""red"",""orange"",""high nameability""]","6","high nameability","51","left","audio_feedback","0"
"html-button-response","294","302122","0.0-188.1-0.1","CKN_120","120","","","","","","404","<button class=""jspsych-btn""><img src=""stimuli/red.png"" style=""width: 200px;height: 200px;""></button>","0","red","orange","[""red"",""orange"",""high nameability""]","left-right","[""red"",""orange"",""high nameability""]","6","high nameability","51","left","response","1"
"html-audio-button-response","295","302328","0.0-188.1-1.1","CKN_120","120","","","","","","null","stimuli/bleep.m4a","null","red","orange","[""red"",""orange"",""high nameability""]","left-right","[""red"",""orange"",""high nameability""]","6","high nameability","51","left","audio_feedback","1"
"html-button-response","296","302849","0.0-189.0","CKN_120","120","","","","","","null","<button class=""jspsych-btn""><img src=""stimuli/white_square.png"" style=""width: 200px;height: 200px;""></button>","null","red","orange","[""red"",""orange"",""high nameability""]","left-right","[""red"",""orange"",""high nameability""]","6","high nameability","51","left","iti",""
"html-button-response","297","304261","0.0-190.0","CKN_120","120","","","","","","1395","","0","brown","red","[""brown"",""red"",""high nameability""]","left-right","[""brown"",""red"",""high nameability""]","6","high nameability","52","left","trigger",""
"html-button-response","298","306184","0.0-191.0-0.0","CKN_120","120","","","","","","1914","<button class=""jspsych-btn""><img src=""stimuli/brown.png"" style=""width: 200px;height: 200px;""></button>","1","brown","red","[""brown"",""red"",""high nameability""]","left-right","[""brown"",""red"",""high nameability""]","6","high nameability","52","left","response","0"
"html-audio-button-response","299","306823","0.0-191.0-1.0","CKN_120","120","","","","","","null","stimuli/boing.m4a","null","brown","red","[""brown"",""red"",""high nameability""]","left-right","[""brown"",""red"",""high nameability""]","6","high nameability","52","left","audio_feedback","0"
"html-button-response","300","307187","0.0-191.1-0.1","CKN_120","120","","","","","","337","<button class=""jspsych-btn""><img src=""stimuli/brown.png"" style=""width: 200px;height: 200px;""></button>","0","brown","red","[""brown"",""red"",""high nameability""]","left-right","[""brown"",""red"",""high nameability""]","6","high nameability","52","left","response","1"
"html-audio-button-response","301","307392","0.0-191.1-1.1","CKN_120","120","","","","","","null","stimuli/bleep.m4a","null","brown","red","[""brown"",""red"",""high nameability""]","left-right","[""brown"",""red"",""high nameability""]","6","high nameability","52","left","audio_feedback","1"
"html-button-response","302","307912","0.0-192.0","CKN_120","120","","","","","","null","<button class=""jspsych-btn""><img src=""stimuli/white_square.png"" style=""width: 200px;height: 200px;""></button>","null","brown","red","[""brown"",""red"",""high nameability""]","left-right","[""brown"",""red"",""high nameability""]","6","high nameability","52","left","iti",""
"html-button-response","303","309566","0.0-193.0","CKN_120","120","","","","","","1641","","0","mustard","turquoise","[""mustard"",""turquoise"",""low nameability""]","left-right","[""mustard"",""turquoise"",""low nameability""]","6","low nameability","53","left","trigger",""
"html-button-response","304","313009","0.0-194.0-0.0","CKN_120","120","","","","","","3434","<button class=""jspsych-btn""><img src=""stimuli/mustard.png"" style=""width: 200px;height: 200px;""></button>","0","mustard","turquoise","[""mustard"",""turquoise"",""low nameability""]","left-right","[""mustard"",""turquoise"",""low nameability""]","6","low nameability","53","left","response","1"
"html-audio-button-response","305","313215","0.0-194.0-1.0","CKN_120","120","","","","","","null","stimuli/bleep.m4a","null","mustard","turquoise","[""mustard"",""turquoise"",""low nameability""]","left-right","[""mustard"",""turquoise"",""low nameability""]","6","low nameability","53","left","audio_feedback","1"
"html-button-response","306","313733","0.0-195.0","CKN_120","120","","","","","","null","<button class=""jspsych-btn""><img src=""stimuli/white_square.png"" style=""width: 200px;height: 200px;""></button>","null","mustard","turquoise","[""mustard"",""turquoise"",""low nameability""]","left-right","[""mustard"",""turquoise"",""low nameability""]","6","low nameability","53","left","iti",""
"html-button-response","307","314627","0.0-196.0","CKN_120","120","","","","","","875","","0","orange","brown","[""orange"",""brown"",""high nameability""]","left-right","[""orange"",""brown"",""high nameability""]","6","high nameability","54","left","trigger",""
"html-button-response","308","315574","0.0-197.0-0.0","CKN_120","120","","","","","","940","<button class=""jspsych-btn""><img src=""stimuli/orange.png"" style=""width: 200px;height: 200px;""></button>","1","orange","brown","[""orange"",""brown"",""high nameability""]","left-right","[""orange"",""brown"",""high nameability""]","6","high nameability","54","left","response","0"
"html-audio-button-response","309","316219","0.0-197.0-1.0","CKN_120","120","","","","","","null","stimuli/boing.m4a","null","orange","brown","[""orange"",""brown"",""high nameability""]","left-right","[""orange"",""brown"",""high nameability""]","6","high nameability","54","left","audio_feedback","0"
"html-button-response","310","317820","0.0-197.1-0.1","CKN_120","120","","","","","","1576","<button class=""jspsych-btn""><img src=""stimuli/orange.png"" style=""width: 200px;height: 200px;""></button>","0","orange","brown","[""orange"",""brown"",""high nameability""]","left-right","[""orange"",""brown"",""high nameability""]","6","high nameability","54","left","response","1"
"html-audio-button-response","311","318032","0.0-197.1-1.1","CKN_120","120","","","","","","null","stimuli/bleep.m4a","null","orange","brown","[""orange"",""brown"",""high nameability""]","left-right","[""orange"",""brown"",""high nameability""]","6","high nameability","54","left","audio_feedback","1"
"html-button-response","312","318546","0.0-198.0","CKN_120","120","","","","","","null","<button class=""jspsych-btn""><img src=""stimuli/white_square.png"" style=""width: 200px;height: 200px;""></button>","null","orange","brown","[""orange"",""brown"",""high nameability""]","left-right","[""orange"",""brown"",""high nameability""]","6","high nameability","54","left","iti",""
"html-button-response","313","320628","0.0-199.0","CKN_120","120","","","","","","2072","","0","yellow","purple","[""yellow"",""purple"",""high nameability""]","left-right","[""yellow"",""purple"",""high nameability""]","6","high nameability","55","left","trigger",""
"html-button-response","314","321455","0.0-200.0-0.0","CKN_120","120","","","","","","819","<button class=""jspsych-btn""><img src=""stimuli/yellow.png"" style=""width: 200px;height: 200px;""></button>","0","yellow","purple","[""yellow"",""purple"",""high nameability""]","left-right","[""yellow"",""purple"",""high nameability""]","6","high nameability","55","left","response","1"
"html-audio-button-response","315","321664","0.0-200.0-1.0","CKN_120","120","","","","","","null","stimuli/bleep.m4a","null","yellow","purple","[""yellow"",""purple"",""high nameability""]","left-right","[""yellow"",""purple"",""high nameability""]","6","high nameability","55","left","audio_feedback","1"
"html-button-response","316","322177","0.0-201.0","CKN_120","120","","","","","","null","<button class=""jspsych-btn""><img src=""stimuli/white_square.png"" style=""width: 200px;height: 200px;""></button>","null","yellow","purple","[""yellow"",""purple"",""high nameability""]","left-right","[""yellow"",""purple"",""high nameability""]","6","high nameability","55","left","iti",""
"html-button-response","317","323237","0.0-202.0","CKN_120","120","","","","","","1042","","0","blue","orange","[""blue"",""orange"",""high nameability""]","right-left","[""orange"",""blue""]","6","high nameability","56","right","trigger",""
"html-button-response","318","324081","0.0-203.0-0.0","CKN_120","120","","","","","","831","<button class=""jspsych-btn""><img src=""stimuli/blue.png"" style=""width: 200px;height: 200px;""></button>","1","blue","orange","[""blue"",""orange"",""high nameability""]","right-left","[""orange"",""blue""]","6","high nameability","56","right","response","1"
"html-audio-button-response","319","324289","0.0-203.0-1.0","CKN_120","120","","","","","","null","stimuli/bleep.m4a","null","blue","orange","[""blue"",""orange"",""high nameability""]","right-left","[""orange"",""blue""]","6","high nameability","56","right","audio_feedback","1"
