"trial_type","trial_index","time_elapsed","internal_node_id","subject_id","seed","success","timeout","failed_images","failed_audio","failed_video","rt","stimulus","response","target","foil","choices","combination_order","choices_in_order","round","condition","trial_counter","target_location","trial_kind","correct"
"pavlovia","0","22","0.0-0.0","CKN_118","118","","","","","","","","","","","","","","","","","","",""
"preload","1","1028","0.0-1.0","CKN_118","118","true","false","[]","[]","[]","","","","","","","","","","","","","",""
"fullscreen","2","3278","0.0-2.0","CKN_118","118","true","","","","","","","","","","","","","","","","","",""
"html-button-response","3","60699","0.0-3.0","CKN_118","118","","","","","","57393","","0","","","","","","","","","","",""
"html-button-response","4","63790","0.0-4.0","CKN_118","118","","","","","","3077","","0","star","square","[""square"",""star""]","left-right","[""square"",""star""]","1","practice","1","right","trigger",""
"html-button-response","5","69005","0.0-5.0-0.0","CKN_118","118","","","","","","5198","<button class=""jspsych-btn""><img src=""stimuli/star.png"" style=""width: 200px;height: 200px;""></button>","1","star","square","[""square"",""star""]","left-right","[""square"",""star""]","1","practice","1","right","response","1"
"html-audio-button-response","6","69217","0.0-5.0-1.0","CKN_118","118","","","","","","null","stimuli/bleep.m4a","null","star","square","[""square"",""star""]","left-right","[""square"",""star""]","1","practice","1","right","audio_feedback","1"
"html-button-response","7","69749","0.0-6.0","CKN_118","118","","","","","","null","<button class=""jspsych-btn""><img src=""stimuli/white_square.png"" style=""width: 200px;height: 200px;""></button>","null","star","square","[""square"",""star""]","left-right","[""square"",""star""]","1","practice","1","right","iti",""
"html-button-response","8","71743","0.0-7.0","CKN_118","118","","","","","","1970","","0","triangle","pentagram","[""triangle"",""pentagram""]","left-right","[""triangle"",""pentagram""]","1","practice","1","left","trigger",""
"html-button-response","9","78976","0.0-8.0-0.0","CKN_118","118","","","","","","7223","<button class=""jspsych-btn""><img src=""stimuli/triangle.png"" style=""width: 200px;height: 200px;""></button>","0","triangle","pentagram","[""triangle"",""pentagram""]","left-right","[""triangle"",""pentagram""]","1","practice","1","left","response","1"
"html-audio-button-response","10","79191","0.0-8.0-1.0","CKN_118","118","","","","","","null","stimuli/bleep.m4a","null","triangle","pentagram","[""triangle"",""pentagram""]","left-right","[""triangle"",""pentagram""]","1","practice","1","left","audio_feedback","1"
"html-button-response","11","79704","0.0-9.0","CKN_118","118","","","","","","null","<button class=""jspsych-btn""><img src=""stimuli/white_square.png"" style=""width: 200px;height: 200px;""></button>","null","triangle","pentagram","[""triangle"",""pentagram""]","left-right","[""triangle"",""pentagram""]","1","practice","1","left","iti",""
"html-button-response","12","81661","0.0-10.0","CKN_118","118","","","","","","1949","","0","diamond","rectangle","[""rectangle"",""diamond""]","left-right","[""rectangle"",""diamond""]","1","practice","1","right","trigger",""
"html-button-response","13","85983","0.0-11.0-0.0","CKN_118","118","","","","","","4312","<button class=""jspsych-btn""><img src=""stimuli/diamond.png"" style=""width: 200px;height: 200px;""></button>","1","diamond","rectangle","[""rectangle"",""diamond""]","left-right","[""rectangle"",""diamond""]","1","practice","1","right","response","1"
"html-audio-button-response","14","86195","0.0-11.0-1.0","CKN_118","118","","","","","","null","stimuli/bleep.m4a","null","diamond","rectangle","[""rectangle"",""diamond""]","left-right","[""rectangle"",""diamond""]","1","practice","1","right","audio_feedback","1"
"html-button-response","15","86710","0.0-12.0","CKN_118","118","","","","","","59","<button class=""jspsych-btn""><img src=""stimuli/white_square.png"" style=""width: 200px;height: 200px;""></button>","1","diamond","rectangle","[""rectangle"",""diamond""]","left-right","[""rectangle"",""diamond""]","1","practice","1","right","iti",""
"html-button-response","16","92532","0.0-13.0","CKN_118","118","","","","","","5814","","0","pentagram","star","[""pentagram"",""star""]","left-right","[""pentagram"",""star""]","1","practice","1","left","trigger",""
"html-button-response","17","96218","0.0-14.0-0.0","CKN_118","118","","","","","","3679","<button class=""jspsych-btn""><img src=""stimuli/pentagram.png"" style=""width: 200px;height: 200px;""></button>","0","pentagram","star","[""pentagram"",""star""]","left-right","[""pentagram"",""star""]","1","practice","1","left","response","1"
"html-audio-button-response","18","96424","0.0-14.0-1.0","CKN_118","118","","","","","","null","stimuli/bleep.m4a","null","pentagram","star","[""pentagram"",""star""]","left-right","[""pentagram"",""star""]","1","practice","1","left","audio_feedback","1"
"html-button-response","19","96936","0.0-15.0","CKN_118","118","","","","","","327","<button class=""jspsych-btn""><img src=""stimuli/white_square.png"" style=""width: 200px;height: 200px;""></button>","0","pentagram","star","[""pentagram"",""star""]","left-right","[""pentagram"",""star""]","1","practice","1","left","iti",""
"html-button-response","20","103120","0.0-16.0","CKN_118","118","","","","","","6168","","0","","","","","","","","","","",""
"html-button-response","21","104679","0.0-17.0","CKN_118","118","","","","","","1548","","0","brown","yellow","[""brown"",""yellow"",""high nameability""]","right-left","[""yellow"",""brown""]","1","high nameability","1","right","trigger",""
"html-button-response","22","108023","0.0-18.0-0.0","CKN_118","118","","","","","","3333","<button class=""jspsych-btn""><img src=""stimuli/brown.png"" style=""width: 200px;height: 200px;""></button>","1","brown","yellow","[""brown"",""yellow"",""high nameability""]","right-left","[""yellow"",""brown""]","1","high nameability","1","right","response","1"
"html-audio-button-response","23","108245","0.0-18.0-1.0","CKN_118","118","","","","","","null","stimuli/bleep.m4a","null","brown","yellow","[""brown"",""yellow"",""high nameability""]","right-left","[""yellow"",""brown""]","1","high nameability","1","right","audio_feedback","1"
"html-button-response","24","108774","0.0-19.0","CKN_118","118","","","","","","null","<button class=""jspsych-btn""><img src=""stimuli/white_square.png"" style=""width: 200px;height: 200px;""></button>","null","brown","yellow","[""brown"",""yellow"",""high nameability""]","right-left","[""yellow"",""brown""]","1","high nameability","1","right","iti",""
"html-button-response","25","110587","0.0-20.0","CKN_118","118","","","","","","1801","","0","blue","brown","[""blue"",""brown"",""high nameability""]","right-left","[""brown"",""blue""]","1","high nameability","2","right","trigger",""
"html-button-response","26","111628","0.0-21.0-0.0","CKN_118","118","","","","","","1034","<button class=""jspsych-btn""><img src=""stimuli/blue.png"" style=""width: 200px;height: 200px;""></button>","1","blue","brown","[""blue"",""brown"",""high nameability""]","right-left","[""brown"",""blue""]","1","high nameability","2","right","response","1"
"html-audio-button-response","27","111832","0.0-21.0-1.0","CKN_118","118","","","","","","null","stimuli/bleep.m4a","null","blue","brown","[""blue"",""brown"",""high nameability""]","right-left","[""brown"",""blue""]","1","high nameability","2","right","audio_feedback","1"
"html-button-response","28","112349","0.0-22.0","CKN_118","118","","","","","","null","<button class=""jspsych-btn""><img src=""stimuli/white_square.png"" style=""width: 200px;height: 200px;""></button>","null","blue","brown","[""blue"",""brown"",""high nameability""]","right-left","[""brown"",""blue""]","1","high nameability","2","right","iti",""
"html-button-response","29","113865","0.0-23.0","CKN_118","118","","","","","","1506","","0","blue","yellow","[""blue"",""yellow"",""high nameability""]","left-right","[""blue"",""yellow"",""high nameability""]","1","high nameability","3","left","trigger",""
"html-button-response","30","115396","0.0-24.0-0.0","CKN_118","118","","","","","","1524","<button class=""jspsych-btn""><img src=""stimuli/blue.png"" style=""width: 200px;height: 200px;""></button>","0","blue","yellow","[""blue"",""yellow"",""high nameability""]","left-right","[""blue"",""yellow"",""high nameability""]","1","high nameability","3","left","response","1"
"html-audio-button-response","31","115600","0.0-24.0-1.0","CKN_118","118","","","","","","null","stimuli/bleep.m4a","null","blue","yellow","[""blue"",""yellow"",""high nameability""]","left-right","[""blue"",""yellow"",""high nameability""]","1","high nameability","3","left","audio_feedback","1"
"html-button-response","32","116118","0.0-25.0","CKN_118","118","","","","","","null","<button class=""jspsych-btn""><img src=""stimuli/white_square.png"" style=""width: 200px;height: 200px;""></button>","null","blue","yellow","[""blue"",""yellow"",""high nameability""]","left-right","[""blue"",""yellow"",""high nameability""]","1","high nameability","3","left","iti",""
"html-button-response","33","118255","0.0-26.0","CKN_118","118","","","","","","2104","","0","turquoise","pink","[""turquoise"",""pink"",""low nameability""]","left-right","[""turquoise"",""pink"",""low nameability""]","1","low nameability","4","left","trigger",""
"html-button-response","34","119298","0.0-27.0-0.0","CKN_118","118","","","","","","1034","<button class=""jspsych-btn""><img src=""stimuli/turquoise.png"" style=""width: 200px;height: 200px;""></button>","0","turquoise","pink","[""turquoise"",""pink"",""low nameability""]","left-right","[""turquoise"",""pink"",""low nameability""]","1","low nameability","4","left","response","1"
"html-audio-button-response","35","119504","0.0-27.0-1.0","CKN_118","118","","","","","","null","stimuli/bleep.m4a","null","turquoise","pink","[""turquoise"",""pink"",""low nameability""]","left-right","[""turquoise"",""pink"",""low nameability""]","1","low nameability","4","left","audio_feedback","1"
"html-button-response","36","120021","0.0-28.0","CKN_118","118","","","","","","null","<button class=""jspsych-btn""><img src=""stimuli/white_square.png"" style=""width: 200px;height: 200px;""></button>","null","turquoise","pink","[""turquoise"",""pink"",""low nameability""]","left-right","[""turquoise"",""pink"",""low nameability""]","1","low nameability","4","left","iti",""
"html-button-response","37","123411","0.0-29.0","CKN_118","118","","","","","","3374","","0","blue","purple","[""blue"",""purple"",""high nameability""]","right-left","[""purple"",""blue""]","1","high nameability","5","right","trigger",""
"html-button-response","38","124994","0.0-30.0-0.0","CKN_118","118","","","","","","1574","<button class=""jspsych-btn""><img src=""stimuli/blue.png"" style=""width: 200px;height: 200px;""></button>","1","blue","purple","[""blue"",""purple"",""high nameability""]","right-left","[""purple"",""blue""]","1","high nameability","5","right","response","1"
"html-audio-button-response","39","125200","0.0-30.0-1.0","CKN_118","118","","","","","","null","stimuli/bleep.m4a","null","blue","purple","[""blue"",""purple"",""high nameability""]","right-left","[""purple"",""blue""]","1","high nameability","5","right","audio_feedback","1"
"html-button-response","40","125721","0.0-31.0","CKN_118","118","","","","","","null","<button class=""jspsych-btn""><img src=""stimuli/white_square.png"" style=""width: 200px;height: 200px;""></button>","null","blue","purple","[""blue"",""purple"",""high nameability""]","right-left","[""purple"",""blue""]","1","high nameability","5","right","iti",""
"html-button-response","41","128046","0.0-32.0","CKN_118","118","","","","","","2307","","0","pink","mustard","[""pink"",""mustard"",""low nameability""]","right-left","[""mustard"",""pink""]","1","low nameability","6","right","trigger",""
"html-button-response","42","129644","0.0-33.0-0.0","CKN_118","118","","","","","","1593","<button class=""jspsych-btn""><img src=""stimuli/pink.png"" style=""width: 200px;height: 200px;""></button>","1","pink","mustard","[""pink"",""mustard"",""low nameability""]","right-left","[""mustard"",""pink""]","1","low nameability","6","right","response","1"
"html-audio-button-response","43","129847","0.0-33.0-1.0","CKN_118","118","","","","","","null","stimuli/bleep.m4a","null","pink","mustard","[""pink"",""mustard"",""low nameability""]","right-left","[""mustard"",""pink""]","1","low nameability","6","right","audio_feedback","1"
"html-button-response","44","130360","0.0-34.0","CKN_118","118","","","","","","null","<button class=""jspsych-btn""><img src=""stimuli/white_square.png"" style=""width: 200px;height: 200px;""></button>","null","pink","mustard","[""pink"",""mustard"",""low nameability""]","right-left","[""mustard"",""pink""]","1","low nameability","6","right","iti",""
"html-button-response","45","134232","0.0-35.0","CKN_118","118","","","","","","3861","","0","turquoise","lightred","[""turquoise"",""lightred"",""low nameability""]","right-left","[""lightred"",""turquoise""]","1","low nameability","7","right","trigger",""
"html-button-response","46","135361","0.0-36.0-0.0","CKN_118","118","","","","","","1121","<button class=""jspsych-btn""><img src=""stimuli/turquoise.png"" style=""width: 200px;height: 200px;""></button>","1","turquoise","lightred","[""turquoise"",""lightred"",""low nameability""]","right-left","[""lightred"",""turquoise""]","1","low nameability","7","right","response","1"
"html-audio-button-response","47","135576","0.0-36.0-1.0","CKN_118","118","","","","","","null","stimuli/bleep.m4a","null","turquoise","lightred","[""turquoise"",""lightred"",""low nameability""]","right-left","[""lightred"",""turquoise""]","1","low nameability","7","right","audio_feedback","1"
"html-button-response","48","136107","0.0-37.0","CKN_118","118","","","","","","null","<button class=""jspsych-btn""><img src=""stimuli/white_square.png"" style=""width: 200px;height: 200px;""></button>","null","turquoise","lightred","[""turquoise"",""lightred"",""low nameability""]","right-left","[""lightred"",""turquoise""]","1","low nameability","7","right","iti",""
"html-button-response","49","137672","0.0-38.0","CKN_118","118","","","","","","1542","","0","yellow","blue","[""yellow"",""blue"",""high nameability""]","left-right","[""yellow"",""blue"",""high nameability""]","1","high nameability","8","left","trigger",""
"html-button-response","50","138550","0.0-39.0-0.0","CKN_118","118","","","","","","866","<button class=""jspsych-btn""><img src=""stimuli/yellow.png"" style=""width: 200px;height: 200px;""></button>","1","yellow","blue","[""yellow"",""blue"",""high nameability""]","left-right","[""yellow"",""blue"",""high nameability""]","1","high nameability","8","left","response","0"
"html-audio-button-response","51","139185","0.0-39.0-1.0","CKN_118","118","","","","","","null","stimuli/boing.m4a","null","yellow","blue","[""yellow"",""blue"",""high nameability""]","left-right","[""yellow"",""blue"",""high nameability""]","1","high nameability","8","left","audio_feedback","0"
"html-button-response","52","141563","0.0-39.1-0.1","CKN_118","118","","","","","","2345","<button class=""jspsych-btn""><img src=""stimuli/yellow.png"" style=""width: 200px;height: 200px;""></button>","0","yellow","blue","[""yellow"",""blue"",""high nameability""]","left-right","[""yellow"",""blue"",""high nameability""]","1","high nameability","8","left","response","1"
"html-audio-button-response","53","141767","0.0-39.1-1.1","CKN_118","118","","","","","","null","stimuli/bleep.m4a","null","yellow","blue","[""yellow"",""blue"",""high nameability""]","left-right","[""yellow"",""blue"",""high nameability""]","1","high nameability","8","left","audio_feedback","1"
"html-button-response","54","142283","0.0-40.0","CKN_118","118","","","","","","null","<button class=""jspsych-btn""><img src=""stimuli/white_square.png"" style=""width: 200px;height: 200px;""></button>","null","yellow","blue","[""yellow"",""blue"",""high nameability""]","left-right","[""yellow"",""blue"",""high nameability""]","1","high nameability","8","left","iti",""
"html-button-response","55","144357","0.0-41.0","CKN_118","118","","","","","","2062","","0","red","blue","[""red"",""blue"",""high nameability""]","right-left","[""blue"",""red""]","1","high nameability","9","right","trigger",""
"html-button-response","56","145626","0.0-42.0-0.0","CKN_118","118","","","","","","1264","<button class=""jspsych-btn""><img src=""stimuli/red.png"" style=""width: 200px;height: 200px;""></button>","1","red","blue","[""red"",""blue"",""high nameability""]","right-left","[""blue"",""red""]","1","high nameability","9","right","response","1"
"html-audio-button-response","57","145830","0.0-42.0-1.0","CKN_118","118","","","","","","null","stimuli/bleep.m4a","null","red","blue","[""red"",""blue"",""high nameability""]","right-left","[""blue"",""red""]","1","high nameability","9","right","audio_feedback","1"
"html-button-response","58","146351","0.0-43.0","CKN_118","118","","","","","","null","<button class=""jspsych-btn""><img src=""stimuli/white_square.png"" style=""width: 200px;height: 200px;""></button>","null","red","blue","[""red"",""blue"",""high nameability""]","right-left","[""blue"",""red""]","1","high nameability","9","right","iti",""
"html-button-response","59","148321","0.0-44.0","CKN_118","118","","","","","","1961","","0","blue","orange","[""blue"",""orange"",""high nameability""]","right-left","[""orange"",""blue""]","1","high nameability","10","right","trigger",""
"html-button-response","60","148968","0.0-45.0-0.0","CKN_118","118","","","","","","641","<button class=""jspsych-btn""><img src=""stimuli/blue.png"" style=""width: 200px;height: 200px;""></button>","1","blue","orange","[""blue"",""orange"",""high nameability""]","right-left","[""orange"",""blue""]","1","high nameability","10","right","response","1"
"html-audio-button-response","61","149173","0.0-45.0-1.0","CKN_118","118","","","","","","null","stimuli/bleep.m4a","null","blue","orange","[""blue"",""orange"",""high nameability""]","right-left","[""orange"",""blue""]","1","high nameability","10","right","audio_feedback","1"
"html-button-response","62","149693","0.0-46.0","CKN_118","118","","","","","","null","<button class=""jspsych-btn""><img src=""stimuli/white_square.png"" style=""width: 200px;height: 200px;""></button>","null","blue","orange","[""blue"",""orange"",""high nameability""]","right-left","[""orange"",""blue""]","1","high nameability","10","right","iti",""
"pavlovia","63","149787","0.0-47.0","CKN_118","118","","","","","","","","","","","","","","","","","","",""
"pavlovia","64","149806","0.0-48.0","CKN_118","118","","","","","","","","","","","","","","","","","","",""
"html-audio-button-response","65","155236","0.0-49.0","CKN_118","118","","","","","","5536","stimuli/tada.m4a","0","","","","","","","","","","",""
"html-button-response","66","155987","0.0-50.0","CKN_118","118","","","","","","741","","0","","","","","","","","","","",""
"html-button-response","67","157404","0.0-51.0","CKN_118","118","","","","","","1407","","0","darkgreenblue","mustard","[""darkgreenblue"",""mustard"",""low nameability""]","left-right","[""darkgreenblue"",""mustard"",""low nameability""]","2","low nameability","11","left","trigger",""
"html-button-response","68","158775","0.0-52.0-0.0","CKN_118","118","","","","","","1359","<button class=""jspsych-btn""><img src=""stimuli/darkgreenblue.png"" style=""width: 200px;height: 200px;""></button>","0","darkgreenblue","mustard","[""darkgreenblue"",""mustard"",""low nameability""]","left-right","[""darkgreenblue"",""mustard"",""low nameability""]","2","low nameability","11","left","response","1"
"html-audio-button-response","69","158995","0.0-52.0-1.0","CKN_118","118","","","","","","null","stimuli/bleep.m4a","null","darkgreenblue","mustard","[""darkgreenblue"",""mustard"",""low nameability""]","left-right","[""darkgreenblue"",""mustard"",""low nameability""]","2","low nameability","11","left","audio_feedback","1"
"html-button-response","70","159532","0.0-53.0","CKN_118","118","","","","","","null","<button class=""jspsych-btn""><img src=""stimuli/white_square.png"" style=""width: 200px;height: 200px;""></button>","null","darkgreenblue","mustard","[""darkgreenblue"",""mustard"",""low nameability""]","left-right","[""darkgreenblue"",""mustard"",""low nameability""]","2","low nameability","11","left","iti",""
"html-button-response","71","160914","0.0-54.0","CKN_118","118","","","","","","1362","","0","neonyellow","darkgreenblue","[""neonyellow"",""darkgreenblue"",""low nameability""]","left-right","[""neonyellow"",""darkgreenblue"",""low nameability""]","2","low nameability","12","left","trigger",""
"html-button-response","72","161912","0.0-55.0-0.0","CKN_118","118","","","","","","979","<button class=""jspsych-btn""><img src=""stimuli/neonyellow.png"" style=""width: 200px;height: 200px;""></button>","0","neonyellow","darkgreenblue","[""neonyellow"",""darkgreenblue"",""low nameability""]","left-right","[""neonyellow"",""darkgreenblue"",""low nameability""]","2","low nameability","12","left","response","1"
"html-audio-button-response","73","162128","0.0-55.0-1.0","CKN_118","118","","","","","","null","stimuli/bleep.m4a","null","neonyellow","darkgreenblue","[""neonyellow"",""darkgreenblue"",""low nameability""]","left-right","[""neonyellow"",""darkgreenblue"",""low nameability""]","2","low nameability","12","left","audio_feedback","1"
"html-button-response","74","162646","0.0-56.0","CKN_118","118","","","","","","null","<button class=""jspsych-btn""><img src=""stimuli/white_square.png"" style=""width: 200px;height: 200px;""></button>","null","neonyellow","darkgreenblue","[""neonyellow"",""darkgreenblue"",""low nameability""]","left-right","[""neonyellow"",""darkgreenblue"",""low nameability""]","2","low nameability","12","left","iti",""
"html-button-response","75","163556","0.0-57.0","CKN_118","118","","","","","","874","","0","mustard","lightred","[""mustard"",""lightred"",""low nameability""]","right-left","[""lightred"",""mustard""]","2","low nameability","13","right","trigger",""
"html-button-response","76","164525","0.0-58.0-0.0","CKN_118","118","","","","","","949","<button class=""jspsych-btn""><img src=""stimuli/mustard.png"" style=""width: 200px;height: 200px;""></button>","1","mustard","lightred","[""mustard"",""lightred"",""low nameability""]","right-left","[""lightred"",""mustard""]","2","low nameability","13","right","response","1"
"html-audio-button-response","77","164741","0.0-58.0-1.0","CKN_118","118","","","","","","null","stimuli/bleep.m4a","null","mustard","lightred","[""mustard"",""lightred"",""low nameability""]","right-left","[""lightred"",""mustard""]","2","low nameability","13","right","audio_feedback","1"
"html-button-response","78","165264","0.0-59.0","CKN_118","118","","","","","","null","<button class=""jspsych-btn""><img src=""stimuli/white_square.png"" style=""width: 200px;height: 200px;""></button>","null","mustard","lightred","[""mustard"",""lightred"",""low nameability""]","right-left","[""lightred"",""mustard""]","2","low nameability","13","right","iti",""
"html-button-response","79","166407","0.0-60.0","CKN_118","118","","","","","","1131","","0","neonyellow","turquoise","[""neonyellow"",""turquoise"",""low nameability""]","left-right","[""neonyellow"",""turquoise"",""low nameability""]","2","low nameability","14","left","trigger",""
"html-button-response","80","167487","0.0-61.0-0.0","CKN_118","118","","","","","","1073","<button class=""jspsych-btn""><img src=""stimuli/neonyellow.png"" style=""width: 200px;height: 200px;""></button>","0","neonyellow","turquoise","[""neonyellow"",""turquoise"",""low nameability""]","left-right","[""neonyellow"",""turquoise"",""low nameability""]","2","low nameability","14","left","response","1"
"html-audio-button-response","81","167698","0.0-61.0-1.0","CKN_118","118","","","","","","null","stimuli/bleep.m4a","null","neonyellow","turquoise","[""neonyellow"",""turquoise"",""low nameability""]","left-right","[""neonyellow"",""turquoise"",""low nameability""]","2","low nameability","14","left","audio_feedback","1"
"html-button-response","82","168214","0.0-62.0","CKN_118","118","","","","","","null","<button class=""jspsych-btn""><img src=""stimuli/white_square.png"" style=""width: 200px;height: 200px;""></button>","null","neonyellow","turquoise","[""neonyellow"",""turquoise"",""low nameability""]","left-right","[""neonyellow"",""turquoise"",""low nameability""]","2","low nameability","14","left","iti",""
"html-button-response","83","169411","0.0-63.0","CKN_118","118","","","","","","1184","","0","orange","blue","[""orange"",""blue"",""high nameability""]","left-right","[""orange"",""blue"",""high nameability""]","2","high nameability","15","left","trigger",""
"html-button-response","84","170572","0.0-64.0-0.0","CKN_118","118","","","","","","1152","<button class=""jspsych-btn""><img src=""stimuli/orange.png"" style=""width: 200px;height: 200px;""></button>","0","orange","blue","[""orange"",""blue"",""high nameability""]","left-right","[""orange"",""blue"",""high nameability""]","2","high nameability","15","left","response","1"
"html-audio-button-response","85","170776","0.0-64.0-1.0","CKN_118","118","","","","","","null","stimuli/bleep.m4a","null","orange","blue","[""orange"",""blue"",""high nameability""]","left-right","[""orange"",""blue"",""high nameability""]","2","high nameability","15","left","audio_feedback","1"
"html-button-response","86","171296","0.0-65.0","CKN_118","118","","","","","","null","<button class=""jspsych-btn""><img src=""stimuli/white_square.png"" style=""width: 200px;height: 200px;""></button>","null","orange","blue","[""orange"",""blue"",""high nameability""]","left-right","[""orange"",""blue"",""high nameability""]","2","high nameability","15","left","iti",""
"html-button-response","87","172428","0.0-66.0","CKN_118","118","","","","","","1118","","0","red","orange","[""red"",""orange"",""high nameability""]","right-left","[""orange"",""red""]","2","high nameability","16","right","trigger",""
"html-button-response","88","173793","0.0-67.0-0.0","CKN_118","118","","","","","","1358","<button class=""jspsych-btn""><img src=""stimuli/red.png"" style=""width: 200px;height: 200px;""></button>","1","red","orange","[""red"",""orange"",""high nameability""]","right-left","[""orange"",""red""]","2","high nameability","16","right","response","1"
"html-audio-button-response","89","173992","0.0-67.0-1.0","CKN_118","118","","","","","","null","stimuli/bleep.m4a","null","red","orange","[""red"",""orange"",""high nameability""]","right-left","[""orange"",""red""]","2","high nameability","16","right","audio_feedback","1"
"html-button-response","90","174516","0.0-68.0","CKN_118","118","","","","","","null","<button class=""jspsych-btn""><img src=""stimuli/white_square.png"" style=""width: 200px;height: 200px;""></button>","null","red","orange","[""red"",""orange"",""high nameability""]","right-left","[""orange"",""red""]","2","high nameability","16","right","iti",""
"html-button-response","91","176029","0.0-69.0","CKN_118","118","","","","","","1500","","0","red","brown","[""red"",""brown"",""high nameability""]","right-left","[""brown"",""red""]","2","high nameability","17","right","trigger",""
"html-button-response","92","177000","0.0-70.0-0.0","CKN_118","118","","","","","","967","<button class=""jspsych-btn""><img src=""stimuli/red.png"" style=""width: 200px;height: 200px;""></button>","1","red","brown","[""red"",""brown"",""high nameability""]","right-left","[""brown"",""red""]","2","high nameability","17","right","response","1"
"html-audio-button-response","93","177212","0.0-70.0-1.0","CKN_118","118","","","","","","null","stimuli/bleep.m4a","null","red","brown","[""red"",""brown"",""high nameability""]","right-left","[""brown"",""red""]","2","high nameability","17","right","audio_feedback","1"
"html-button-response","94","177730","0.0-71.0","CKN_118","118","","","","","","null","<button class=""jspsych-btn""><img src=""stimuli/white_square.png"" style=""width: 200px;height: 200px;""></button>","null","red","brown","[""red"",""brown"",""high nameability""]","right-left","[""brown"",""red""]","2","high nameability","17","right","iti",""
"html-button-response","95","178840","0.0-72.0","CKN_118","118","","","","","","1097","","0","purple","brown","[""purple"",""brown"",""high nameability""]","right-left","[""brown"",""purple""]","2","high nameability","18","right","trigger",""
"html-button-response","96","179768","0.0-73.0-0.0","CKN_118","118","","","","","","923","<button class=""jspsych-btn""><img src=""stimuli/purple.png"" style=""width: 200px;height: 200px;""></button>","1","purple","brown","[""purple"",""brown"",""high nameability""]","right-left","[""brown"",""purple""]","2","high nameability","18","right","response","1"
"html-audio-button-response","97","179975","0.0-73.0-1.0","CKN_118","118","","","","","","null","stimuli/bleep.m4a","null","purple","brown","[""purple"",""brown"",""high nameability""]","right-left","[""brown"",""purple""]","2","high nameability","18","right","audio_feedback","1"
"html-button-response","98","180491","0.0-74.0","CKN_118","118","","","","","","null","<button class=""jspsych-btn""><img src=""stimuli/white_square.png"" style=""width: 200px;height: 200px;""></button>","null","purple","brown","[""purple"",""brown"",""high nameability""]","right-left","[""brown"",""purple""]","2","high nameability","18","right","iti",""
"html-button-response","99","182088","0.0-75.0","CKN_118","118","","","","","","1580","","0","brown","purple","[""brown"",""purple"",""high nameability""]","left-right","[""brown"",""purple"",""high nameability""]","2","high nameability","19","left","trigger",""
"html-button-response","100","183410","0.0-76.0-0.0","CKN_118","118","","","","","","1310","<button class=""jspsych-btn""><img src=""stimuli/brown.png"" style=""width: 200px;height: 200px;""></button>","0","brown","purple","[""brown"",""purple"",""high nameability""]","left-right","[""brown"",""purple"",""high nameability""]","2","high nameability","19","left","response","1"
"html-audio-button-response","101","183620","0.0-76.0-1.0","CKN_118","118","","","","","","null","stimuli/bleep.m4a","null","brown","purple","[""brown"",""purple"",""high nameability""]","left-right","[""brown"",""purple"",""high nameability""]","2","high nameability","19","left","audio_feedback","1"
"html-button-response","102","184152","0.0-77.0","CKN_118","118","","","","","","null","<button class=""jspsych-btn""><img src=""stimuli/white_square.png"" style=""width: 200px;height: 200px;""></button>","null","brown","purple","[""brown"",""purple"",""high nameability""]","left-right","[""brown"",""purple"",""high nameability""]","2","high nameability","19","left","iti",""
"html-button-response","103","185299","0.0-78.0","CKN_118","118","","","","","","1135","","0","turquoise","darkgreenblue","[""turquoise"",""darkgreenblue"",""low nameability""]","left-right","[""turquoise"",""darkgreenblue"",""low nameability""]","2","low nameability","20","left","trigger",""
"html-button-response","104","186213","0.0-79.0-0.0","CKN_118","118","","","","","","905","<button class=""jspsych-btn""><img src=""stimuli/turquoise.png"" style=""width: 200px;height: 200px;""></button>","0","turquoise","darkgreenblue","[""turquoise"",""darkgreenblue"",""low nameability""]","left-right","[""turquoise"",""darkgreenblue"",""low nameability""]","2","low nameability","20","left","response","1"
"html-audio-button-response","105","186424","0.0-79.0-1.0","CKN_118","118","","","","","","null","stimuli/bleep.m4a","null","turquoise","darkgreenblue","[""turquoise"",""darkgreenblue"",""low nameability""]","left-right","[""turquoise"",""darkgreenblue"",""low nameability""]","2","low nameability","20","left","audio_feedback","1"
"html-button-response","106","186938","0.0-80.0","CKN_118","118","","","","","","null","<button class=""jspsych-btn""><img src=""stimuli/white_square.png"" style=""width: 200px;height: 200px;""></button>","null","turquoise","darkgreenblue","[""turquoise"",""darkgreenblue"",""low nameability""]","left-right","[""turquoise"",""darkgreenblue"",""low nameability""]","2","low nameability","20","left","iti",""
"pavlovia","107","187037","0.0-81.0","CKN_118","118","","","","","","","","","","","","","","","","","","",""
"pavlovia","108","187048","0.0-82.0","CKN_118","118","","","","","","","","","","","","","","","","","","",""
"html-audio-button-response","109","191259","0.0-83.0","CKN_118","118","","","","","","4309","stimuli/tada.m4a","0","","","","","","","","","","",""
"html-button-response","110","192021","0.0-84.0","CKN_118","118","","","","","","755","","0","","","","","","","","","","",""
"html-button-response","111","193155","0.0-85.0","CKN_118","118","","","","","","1128","","0","lightred","pink","[""lightred"",""pink"",""low nameability""]","right-left","[""pink"",""lightred""]","3","low nameability","21","right","trigger",""
"html-button-response","112","193514","0.0-86.0-0.0","CKN_118","118","","","","","","348","<button class=""jspsych-btn""><img src=""stimuli/lightred.png"" style=""width: 200px;height: 200px;""></button>","0","lightred","pink","[""lightred"",""pink"",""low nameability""]","right-left","[""pink"",""lightred""]","3","low nameability","21","right","response","0"
"html-audio-button-response","113","194150","0.0-86.0-1.0","CKN_118","118","","","","","","null","stimuli/boing.m4a","null","lightred","pink","[""lightred"",""pink"",""low nameability""]","right-left","[""pink"",""lightred""]","3","low nameability","21","right","audio_feedback","0"
"html-button-response","114","195680","0.0-86.1-0.1","CKN_118","118","","","","","","1515","<button class=""jspsych-btn""><img src=""stimuli/lightred.png"" style=""width: 200px;height: 200px;""></button>","1","lightred","pink","[""lightred"",""pink"",""low nameability""]","right-left","[""pink"",""lightred""]","3","low nameability","21","right","response","1"
"html-audio-button-response","115","195895","0.0-86.1-1.1","CKN_118","118","","","","","","null","stimuli/bleep.m4a","null","lightred","pink","[""lightred"",""pink"",""low nameability""]","right-left","[""pink"",""lightred""]","3","low nameability","21","right","audio_feedback","1"
"html-button-response","116","196425","0.0-87.0","CKN_118","118","","","","","","null","<button class=""jspsych-btn""><img src=""stimuli/white_square.png"" style=""width: 200px;height: 200px;""></button>","null","lightred","pink","[""lightred"",""pink"",""low nameability""]","right-left","[""pink"",""lightred""]","3","low nameability","21","right","iti",""
"html-button-response","117","197481","0.0-88.0","CKN_118","118","","","","","","1045","","0","lightred","neonyellow","[""lightred"",""neonyellow"",""low nameability""]","left-right","[""lightred"",""neonyellow"",""low nameability""]","3","low nameability","22","left","trigger",""
"html-button-response","118","198641","0.0-89.0-0.0","CKN_118","118","","","","","","1155","<button class=""jspsych-btn""><img src=""stimuli/lightred.png"" style=""width: 200px;height: 200px;""></button>","0","lightred","neonyellow","[""lightred"",""neonyellow"",""low nameability""]","left-right","[""lightred"",""neonyellow"",""low nameability""]","3","low nameability","22","left","response","1"
"html-audio-button-response","119","198847","0.0-89.0-1.0","CKN_118","118","","","","","","null","stimuli/bleep.m4a","null","lightred","neonyellow","[""lightred"",""neonyellow"",""low nameability""]","left-right","[""lightred"",""neonyellow"",""low nameability""]","3","low nameability","22","left","audio_feedback","1"
"html-button-response","120","199362","0.0-90.0","CKN_118","118","","","","","","null","<button class=""jspsych-btn""><img src=""stimuli/white_square.png"" style=""width: 200px;height: 200px;""></button>","null","lightred","neonyellow","[""lightred"",""neonyellow"",""low nameability""]","left-right","[""lightred"",""neonyellow"",""low nameability""]","3","low nameability","22","left","iti",""
"html-button-response","121","202223","0.0-91.0","CKN_118","118","","","","","","2847","","0","turquoise","neonyellow","[""turquoise"",""neonyellow"",""low nameability""]","left-right","[""turquoise"",""neonyellow"",""low nameability""]","3","low nameability","23","left","trigger",""
"html-button-response","122","203477","0.0-92.0-0.0","CKN_118","118","","","","","","1246","<button class=""jspsych-btn""><img src=""stimuli/turquoise.png"" style=""width: 200px;height: 200px;""></button>","0","turquoise","neonyellow","[""turquoise"",""neonyellow"",""low nameability""]","left-right","[""turquoise"",""neonyellow"",""low nameability""]","3","low nameability","23","left","response","1"
"html-audio-button-response","123","203680","0.0-92.0-1.0","CKN_118","118","","","","","","null","stimuli/bleep.m4a","null","turquoise","neonyellow","[""turquoise"",""neonyellow"",""low nameability""]","left-right","[""turquoise"",""neonyellow"",""low nameability""]","3","low nameability","23","left","audio_feedback","1"
"html-button-response","124","204198","0.0-93.0","CKN_118","118","","","","","","null","<button class=""jspsych-btn""><img src=""stimuli/white_square.png"" style=""width: 200px;height: 200px;""></button>","null","turquoise","neonyellow","[""turquoise"",""neonyellow"",""low nameability""]","left-right","[""turquoise"",""neonyellow"",""low nameability""]","3","low nameability","23","left","iti",""
"html-button-response","125","205527","0.0-94.0","CKN_118","118","","","","","","1310","","0","red","yellow","[""red"",""yellow"",""high nameability""]","left-right","[""red"",""yellow"",""high nameability""]","3","high nameability","24","left","trigger",""
"html-button-response","126","206491","0.0-95.0-0.0","CKN_118","118","","","","","","958","<button class=""jspsych-btn""><img src=""stimuli/red.png"" style=""width: 200px;height: 200px;""></button>","0","red","yellow","[""red"",""yellow"",""high nameability""]","left-right","[""red"",""yellow"",""high nameability""]","3","high nameability","24","left","response","1"
"html-audio-button-response","127","206687","0.0-95.0-1.0","CKN_118","118","","","","","","null","stimuli/bleep.m4a","null","red","yellow","[""red"",""yellow"",""high nameability""]","left-right","[""red"",""yellow"",""high nameability""]","3","high nameability","24","left","audio_feedback","1"
"html-button-response","128","207198","0.0-96.0","CKN_118","118","","","","","","null","<button class=""jspsych-btn""><img src=""stimuli/white_square.png"" style=""width: 200px;height: 200px;""></button>","null","red","yellow","[""red"",""yellow"",""high nameability""]","left-right","[""red"",""yellow"",""high nameability""]","3","high nameability","24","left","iti",""
"html-button-response","129","208455","0.0-97.0","CKN_118","118","","","","","","1242","","0","mustard","neonyellow","[""mustard"",""neonyellow"",""low nameability""]","right-left","[""neonyellow"",""mustard""]","3","low nameability","25","right","trigger",""
"html-button-response","130","209508","0.0-98.0-0.0","CKN_118","118","","","","","","1047","<button class=""jspsych-btn""><img src=""stimuli/mustard.png"" style=""width: 200px;height: 200px;""></button>","0","mustard","neonyellow","[""mustard"",""neonyellow"",""low nameability""]","right-left","[""neonyellow"",""mustard""]","3","low nameability","25","right","response","0"
"html-audio-button-response","131","210130","0.0-98.0-1.0","CKN_118","118","","","","","","null","stimuli/boing.m4a","null","mustard","neonyellow","[""mustard"",""neonyellow"",""low nameability""]","right-left","[""neonyellow"",""mustard""]","3","low nameability","25","right","audio_feedback","0"
"html-button-response","132","211066","0.0-98.1-0.1","CKN_118","118","","","","","","916","<button class=""jspsych-btn""><img src=""stimuli/mustard.png"" style=""width: 200px;height: 200px;""></button>","1","mustard","neonyellow","[""mustard"",""neonyellow"",""low nameability""]","right-left","[""neonyellow"",""mustard""]","3","low nameability","25","right","response","1"
"html-audio-button-response","133","211263","0.0-98.1-1.1","CKN_118","118","","","","","","null","stimuli/bleep.m4a","null","mustard","neonyellow","[""mustard"",""neonyellow"",""low nameability""]","right-left","[""neonyellow"",""mustard""]","3","low nameability","25","right","audio_feedback","1"
"html-button-response","134","211776","0.0-99.0","CKN_118","118","","","","","","null","<button class=""jspsych-btn""><img src=""stimuli/white_square.png"" style=""width: 200px;height: 200px;""></button>","null","mustard","neonyellow","[""mustard"",""neonyellow"",""low nameability""]","right-left","[""neonyellow"",""mustard""]","3","low nameability","25","right","iti",""
"html-button-response","135","212847","0.0-100.0","CKN_118","118","","","","","","1060","","0","mustard","darkgreenblue","[""mustard"",""darkgreenblue"",""low nameability""]","left-right","[""mustard"",""darkgreenblue"",""low nameability""]","3","low nameability","26","left","trigger",""
"html-button-response","136","213791","0.0-101.0-0.0","CKN_118","118","","","","","","935","<button class=""jspsych-btn""><img src=""stimuli/mustard.png"" style=""width: 200px;height: 200px;""></button>","0","mustard","darkgreenblue","[""mustard"",""darkgreenblue"",""low nameability""]","left-right","[""mustard"",""darkgreenblue"",""low nameability""]","3","low nameability","26","left","response","1"
"html-audio-button-response","137","214009","0.0-101.0-1.0","CKN_118","118","","","","","","null","stimuli/bleep.m4a","null","mustard","darkgreenblue","[""mustard"",""darkgreenblue"",""low nameability""]","left-right","[""mustard"",""darkgreenblue"",""low nameability""]","3","low nameability","26","left","audio_feedback","1"
"html-button-response","138","214532","0.0-102.0","CKN_118","118","","","","","","null","<button class=""jspsych-btn""><img src=""stimuli/white_square.png"" style=""width: 200px;height: 200px;""></button>","null","mustard","darkgreenblue","[""mustard"",""darkgreenblue"",""low nameability""]","left-right","[""mustard"",""darkgreenblue"",""low nameability""]","3","low nameability","26","left","iti",""
"html-button-response","139","215566","0.0-103.0","CKN_118","118","","","","","","1007","","0","brown","red","[""brown"",""red"",""high nameability""]","left-right","[""brown"",""red"",""high nameability""]","3","high nameability","27","left","trigger",""
"html-button-response","140","216822","0.0-104.0-0.0","CKN_118","118","","","","","","1244","<button class=""jspsych-btn""><img src=""stimuli/brown.png"" style=""width: 200px;height: 200px;""></button>","0","brown","red","[""brown"",""red"",""high nameability""]","left-right","[""brown"",""red"",""high nameability""]","3","high nameability","27","left","response","1"
"html-audio-button-response","141","217033","0.0-104.0-1.0","CKN_118","118","","","","","","null","stimuli/bleep.m4a","null","brown","red","[""brown"",""red"",""high nameability""]","left-right","[""brown"",""red"",""high nameability""]","3","high nameability","27","left","audio_feedback","1"
"html-button-response","142","217575","0.0-105.0","CKN_118","118","","","","","","null","<button class=""jspsych-btn""><img src=""stimuli/white_square.png"" style=""width: 200px;height: 200px;""></button>","null","brown","red","[""brown"",""red"",""high nameability""]","left-right","[""brown"",""red"",""high nameability""]","3","high nameability","27","left","iti",""
"html-button-response","143","219429","0.0-106.0","CKN_118","118","","","","","","1838","","0","lightred","mustard","[""lightred"",""mustard"",""low nameability""]","right-left","[""mustard"",""lightred""]","3","low nameability","28","right","trigger",""
"html-button-response","144","220771","0.0-107.0-0.0","CKN_118","118","","","","","","1327","<button class=""jspsych-btn""><img src=""stimuli/lightred.png"" style=""width: 200px;height: 200px;""></button>","1","lightred","mustard","[""lightred"",""mustard"",""low nameability""]","right-left","[""mustard"",""lightred""]","3","low nameability","28","right","response","1"
"html-audio-button-response","145","220976","0.0-107.0-1.0","CKN_118","118","","","","","","null","stimuli/bleep.m4a","null","lightred","mustard","[""lightred"",""mustard"",""low nameability""]","right-left","[""mustard"",""lightred""]","3","low nameability","28","right","audio_feedback","1"
"html-button-response","146","221505","0.0-108.0","CKN_118","118","","","","","","null","<button class=""jspsych-btn""><img src=""stimuli/white_square.png"" style=""width: 200px;height: 200px;""></button>","null","lightred","mustard","[""lightred"",""mustard"",""low nameability""]","right-left","[""mustard"",""lightred""]","3","low nameability","28","right","iti",""
"html-button-response","147","222484","0.0-109.0","CKN_118","118","","","","","","959","","0","red","purple","[""red"",""purple"",""high nameability""]","right-left","[""purple"",""red""]","3","high nameability","29","right","trigger",""
"html-button-response","148","223555","0.0-110.0-0.0","CKN_118","118","","","","","","1058","<button class=""jspsych-btn""><img src=""stimuli/red.png"" style=""width: 200px;height: 200px;""></button>","1","red","purple","[""red"",""purple"",""high nameability""]","right-left","[""purple"",""red""]","3","high nameability","29","right","response","1"
"html-audio-button-response","149","223760","0.0-110.0-1.0","CKN_118","118","","","","","","null","stimuli/bleep.m4a","null","red","purple","[""red"",""purple"",""high nameability""]","right-left","[""purple"",""red""]","3","high nameability","29","right","audio_feedback","1"
"html-button-response","150","224275","0.0-111.0","CKN_118","118","","","","","","null","<button class=""jspsych-btn""><img src=""stimuli/white_square.png"" style=""width: 200px;height: 200px;""></button>","null","red","purple","[""red"",""purple"",""high nameability""]","right-left","[""purple"",""red""]","3","high nameability","29","right","iti",""
"html-button-response","151","224907","0.0-112.0","CKN_118","118","","","","","","616","","0","purple","red","[""purple"",""red"",""high nameability""]","left-right","[""purple"",""red"",""high nameability""]","3","high nameability","30","left","trigger",""
"html-button-response","152","225627","0.0-113.0-0.0","CKN_118","118","","","","","","714","<button class=""jspsych-btn""><img src=""stimuli/purple.png"" style=""width: 200px;height: 200px;""></button>","1","purple","red","[""purple"",""red"",""high nameability""]","left-right","[""purple"",""red"",""high nameability""]","3","high nameability","30","left","response","0"
"html-audio-button-response","153","226266","0.0-113.0-1.0","CKN_118","118","","","","","","null","stimuli/boing.m4a","null","purple","red","[""purple"",""red"",""high nameability""]","left-right","[""purple"",""red"",""high nameability""]","3","high nameability","30","left","audio_feedback","0"
"html-button-response","154","227159","0.0-113.1-0.1","CKN_118","118","","","","","","858","<button class=""jspsych-btn""><img src=""stimuli/purple.png"" style=""width: 200px;height: 200px;""></button>","0","purple","red","[""purple"",""red"",""high nameability""]","left-right","[""purple"",""red"",""high nameability""]","3","high nameability","30","left","response","1"
"html-audio-button-response","155","227365","0.0-113.1-1.1","CKN_118","118","","","","","","null","stimuli/bleep.m4a","null","purple","red","[""purple"",""red"",""high nameability""]","left-right","[""purple"",""red"",""high nameability""]","3","high nameability","30","left","audio_feedback","1"
"html-button-response","156","227879","0.0-114.0","CKN_118","118","","","","","","null","<button class=""jspsych-btn""><img src=""stimuli/white_square.png"" style=""width: 200px;height: 200px;""></button>","null","purple","red","[""purple"",""red"",""high nameability""]","left-right","[""purple"",""red"",""high nameability""]","3","high nameability","30","left","iti",""
"pavlovia","157","227999","0.0-115.0","CKN_118","118","","","","","","","","","","","","","","","","","","",""
"pavlovia","158","228016","0.0-116.0","CKN_118","118","","","","","","","","","","","","","","","","","","",""
"html-audio-button-response","159","232609","0.0-117.0","CKN_118","118","","","","","","4728","stimuli/tada.m4a","0","","","","","","","","","","",""
"html-button-response","160","233077","0.0-118.0","CKN_118","118","","","","","","463","","0","","","","","","","","","","",""
"html-button-response","161","234321","0.0-119.0","CKN_118","118","","","","","","1238","","0","orange","brown","[""orange"",""brown"",""high nameability""]","left-right","[""orange"",""brown"",""high nameability""]","4","high nameability","31","left","trigger",""
"html-button-response","162","235270","0.0-120.0-0.0","CKN_118","118","","","","","","942","<button class=""jspsych-btn""><img src=""stimuli/orange.png"" style=""width: 200px;height: 200px;""></button>","0","orange","brown","[""orange"",""brown"",""high nameability""]","left-right","[""orange"",""brown"",""high nameability""]","4","high nameability","31","left","response","1"
"html-audio-button-response","163","235472","0.0-120.0-1.0","CKN_118","118","","","","","","null","stimuli/bleep.m4a","null","orange","brown","[""orange"",""brown"",""high nameability""]","left-right","[""orange"",""brown"",""high nameability""]","4","high nameability","31","left","audio_feedback","1"
"html-button-response","164","235992","0.0-121.0","CKN_118","118","","","","","","null","<button class=""jspsych-btn""><img src=""stimuli/white_square.png"" style=""width: 200px;height: 200px;""></button>","null","orange","brown","[""orange"",""brown"",""high nameability""]","left-right","[""orange"",""brown"",""high nameability""]","4","high nameability","31","left","iti",""
"html-button-response","165","236701","0.0-122.0","CKN_118","118","","","","","","701","","0","lightred","turquoise","[""lightred"",""turquoise"",""low nameability""]","right-left","[""turquoise"",""lightred""]","4","low nameability","32","right","trigger",""
"html-button-response","166","237909","0.0-123.0-0.0","CKN_118","118","","","","","","1201","<button class=""jspsych-btn""><img src=""stimuli/lightred.png"" style=""width: 200px;height: 200px;""></button>","1","lightred","turquoise","[""lightred"",""turquoise"",""low nameability""]","right-left","[""turquoise"",""lightred""]","4","low nameability","32","right","response","1"
"html-audio-button-response","167","238111","0.0-123.0-1.0","CKN_118","118","","","","","","null","stimuli/bleep.m4a","null","lightred","turquoise","[""lightred"",""turquoise"",""low nameability""]","right-left","[""turquoise"",""lightred""]","4","low nameability","32","right","audio_feedback","1"
"html-button-response","168","238624","0.0-124.0","CKN_118","118","","","","","","null","<button class=""jspsych-btn""><img src=""stimuli/white_square.png"" style=""width: 200px;height: 200px;""></button>","null","lightred","turquoise","[""lightred"",""turquoise"",""low nameability""]","right-left","[""turquoise"",""lightred""]","4","low nameability","32","right","iti",""
"html-button-response","169","239011","0.0-125.0","CKN_118","118","","","","","","373","","0","brown","orange","[""brown"",""orange"",""high nameability""]","left-right","[""brown"",""orange"",""high nameability""]","4","high nameability","33","left","trigger",""
"html-button-response","170","240007","0.0-126.0-0.0","CKN_118","118","","","","","","989","<button class=""jspsych-btn""><img src=""stimuli/brown.png"" style=""width: 200px;height: 200px;""></button>","0","brown","orange","[""brown"",""orange"",""high nameability""]","left-right","[""brown"",""orange"",""high nameability""]","4","high nameability","33","left","response","1"
"html-audio-button-response","171","240214","0.0-126.0-1.0","CKN_118","118","","","","","","null","stimuli/bleep.m4a","null","brown","orange","[""brown"",""orange"",""high nameability""]","left-right","[""brown"",""orange"",""high nameability""]","4","high nameability","33","left","audio_feedback","1"
"html-button-response","172","240754","0.0-127.0","CKN_118","118","","","","","","null","<button class=""jspsych-btn""><img src=""stimuli/white_square.png"" style=""width: 200px;height: 200px;""></button>","null","brown","orange","[""brown"",""orange"",""high nameability""]","left-right","[""brown"",""orange"",""high nameability""]","4","high nameability","33","left","iti",""
"html-button-response","173","240948","0.0-128.0","CKN_118","118","","","","","","180","","0","pink","turquoise","[""pink"",""turquoise"",""low nameability""]","right-left","[""turquoise"",""pink""]","4","low nameability","34","right","trigger",""
"html-button-response","174","241964","0.0-129.0-0.0","CKN_118","118","","","","","","1007","<button class=""jspsych-btn""><img src=""stimuli/pink.png"" style=""width: 200px;height: 200px;""></button>","1","pink","turquoise","[""pink"",""turquoise"",""low nameability""]","right-left","[""turquoise"",""pink""]","4","low nameability","34","right","response","1"
"html-audio-button-response","175","242167","0.0-129.0-1.0","CKN_118","118","","","","","","null","stimuli/bleep.m4a","null","pink","turquoise","[""pink"",""turquoise"",""low nameability""]","right-left","[""turquoise"",""pink""]","4","low nameability","34","right","audio_feedback","1"
"html-button-response","176","242685","0.0-130.0","CKN_118","118","","","","","","null","<button class=""jspsych-btn""><img src=""stimuli/white_square.png"" style=""width: 200px;height: 200px;""></button>","null","pink","turquoise","[""pink"",""turquoise"",""low nameability""]","right-left","[""turquoise"",""pink""]","4","low nameability","34","right","iti",""
"html-button-response","177","242831","0.0-131.0","CKN_118","118","","","","","","134","","0","neonyellow","pink","[""neonyellow"",""pink"",""low nameability""]","right-left","[""pink"",""neonyellow""]","4","low nameability","35","right","trigger",""
"html-button-response","178","244304","0.0-132.0-0.0","CKN_118","118","","","","","","1468","<button class=""jspsych-btn""><img src=""stimuli/neonyellow.png"" style=""width: 200px;height: 200px;""></button>","1","neonyellow","pink","[""neonyellow"",""pink"",""low nameability""]","right-left","[""pink"",""neonyellow""]","4","low nameability","35","right","response","1"
"html-audio-button-response","179","244509","0.0-132.0-1.0","CKN_118","118","","","","","","null","stimuli/bleep.m4a","null","neonyellow","pink","[""neonyellow"",""pink"",""low nameability""]","right-left","[""pink"",""neonyellow""]","4","low nameability","35","right","audio_feedback","1"
"html-button-response","180","245020","0.0-133.0","CKN_118","118","","","","","","null","<button class=""jspsych-btn""><img src=""stimuli/white_square.png"" style=""width: 200px;height: 200px;""></button>","null","neonyellow","pink","[""neonyellow"",""pink"",""low nameability""]","right-left","[""pink"",""neonyellow""]","4","low nameability","35","right","iti",""
"html-button-response","181","246796","0.0-134.0","CKN_118","118","","","","","","1765","","0","mustard","turquoise","[""mustard"",""turquoise"",""low nameability""]","right-left","[""turquoise"",""mustard""]","4","low nameability","36","right","trigger",""
"html-button-response","182","247622","0.0-135.0-0.0","CKN_118","118","","","","","","820","<button class=""jspsych-btn""><img src=""stimuli/mustard.png"" style=""width: 200px;height: 200px;""></button>","0","mustard","turquoise","[""mustard"",""turquoise"",""low nameability""]","right-left","[""turquoise"",""mustard""]","4","low nameability","36","right","response","0"
"html-audio-button-response","183","248249","0.0-135.0-1.0","CKN_118","118","","","","","","null","stimuli/boing.m4a","null","mustard","turquoise","[""mustard"",""turquoise"",""low nameability""]","right-left","[""turquoise"",""mustard""]","4","low nameability","36","right","audio_feedback","0"
"html-button-response","184","248868","0.0-135.1-0.1","CKN_118","118","","","","","","602","<button class=""jspsych-btn""><img src=""stimuli/mustard.png"" style=""width: 200px;height: 200px;""></button>","1","mustard","turquoise","[""mustard"",""turquoise"",""low nameability""]","right-left","[""turquoise"",""mustard""]","4","low nameability","36","right","response","1"
"html-audio-button-response","185","249071","0.0-135.1-1.1","CKN_118","118","","","","","","null","stimuli/bleep.m4a","null","mustard","turquoise","[""mustard"",""turquoise"",""low nameability""]","right-left","[""turquoise"",""mustard""]","4","low nameability","36","right","audio_feedback","1"
"html-button-response","186","249576","0.0-136.0","CKN_118","118","","","","","","null","<button class=""jspsych-btn""><img src=""stimuli/white_square.png"" style=""width: 200px;height: 200px;""></button>","null","mustard","turquoise","[""mustard"",""turquoise"",""low nameability""]","right-left","[""turquoise"",""mustard""]","4","low nameability","36","right","iti",""
"html-button-response","187","252495","0.0-137.0","CKN_118","118","","","","","","2910","","0","darkgreenblue","pink","[""darkgreenblue"",""pink"",""low nameability""]","right-left","[""pink"",""darkgreenblue""]","4","low nameability","37","right","trigger",""
"html-button-response","188","254509","0.0-138.0-0.0","CKN_118","118","","","","","","2009","<button class=""jspsych-btn""><img src=""stimuli/darkgreenblue.png"" style=""width: 200px;height: 200px;""></button>","1","darkgreenblue","pink","[""darkgreenblue"",""pink"",""low nameability""]","right-left","[""pink"",""darkgreenblue""]","4","low nameability","37","right","response","1"
"html-audio-button-response","189","254711","0.0-138.0-1.0","CKN_118","118","","","","","","null","stimuli/bleep.m4a","null","darkgreenblue","pink","[""darkgreenblue"",""pink"",""low nameability""]","right-left","[""pink"",""darkgreenblue""]","4","low nameability","37","right","audio_feedback","1"
"html-button-response","190","255227","0.0-139.0","CKN_118","118","","","","","","null","<button class=""jspsych-btn""><img src=""stimuli/white_square.png"" style=""width: 200px;height: 200px;""></button>","null","darkgreenblue","pink","[""darkgreenblue"",""pink"",""low nameability""]","right-left","[""pink"",""darkgreenblue""]","4","low nameability","37","right","iti",""
"html-button-response","191","256042","0.0-140.0","CKN_118","118","","","","","","791","","0","yellow","brown","[""yellow"",""brown"",""high nameability""]","left-right","[""yellow"",""brown"",""high nameability""]","4","high nameability","38","left","trigger",""
"html-button-response","192","257685","0.0-141.0-0.0","CKN_118","118","","","","","","1638","<button class=""jspsych-btn""><img src=""stimuli/yellow.png"" style=""width: 200px;height: 200px;""></button>","0","yellow","brown","[""yellow"",""brown"",""high nameability""]","left-right","[""yellow"",""brown"",""high nameability""]","4","high nameability","38","left","response","1"
"html-audio-button-response","193","257888","0.0-141.0-1.0","CKN_118","118","","","","","","null","stimuli/bleep.m4a","null","yellow","brown","[""yellow"",""brown"",""high nameability""]","left-right","[""yellow"",""brown"",""high nameability""]","4","high nameability","38","left","audio_feedback","1"
"html-button-response","194","258409","0.0-142.0","CKN_118","118","","","","","","null","<button class=""jspsych-btn""><img src=""stimuli/white_square.png"" style=""width: 200px;height: 200px;""></button>","null","yellow","brown","[""yellow"",""brown"",""high nameability""]","left-right","[""yellow"",""brown"",""high nameability""]","4","high nameability","38","left","iti",""
"html-button-response","195","259017","0.0-143.0","CKN_118","118","","","","","","595","","0","neonyellow","lightred","[""neonyellow"",""lightred"",""low nameability""]","right-left","[""lightred"",""neonyellow""]","4","low nameability","39","right","trigger",""
"html-button-response","196","260186","0.0-144.0-0.0","CKN_118","118","","","","","","1161","<button class=""jspsych-btn""><img src=""stimuli/neonyellow.png"" style=""width: 200px;height: 200px;""></button>","1","neonyellow","lightred","[""neonyellow"",""lightred"",""low nameability""]","right-left","[""lightred"",""neonyellow""]","4","low nameability","39","right","response","1"
"html-audio-button-response","197","260390","0.0-144.0-1.0","CKN_118","118","","","","","","null","stimuli/bleep.m4a","null","neonyellow","lightred","[""neonyellow"",""lightred"",""low nameability""]","right-left","[""lightred"",""neonyellow""]","4","low nameability","39","right","audio_feedback","1"
"html-button-response","198","260904","0.0-145.0","CKN_118","118","","","","","","null","<button class=""jspsych-btn""><img src=""stimuli/white_square.png"" style=""width: 200px;height: 200px;""></button>","null","neonyellow","lightred","[""neonyellow"",""lightred"",""low nameability""]","right-left","[""lightred"",""neonyellow""]","4","low nameability","39","right","iti",""
"html-button-response","199","261914","0.0-146.0","CKN_118","118","","","","","","995","","0","mustard","pink","[""mustard"",""pink"",""low nameability""]","right-left","[""pink"",""mustard""]","4","low nameability","40","right","trigger",""
"html-button-response","200","263123","0.0-147.0-0.0","CKN_118","118","","","","","","1202","<button class=""jspsych-btn""><img src=""stimuli/mustard.png"" style=""width: 200px;height: 200px;""></button>","1","mustard","pink","[""mustard"",""pink"",""low nameability""]","right-left","[""pink"",""mustard""]","4","low nameability","40","right","response","1"
"html-audio-button-response","201","263328","0.0-147.0-1.0","CKN_118","118","","","","","","null","stimuli/bleep.m4a","null","mustard","pink","[""mustard"",""pink"",""low nameability""]","right-left","[""pink"",""mustard""]","4","low nameability","40","right","audio_feedback","1"
"html-button-response","202","263838","0.0-148.0","CKN_118","118","","","","","","null","<button class=""jspsych-btn""><img src=""stimuli/white_square.png"" style=""width: 200px;height: 200px;""></button>","null","mustard","pink","[""mustard"",""pink"",""low nameability""]","right-left","[""pink"",""mustard""]","4","low nameability","40","right","iti",""
"pavlovia","203","263935","0.0-149.0","CKN_118","118","","","","","","","","","","","","","","","","","","",""
"pavlovia","204","263943","0.0-150.0","CKN_118","118","","","","","","","","","","","","","","","","","","",""
"html-audio-button-response","205","267638","0.0-151.0","CKN_118","118","","","","","","3797","stimuli/tada.m4a","0","","","","","","","","","","",""
"html-button-response","206","268262","0.0-152.0","CKN_118","118","","","","","","619","","0","","","","","","","","","","",""
"html-button-response","207","272182","0.0-153.0","CKN_118","118","","","","","","3913","","0","yellow","purple","[""yellow"",""purple"",""high nameability""]","right-left","[""purple"",""yellow""]","5","high nameability","41","right","trigger",""
"html-button-response","208","273216","0.0-154.0-0.0","CKN_118","118","","","","","","1027","<button class=""jspsych-btn""><img src=""stimuli/yellow.png"" style=""width: 200px;height: 200px;""></button>","1","yellow","purple","[""yellow"",""purple"",""high nameability""]","right-left","[""purple"",""yellow""]","5","high nameability","41","right","response","1"
"html-audio-button-response","209","273426","0.0-154.0-1.0","CKN_118","118","","","","","","null","stimuli/bleep.m4a","null","yellow","purple","[""yellow"",""purple"",""high nameability""]","right-left","[""purple"",""yellow""]","5","high nameability","41","right","audio_feedback","1"
"html-button-response","210","273945","0.0-155.0","CKN_118","118","","","","","","null","<button class=""jspsych-btn""><img src=""stimuli/white_square.png"" style=""width: 200px;height: 200px;""></button>","null","yellow","purple","[""yellow"",""purple"",""high nameability""]","right-left","[""purple"",""yellow""]","5","high nameability","41","right","iti",""
"html-button-response","211","274624","0.0-156.0","CKN_118","118","","","","","","664","","0","neonyellow","mustard","[""neonyellow"",""mustard"",""low nameability""]","left-right","[""neonyellow"",""mustard"",""low nameability""]","5","low nameability","42","left","trigger",""
"html-button-response","212","276416","0.0-157.0-0.0","CKN_118","118","","","","","","1784","<button class=""jspsych-btn""><img src=""stimuli/neonyellow.png"" style=""width: 200px;height: 200px;""></button>","0","neonyellow","mustard","[""neonyellow"",""mustard"",""low nameability""]","left-right","[""neonyellow"",""mustard"",""low nameability""]","5","low nameability","42","left","response","1"
"html-audio-button-response","213","276639","0.0-157.0-1.0","CKN_118","118","","","","","","null","stimuli/bleep.m4a","null","neonyellow","mustard","[""neonyellow"",""mustard"",""low nameability""]","left-right","[""neonyellow"",""mustard"",""low nameability""]","5","low nameability","42","left","audio_feedback","1"
"html-button-response","214","277158","0.0-158.0","CKN_118","118","","","","","","null","<button class=""jspsych-btn""><img src=""stimuli/white_square.png"" style=""width: 200px;height: 200px;""></button>","null","neonyellow","mustard","[""neonyellow"",""mustard"",""low nameability""]","left-right","[""neonyellow"",""mustard"",""low nameability""]","5","low nameability","42","left","iti",""
"html-button-response","215","278004","0.0-159.0","CKN_118","118","","","","","","831","","0","yellow","red","[""yellow"",""red"",""high nameability""]","left-right","[""yellow"",""red"",""high nameability""]","5","high nameability","43","left","trigger",""
"html-button-response","216","279206","0.0-160.0-0.0","CKN_118","118","","","","","","1191","<button class=""jspsych-btn""><img src=""stimuli/yellow.png"" style=""width: 200px;height: 200px;""></button>","0","yellow","red","[""yellow"",""red"",""high nameability""]","left-right","[""yellow"",""red"",""high nameability""]","5","high nameability","43","left","response","1"
"html-audio-button-response","217","279432","0.0-160.0-1.0","CKN_118","118","","","","","","null","stimuli/bleep.m4a","null","yellow","red","[""yellow"",""red"",""high nameability""]","left-right","[""yellow"",""red"",""high nameability""]","5","high nameability","43","left","audio_feedback","1"
"html-button-response","218","279982","0.0-161.0","CKN_118","118","","","","","","null","<button class=""jspsych-btn""><img src=""stimuli/white_square.png"" style=""width: 200px;height: 200px;""></button>","null","yellow","red","[""yellow"",""red"",""high nameability""]","left-right","[""yellow"",""red"",""high nameability""]","5","high nameability","43","left","iti",""
"html-button-response","219","280480","0.0-162.0","CKN_118","118","","","","","","471","","0","orange","yellow","[""orange"",""yellow"",""high nameability""]","left-right","[""orange"",""yellow"",""high nameability""]","5","high nameability","44","left","trigger",""
"html-button-response","220","281729","0.0-163.0-0.0","CKN_118","118","","","","","","1236","<button class=""jspsych-btn""><img src=""stimuli/orange.png"" style=""width: 200px;height: 200px;""></button>","0","orange","yellow","[""orange"",""yellow"",""high nameability""]","left-right","[""orange"",""yellow"",""high nameability""]","5","high nameability","44","left","response","1"
"html-audio-button-response","221","281943","0.0-163.0-1.0","CKN_118","118","","","","","","null","stimuli/bleep.m4a","null","orange","yellow","[""orange"",""yellow"",""high nameability""]","left-right","[""orange"",""yellow"",""high nameability""]","5","high nameability","44","left","audio_feedback","1"
"html-button-response","222","282463","0.0-164.0","CKN_118","118","","","","","","null","<button class=""jspsych-btn""><img src=""stimuli/white_square.png"" style=""width: 200px;height: 200px;""></button>","null","orange","yellow","[""orange"",""yellow"",""high nameability""]","left-right","[""orange"",""yellow"",""high nameability""]","5","high nameability","44","left","iti",""
"html-button-response","223","282850","0.0-165.0","CKN_118","118","","","","","","371","","0","blue","red","[""blue"",""red"",""high nameability""]","right-left","[""red"",""blue""]","5","high nameability","45","right","trigger",""
"html-button-response","224","283995","0.0-166.0-0.0","CKN_118","118","","","","","","1134","<button class=""jspsych-btn""><img src=""stimuli/blue.png"" style=""width: 200px;height: 200px;""></button>","1","blue","red","[""blue"",""red"",""high nameability""]","right-left","[""red"",""blue""]","5","high nameability","45","right","response","1"
"html-audio-button-response","225","284209","0.0-166.0-1.0","CKN_118","118","","","","","","null","stimuli/bleep.m4a","null","blue","red","[""blue"",""red"",""high nameability""]","right-left","[""red"",""blue""]","5","high nameability","45","right","audio_feedback","1"
"html-button-response","226","284735","0.0-167.0","CKN_118","118","","","","","","null","<button class=""jspsych-btn""><img src=""stimuli/white_square.png"" style=""width: 200px;height: 200px;""></button>","null","blue","red","[""blue"",""red"",""high nameability""]","right-left","[""red"",""blue""]","5","high nameability","45","right","iti",""
"html-button-response","227","285042","0.0-168.0","CKN_118","118","","","","","","290","","0","yellow","orange","[""yellow"",""orange"",""high nameability""]","left-right","[""yellow"",""orange"",""high nameability""]","5","high nameability","46","left","trigger",""
"html-button-response","228","286492","0.0-169.0-0.0","CKN_118","118","","","","","","1437","<button class=""jspsych-btn""><img src=""stimuli/yellow.png"" style=""width: 200px;height: 200px;""></button>","0","yellow","orange","[""yellow"",""orange"",""high nameability""]","left-right","[""yellow"",""orange"",""high nameability""]","5","high nameability","46","left","response","1"
"html-audio-button-response","229","286708","0.0-169.0-1.0","CKN_118","118","","","","","","null","stimuli/bleep.m4a","null","yellow","orange","[""yellow"",""orange"",""high nameability""]","left-right","[""yellow"",""orange"",""high nameability""]","5","high nameability","46","left","audio_feedback","1"
"html-button-response","230","287236","0.0-170.0","CKN_118","118","","","","","","null","<button class=""jspsych-btn""><img src=""stimuli/white_square.png"" style=""width: 200px;height: 200px;""></button>","null","yellow","orange","[""yellow"",""orange"",""high nameability""]","left-right","[""yellow"",""orange"",""high nameability""]","5","high nameability","46","left","iti",""
"html-button-response","231","287567","0.0-171.0","CKN_118","118","","","","","","317","","0","darkgreenblue","turquoise","[""darkgreenblue"",""turquoise"",""low nameability""]","left-right","[""darkgreenblue"",""turquoise"",""low nameability""]","5","low nameability","47","left","trigger",""
"html-button-response","232","288750","0.0-172.0-0.0","CKN_118","118","","","","","","1176","<button class=""jspsych-btn""><img src=""stimuli/darkgreenblue.png"" style=""width: 200px;height: 200px;""></button>","0","darkgreenblue","turquoise","[""darkgreenblue"",""turquoise"",""low nameability""]","left-right","[""darkgreenblue"",""turquoise"",""low nameability""]","5","low nameability","47","left","response","1"
"html-audio-button-response","233","288952","0.0-172.0-1.0","CKN_118","118","","","","","","null","stimuli/bleep.m4a","null","darkgreenblue","turquoise","[""darkgreenblue"",""turquoise"",""low nameability""]","left-right","[""darkgreenblue"",""turquoise"",""low nameability""]","5","low nameability","47","left","audio_feedback","1"
"html-button-response","234","289478","0.0-173.0","CKN_118","118","","","","","","null","<button class=""jspsych-btn""><img src=""stimuli/white_square.png"" style=""width: 200px;height: 200px;""></button>","null","darkgreenblue","turquoise","[""darkgreenblue"",""turquoise"",""low nameability""]","left-right","[""darkgreenblue"",""turquoise"",""low nameability""]","5","low nameability","47","left","iti",""
"html-button-response","235","290128","0.0-174.0","CKN_118","118","","","","","","631","","0","orange","red","[""orange"",""red"",""high nameability""]","left-right","[""orange"",""red"",""high nameability""]","5","high nameability","48","left","trigger",""
"html-button-response","236","290909","0.0-175.0-0.0","CKN_118","118","","","","","","774","<button class=""jspsych-btn""><img src=""stimuli/orange.png"" style=""width: 200px;height: 200px;""></button>","0","orange","red","[""orange"",""red"",""high nameability""]","left-right","[""orange"",""red"",""high nameability""]","5","high nameability","48","left","response","1"
"html-audio-button-response","237","291112","0.0-175.0-1.0","CKN_118","118","","","","","","null","stimuli/bleep.m4a","null","orange","red","[""orange"",""red"",""high nameability""]","left-right","[""orange"",""red"",""high nameability""]","5","high nameability","48","left","audio_feedback","1"
"html-button-response","238","291632","0.0-176.0","CKN_118","118","","","","","","null","<button class=""jspsych-btn""><img src=""stimuli/white_square.png"" style=""width: 200px;height: 200px;""></button>","null","orange","red","[""orange"",""red"",""high nameability""]","left-right","[""orange"",""red"",""high nameability""]","5","high nameability","48","left","iti",""
"html-button-response","239","293462","0.0-177.0","CKN_118","118","","","","","","1820","","0","lightred","darkgreenblue","[""lightred"",""darkgreenblue"",""low nameability""]","left-right","[""lightred"",""darkgreenblue"",""low nameability""]","5","low nameability","49","left","trigger",""
"html-button-response","240","294746","0.0-178.0-0.0","CKN_118","118","","","","","","1277","<button class=""jspsych-btn""><img src=""stimuli/lightred.png"" style=""width: 200px;height: 200px;""></button>","0","lightred","darkgreenblue","[""lightred"",""darkgreenblue"",""low nameability""]","left-right","[""lightred"",""darkgreenblue"",""low nameability""]","5","low nameability","49","left","response","1"
"html-audio-button-response","241","294960","0.0-178.0-1.0","CKN_118","118","","","","","","null","stimuli/bleep.m4a","null","lightred","darkgreenblue","[""lightred"",""darkgreenblue"",""low nameability""]","left-right","[""lightred"",""darkgreenblue"",""low nameability""]","5","low nameability","49","left","audio_feedback","1"
"html-button-response","242","295494","0.0-179.0","CKN_118","118","","","","","","null","<button class=""jspsych-btn""><img src=""stimuli/white_square.png"" style=""width: 200px;height: 200px;""></button>","null","lightred","darkgreenblue","[""lightred"",""darkgreenblue"",""low nameability""]","left-right","[""lightred"",""darkgreenblue"",""low nameability""]","5","low nameability","49","left","iti",""
"html-button-response","243","296485","0.0-180.0","CKN_118","118","","","","","","979","","0","orange","purple","[""orange"",""purple"",""high nameability""]","right-left","[""purple"",""orange""]","5","high nameability","50","right","trigger",""
"html-button-response","244","297806","0.0-181.0-0.0","CKN_118","118","","","","","","1311","<button class=""jspsych-btn""><img src=""stimuli/orange.png"" style=""width: 200px;height: 200px;""></button>","1","orange","purple","[""orange"",""purple"",""high nameability""]","right-left","[""purple"",""orange""]","5","high nameability","50","right","response","1"
"html-audio-button-response","245","298007","0.0-181.0-1.0","CKN_118","118","","","","","","null","stimuli/bleep.m4a","null","orange","purple","[""orange"",""purple"",""high nameability""]","right-left","[""purple"",""orange""]","5","high nameability","50","right","audio_feedback","1"
"html-button-response","246","298532","0.0-182.0","CKN_118","118","","","","","","null","<button class=""jspsych-btn""><img src=""stimuli/white_square.png"" style=""width: 200px;height: 200px;""></button>","null","orange","purple","[""orange"",""purple"",""high nameability""]","right-left","[""purple"",""orange""]","5","high nameability","50","right","iti",""
"pavlovia","247","298645","0.0-183.0","CKN_118","118","","","","","","","","","","","","","","","","","","",""
"pavlovia","248","298657","0.0-184.0","CKN_118","118","","","","","","","","","","","","","","","","","","",""
"html-audio-button-response","249","303934","0.0-185.0","CKN_118","118","","","","","","5403","stimuli/tada.m4a","0","","","","","","","","","","",""
"html-button-response","250","304571","0.0-186.0","CKN_118","118","","","","","","630","","0","","","","","","","","","","",""
"html-button-response","251","305870","0.0-187.0","CKN_118","118","","","","","","1293","","0","pink","darkgreenblue","[""pink"",""darkgreenblue"",""low nameability""]","left-right","[""pink"",""darkgreenblue"",""low nameability""]","6","low nameability","51","left","trigger",""
"html-button-response","252","306954","0.0-188.0-0.0","CKN_118","118","","","","","","1080","<button class=""jspsych-btn""><img src=""stimuli/pink.png"" style=""width: 200px;height: 200px;""></button>","0","pink","darkgreenblue","[""pink"",""darkgreenblue"",""low nameability""]","left-right","[""pink"",""darkgreenblue"",""low nameability""]","6","low nameability","51","left","response","1"
"html-audio-button-response","253","307159","0.0-188.0-1.0","CKN_118","118","","","","","","null","stimuli/bleep.m4a","null","pink","darkgreenblue","[""pink"",""darkgreenblue"",""low nameability""]","left-right","[""pink"",""darkgreenblue"",""low nameability""]","6","low nameability","51","left","audio_feedback","1"
"html-button-response","254","307676","0.0-189.0","CKN_118","118","","","","","","null","<button class=""jspsych-btn""><img src=""stimuli/white_square.png"" style=""width: 200px;height: 200px;""></button>","null","pink","darkgreenblue","[""pink"",""darkgreenblue"",""low nameability""]","left-right","[""pink"",""darkgreenblue"",""low nameability""]","6","low nameability","51","left","iti",""
"html-button-response","255","308301","0.0-190.0","CKN_118","118","","","","","","604","","0","brown","blue","[""brown"",""blue"",""high nameability""]","right-left","[""blue"",""brown""]","6","high nameability","52","right","trigger",""
"html-button-response","256","309085","0.0-191.0-0.0","CKN_118","118","","","","","","775","<button class=""jspsych-btn""><img src=""stimuli/brown.png"" style=""width: 200px;height: 200px;""></button>","0","brown","blue","[""brown"",""blue"",""high nameability""]","right-left","[""blue"",""brown""]","6","high nameability","52","right","response","0"
"html-audio-button-response","257","309724","0.0-191.0-1.0","CKN_118","118","","","","","","null","stimuli/boing.m4a","null","brown","blue","[""brown"",""blue"",""high nameability""]","right-left","[""blue"",""brown""]","6","high nameability","52","right","audio_feedback","0"
"html-button-response","258","309889","0.0-191.1-0.1","CKN_118","118","","","","","","142","<button class=""jspsych-btn""><img src=""stimuli/brown.png"" style=""width: 200px;height: 200px;""></button>","1","brown","blue","[""brown"",""blue"",""high nameability""]","right-left","[""blue"",""brown""]","6","high nameability","52","right","response","1"
"html-audio-button-response","259","310100","0.0-191.1-1.1","CKN_118","118","","","","","","null","stimuli/bleep.m4a","null","brown","blue","[""brown"",""blue"",""high nameability""]","right-left","[""blue"",""brown""]","6","high nameability","52","right","audio_feedback","1"
"html-button-response","260","310627","0.0-192.0","CKN_118","118","","","","","","null","<button class=""jspsych-btn""><img src=""stimuli/white_square.png"" style=""width: 200px;height: 200px;""></button>","null","brown","blue","[""brown"",""blue"",""high nameability""]","right-left","[""blue"",""brown""]","6","high nameability","52","right","iti",""
"html-button-response","261","313078","0.0-193.0","CKN_118","118","","","","","","2444","","0","pink","lightred","[""pink"",""lightred"",""low nameability""]","left-right","[""pink"",""lightred"",""low nameability""]","6","low nameability","53","left","trigger",""
"html-button-response","262","314463","0.0-194.0-0.0","CKN_118","118","","","","","","1378","<button class=""jspsych-btn""><img src=""stimuli/pink.png"" style=""width: 200px;height: 200px;""></button>","0","pink","lightred","[""pink"",""lightred"",""low nameability""]","left-right","[""pink"",""lightred"",""low nameability""]","6","low nameability","53","left","response","1"
"html-audio-button-response","263","314664","0.0-194.0-1.0","CKN_118","118","","","","","","null","stimuli/bleep.m4a","null","pink","lightred","[""pink"",""lightred"",""low nameability""]","left-right","[""pink"",""lightred"",""low nameability""]","6","low nameability","53","left","audio_feedback","1"
"html-button-response","264","315183","0.0-195.0","CKN_118","118","","","","","","null","<button class=""jspsych-btn""><img src=""stimuli/white_square.png"" style=""width: 200px;height: 200px;""></button>","null","pink","lightred","[""pink"",""lightred"",""low nameability""]","left-right","[""pink"",""lightred"",""low nameability""]","6","low nameability","53","left","iti",""
"html-button-response","265","315305","0.0-196.0","CKN_118","118","","","","","","108","","0","purple","blue","[""purple"",""blue"",""high nameability""]","right-left","[""blue"",""purple""]","6","high nameability","54","right","trigger",""
"html-button-response","266","316848","0.0-197.0-0.0","CKN_118","118","","","","","","1537","<button class=""jspsych-btn""><img src=""stimuli/purple.png"" style=""width: 200px;height: 200px;""></button>","1","purple","blue","[""purple"",""blue"",""high nameability""]","right-left","[""blue"",""purple""]","6","high nameability","54","right","response","1"
"html-audio-button-response","267","317056","0.0-197.0-1.0","CKN_118","118","","","","","","null","stimuli/bleep.m4a","null","purple","blue","[""purple"",""blue"",""high nameability""]","right-left","[""blue"",""purple""]","6","high nameability","54","right","audio_feedback","1"
"html-button-response","268","317582","0.0-198.0","CKN_118","118","","","","","","null","<button class=""jspsych-btn""><img src=""stimuli/white_square.png"" style=""width: 200px;height: 200px;""></button>","null","purple","blue","[""purple"",""blue"",""high nameability""]","right-left","[""blue"",""purple""]","6","high nameability","54","right","iti",""
"html-button-response","269","317848","0.0-199.0","CKN_118","118","","","","","","251","","0","purple","yellow","[""purple"",""yellow"",""high nameability""]","right-left","[""yellow"",""purple""]","6","high nameability","55","right","trigger",""
"html-button-response","270","318732","0.0-200.0-0.0","CKN_118","118","","","","","","875","<button class=""jspsych-btn""><img src=""stimuli/purple.png"" style=""width: 200px;height: 200px;""></button>","1","purple","yellow","[""purple"",""yellow"",""high nameability""]","right-left","[""yellow"",""purple""]","6","high nameability","55","right","response","1"
"html-audio-button-response","271","318935","0.0-200.0-1.0","CKN_118","118","","","","","","null","stimuli/bleep.m4a","null","purple","yellow","[""purple"",""yellow"",""high nameability""]","right-left","[""yellow"",""purple""]","6","high nameability","55","right","audio_feedback","1"
"html-button-response","272","319446","0.0-201.0","CKN_118","118","","","","","","null","<button class=""jspsych-btn""><img src=""stimuli/white_square.png"" style=""width: 200px;height: 200px;""></button>","null","purple","yellow","[""purple"",""yellow"",""high nameability""]","right-left","[""yellow"",""purple""]","6","high nameability","55","right","iti",""
"html-button-response","273","319498","0.0-202.0","CKN_118","118","","","","","","43","","0","purple","orange","[""purple"",""orange"",""high nameability""]","left-right","[""purple"",""orange"",""high nameability""]","6","high nameability","56","left","trigger",""
"html-button-response","274","321069","0.0-203.0-0.0","CKN_118","118","","","","","","1567","<button class=""jspsych-btn""><img src=""stimuli/purple.png"" style=""width: 200px;height: 200px;""></button>","0","purple","orange","[""purple"",""orange"",""high nameability""]","left-right","[""purple"",""orange"",""high nameability""]","6","high nameability","56","left","response","1"
"html-audio-button-response","275","321270","0.0-203.0-1.0","CKN_118","118","","","","","","null","stimuli/bleep.m4a","null","purple","orange","[""purple"",""orange"",""high nameability""]","left-right","[""purple"",""orange"",""high nameability""]","6","high nameability","56","left","audio_feedback","1"
"html-button-response","276","321778","0.0-204.0","CKN_118","118","","","","","","null","<button class=""jspsych-btn""><img src=""stimuli/white_square.png"" style=""width: 200px;height: 200px;""></button>","null","purple","orange","[""purple"",""orange"",""high nameability""]","left-right","[""purple"",""orange"",""high nameability""]","6","high nameability","56","left","iti",""
"html-button-response","277","323781","0.0-205.0","CKN_118","118","","","","","","1995","","0","darkgreenblue","lightred","[""darkgreenblue"",""lightred"",""low nameability""]","left-right","[""darkgreenblue"",""lightred"",""low nameability""]","6","low nameability","57","left","trigger",""
"html-button-response","278","325119","0.0-206.0-0.0","CKN_118","118","","","","","","1332","<button class=""jspsych-btn""><img src=""stimuli/darkgreenblue.png"" style=""width: 200px;height: 200px;""></button>","0","darkgreenblue","lightred","[""darkgreenblue"",""lightred"",""low nameability""]","left-right","[""darkgreenblue"",""lightred"",""low nameability""]","6","low nameability","57","left","response","1"
"html-audio-button-response","279","325321","0.0-206.0-1.0","CKN_118","118","","","","","","null","stimuli/bleep.m4a","null","darkgreenblue","lightred","[""darkgreenblue"",""lightred"",""low nameability""]","left-right","[""darkgreenblue"",""lightred"",""low nameability""]","6","low nameability","57","left","audio_feedback","1"
"html-button-response","280","325837","0.0-207.0","CKN_118","118","","","","","","null","<button class=""jspsych-btn""><img src=""stimuli/white_square.png"" style=""width: 200px;height: 200px;""></button>","null","darkgreenblue","lightred","[""darkgreenblue"",""lightred"",""low nameability""]","left-right","[""darkgreenblue"",""lightred"",""low nameability""]","6","low nameability","57","left","iti",""
"html-button-response","281","326616","0.0-208.0","CKN_118","118","","","","","","770","","0","turquoise","mustard","[""turquoise"",""mustard"",""low nameability""]","right-left","[""mustard"",""turquoise""]","6","low nameability","58","right","trigger",""
"html-button-response","282","328103","0.0-209.0-0.0","CKN_118","118","","","","","","1481","<button class=""jspsych-btn""><img src=""stimuli/turquoise.png"" style=""width: 200px;height: 200px;""></button>","1","turquoise","mustard","[""turquoise"",""mustard"",""low nameability""]","right-left","[""mustard"",""turquoise""]","6","low nameability","58","right","response","1"
"html-audio-button-response","283","328303","0.0-209.0-1.0","CKN_118","118","","","","","","null","stimuli/bleep.m4a","null","turquoise","mustard","[""turquoise"",""mustard"",""low nameability""]","right-left","[""mustard"",""turquoise""]","6","low nameability","58","right","audio_feedback","1"
"html-button-response","284","328820","0.0-210.0","CKN_118","118","","","","","","null","<button class=""jspsych-btn""><img src=""stimuli/white_square.png"" style=""width: 200px;height: 200px;""></button>","null","turquoise","mustard","[""turquoise"",""mustard"",""low nameability""]","right-left","[""mustard"",""turquoise""]","6","low nameability","58","right","iti",""
"html-button-response","285","329531","0.0-211.0","CKN_118","118","","","","","","699","","0","darkgreenblue","neonyellow","[""darkgreenblue"",""neonyellow"",""low nameability""]","right-left","[""neonyellow"",""darkgreenblue""]","6","low nameability","59","right","trigger",""
"html-button-response","286","330922","0.0-212.0-0.0","CKN_118","118","","","","","","1383","<button class=""jspsych-btn""><img src=""stimuli/darkgreenblue.png"" style=""width: 200px;height: 200px;""></button>","1","darkgreenblue","neonyellow","[""darkgreenblue"",""neonyellow"",""low nameability""]","right-left","[""neonyellow"",""darkgreenblue""]","6","low nameability","59","right","response","1"
"html-audio-button-response","287","331127","0.0-212.0-1.0","CKN_118","118","","","","","","null","stimuli/bleep.m4a","null","darkgreenblue","neonyellow","[""darkgreenblue"",""neonyellow"",""low nameability""]","right-left","[""neonyellow"",""darkgreenblue""]","6","low nameability","59","right","audio_feedback","1"
"html-button-response","288","331648","0.0-213.0","CKN_118","118","","","","","","null","<button class=""jspsych-btn""><img src=""stimuli/white_square.png"" style=""width: 200px;height: 200px;""></button>","null","darkgreenblue","neonyellow","[""darkgreenblue"",""neonyellow"",""low nameability""]","right-left","[""neonyellow"",""darkgreenblue""]","6","low nameability","59","right","iti",""
"html-button-response","289","332891","0.0-214.0","CKN_118","118","","","","","","1230","","0","pink","neonyellow","[""pink"",""neonyellow"",""low nameability""]","left-right","[""pink"",""neonyellow"",""low nameability""]","6","low nameability","60","left","trigger",""
"html-button-response","290","333645","0.0-215.0-0.0","CKN_118","118","","","","","","747","<button class=""jspsych-btn""><img src=""stimuli/pink.png"" style=""width: 200px;height: 200px;""></button>","1","pink","neonyellow","[""pink"",""neonyellow"",""low nameability""]","left-right","[""pink"",""neonyellow"",""low nameability""]","6","low nameability","60","left","response","0"
"html-audio-button-response","291","334265","0.0-215.0-1.0","CKN_118","118","","","","","","null","stimuli/boing.m4a","null","pink","neonyellow","[""pink"",""neonyellow"",""low nameability""]","left-right","[""pink"",""neonyellow"",""low nameability""]","6","low nameability","60","left","audio_feedback","0"
"html-button-response","292","334606","0.0-215.1-0.1","CKN_118","118","","","","","","319","<button class=""jspsych-btn""><img src=""stimuli/pink.png"" style=""width: 200px;height: 200px;""></button>","0","pink","neonyellow","[""pink"",""neonyellow"",""low nameability""]","left-right","[""pink"",""neonyellow"",""low nameability""]","6","low nameability","60","left","response","1"
"html-audio-button-response","293","334807","0.0-215.1-1.1","CKN_118","118","","","","","","null","stimuli/bleep.m4a","null","pink","neonyellow","[""pink"",""neonyellow"",""low nameability""]","left-right","[""pink"",""neonyellow"",""low nameability""]","6","low nameability","60","left","audio_feedback","1"
"html-button-response","294","335318","0.0-216.0","CKN_118","118","","","","","","null","<button class=""jspsych-btn""><img src=""stimuli/white_square.png"" style=""width: 200px;height: 200px;""></button>","null","pink","neonyellow","[""pink"",""neonyellow"",""low nameability""]","left-right","[""pink"",""neonyellow"",""low nameability""]","6","low nameability","60","left","iti",""
