"trial_type","trial_index","time_elapsed","internal_node_id","subject_id","seed","success","timeout","failed_images","failed_audio","failed_video","rt","stimulus","response","target","foil","choices","combination_order","choices_in_order","round","condition","trial_counter","target_location","trial_kind","correct"
"pavlovia","0","17","0.0-0.0","CKN_123","123","","","","","","","","","","","","","","","","","","",""
"preload","1","944","0.0-1.0","CKN_123","123","true","false","[]","[]","[]","","","","","","","","","","","","","",""
"fullscreen","2","2503","0.0-2.0","CKN_123","123","true","","","","","","","","","","","","","","","","","",""
"html-button-response","3","12338","0.0-3.0","CKN_123","123","","","","","","9815","","0","","","","","","","","","","",""
"html-button-response","4","15054","0.0-4.0","CKN_123","123","","","","","","2702","","0","star","square","[""square"",""star""]","left-right","[""square"",""star""]","1","practice","1","right","trigger",""
"html-button-response","5","19013","0.0-5.0-0.0","CKN_123","123","","","","","","3948","<button class=""jspsych-btn""><img src=""stimuli/star.png"" style=""width: 200px;height: 200px;""></button>","1","star","square","[""square"",""star""]","left-right","[""square"",""star""]","1","practice","1","right","response","1"
"html-audio-button-response","6","19218","0.0-5.0-1.0","CKN_123","123","","","","","","null","stimuli/bleep.m4a","null","star","square","[""square"",""star""]","left-right","[""square"",""star""]","1","practice","1","right","audio_feedback","1"
"html-button-response","7","19740","0.0-6.0","CKN_123","123","","","","","","null","<button class=""jspsych-btn""><img src=""stimuli/white_square.png"" style=""width: 200px;height: 200px;""></button>","null","star","square","[""square"",""star""]","left-right","[""square"",""star""]","1","practice","1","right","iti",""
"html-button-response","8","21296","0.0-7.0","CKN_123","123","","","","","","1534","","0","triangle","pentagram","[""triangle"",""pentagram""]","left-right","[""triangle"",""pentagram""]","1","practice","1","left","trigger",""
"html-button-response","9","23000","0.0-8.0-0.0","CKN_123","123","","","","","","1691","<button class=""jspsych-btn""><img src=""stimuli/triangle.png"" style=""width: 200px;height: 200px;""></button>","0","triangle","pentagram","[""triangle"",""pentagram""]","left-right","[""triangle"",""pentagram""]","1","practice","1","left","response","1"
"html-audio-button-response","10","23211","0.0-8.0-1.0","CKN_123","123","","","","","","null","stimuli/bleep.m4a","null","triangle","pentagram","[""triangle"",""pentagram""]","left-right","[""triangle"",""pentagram""]","1","practice","1","left","audio_feedback","1"
"html-button-response","11","23731","0.0-9.0","CKN_123","123","","","","","","null","<button class=""jspsych-btn""><img src=""stimuli/white_square.png"" style=""width: 200px;height: 200px;""></button>","null","triangle","pentagram","[""triangle"",""pentagram""]","left-right","[""triangle"",""pentagram""]","1","practice","1","left","iti",""
"html-button-response","12","25344","0.0-10.0","CKN_123","123","","","","","","1596","","0","diamond","rectangle","[""rectangle"",""diamond""]","left-right","[""rectangle"",""diamond""]","1","practice","1","right","trigger",""
"html-button-response","13","26682","0.0-11.0-0.0","CKN_123","123","","","","","","1330","<button class=""jspsych-btn""><img src=""stimuli/diamond.png"" style=""width: 200px;height: 200px;""></button>","1","diamond","rectangle","[""rectangle"",""diamond""]","left-right","[""rectangle"",""diamond""]","1","practice","1","right","response","1"
"html-audio-button-response","14","26891","0.0-11.0-1.0","CKN_123","123","","","","","","null","stimuli/bleep.m4a","null","diamond","rectangle","[""rectangle"",""diamond""]","left-right","[""rectangle"",""diamond""]","1","practice","1","right","audio_feedback","1"
"html-button-response","15","27419","0.0-12.0","CKN_123","123","","","","","","null","<button class=""jspsych-btn""><img src=""stimuli/white_square.png"" style=""width: 200px;height: 200px;""></button>","null","diamond","rectangle","[""rectangle"",""diamond""]","left-right","[""rectangle"",""diamond""]","1","practice","1","right","iti",""
"html-button-response","16","31759","0.0-13.0","CKN_123","123","","","","","","4324","","0","pentagram","star","[""pentagram"",""star""]","left-right","[""pentagram"",""star""]","1","practice","1","left","trigger",""
"html-button-response","17","33303","0.0-14.0-0.0","CKN_123","123","","","","","","1529","<button class=""jspsych-btn""><img src=""stimuli/pentagram.png"" style=""width: 200px;height: 200px;""></button>","0","pentagram","star","[""pentagram"",""star""]","left-right","[""pentagram"",""star""]","1","practice","1","left","response","1"
"html-audio-button-response","18","33516","0.0-14.0-1.0","CKN_123","123","","","","","","null","stimuli/bleep.m4a","null","pentagram","star","[""pentagram"",""star""]","left-right","[""pentagram"",""star""]","1","practice","1","left","audio_feedback","1"
"html-button-response","19","34044","0.0-15.0","CKN_123","123","","","","","","null","<button class=""jspsych-btn""><img src=""stimuli/white_square.png"" style=""width: 200px;height: 200px;""></button>","null","pentagram","star","[""pentagram"",""star""]","left-right","[""pentagram"",""star""]","1","practice","1","left","iti",""
"html-button-response","20","38906","0.0-16.0","CKN_123","123","","","","","","4854","","0","","","","","","","","","","",""
"html-button-response","21","40605","0.0-17.0","CKN_123","123","","","","","","1687","","0","mustard","neonyellow","[""mustard"",""neonyellow"",""low nameability""]","right-left","[""neonyellow"",""mustard""]","1","low nameability","1","right","trigger",""
"html-button-response","22","42616","0.0-18.0-0.0","CKN_123","123","","","","","","1991","<button class=""jspsych-btn""><img src=""stimuli/mustard.png"" style=""width: 200px;height: 200px;""></button>","1","mustard","neonyellow","[""mustard"",""neonyellow"",""low nameability""]","right-left","[""neonyellow"",""mustard""]","1","low nameability","1","right","response","1"
"html-audio-button-response","23","42825","0.0-18.0-1.0","CKN_123","123","","","","","","null","stimuli/bleep.m4a","null","mustard","neonyellow","[""mustard"",""neonyellow"",""low nameability""]","right-left","[""neonyellow"",""mustard""]","1","low nameability","1","right","audio_feedback","1"
"html-button-response","24","43344","0.0-19.0","CKN_123","123","","","","","","null","<button class=""jspsych-btn""><img src=""stimuli/white_square.png"" style=""width: 200px;height: 200px;""></button>","null","mustard","neonyellow","[""mustard"",""neonyellow"",""low nameability""]","right-left","[""neonyellow"",""mustard""]","1","low nameability","1","right","iti",""
"html-button-response","25","44698","0.0-20.0","CKN_123","123","","","","","","1322","","0","pink","neonyellow","[""pink"",""neonyellow"",""low nameability""]","right-left","[""neonyellow"",""pink""]","1","low nameability","2","right","trigger",""
"html-button-response","26","46445","0.0-21.0-0.0","CKN_123","123","","","","","","1734","<button class=""jspsych-btn""><img src=""stimuli/pink.png"" style=""width: 200px;height: 200px;""></button>","1","pink","neonyellow","[""pink"",""neonyellow"",""low nameability""]","right-left","[""neonyellow"",""pink""]","1","low nameability","2","right","response","1"
"html-audio-button-response","27","46668","0.0-21.0-1.0","CKN_123","123","","","","","","null","stimuli/bleep.m4a","null","pink","neonyellow","[""pink"",""neonyellow"",""low nameability""]","right-left","[""neonyellow"",""pink""]","1","low nameability","2","right","audio_feedback","1"
"html-button-response","28","47200","0.0-22.0","CKN_123","123","","","","","","null","<button class=""jspsych-btn""><img src=""stimuli/white_square.png"" style=""width: 200px;height: 200px;""></button>","null","pink","neonyellow","[""pink"",""neonyellow"",""low nameability""]","right-left","[""neonyellow"",""pink""]","1","low nameability","2","right","iti",""
"html-button-response","29","48268","0.0-23.0","CKN_123","123","","","","","","1050","","0","darkgreenblue","turquoise","[""darkgreenblue"",""turquoise"",""low nameability""]","right-left","[""turquoise"",""darkgreenblue""]","1","low nameability","3","right","trigger",""
"html-button-response","30","49409","0.0-24.0-0.0","CKN_123","123","","","","","","1127","<button class=""jspsych-btn""><img src=""stimuli/darkgreenblue.png"" style=""width: 200px;height: 200px;""></button>","1","darkgreenblue","turquoise","[""darkgreenblue"",""turquoise"",""low nameability""]","right-left","[""turquoise"",""darkgreenblue""]","1","low nameability","3","right","response","1"
"html-audio-button-response","31","49619","0.0-24.0-1.0","CKN_123","123","","","","","","null","stimuli/bleep.m4a","null","darkgreenblue","turquoise","[""darkgreenblue"",""turquoise"",""low nameability""]","right-left","[""turquoise"",""darkgreenblue""]","1","low nameability","3","right","audio_feedback","1"
"html-button-response","32","50139","0.0-25.0","CKN_123","123","","","","","","null","<button class=""jspsych-btn""><img src=""stimuli/white_square.png"" style=""width: 200px;height: 200px;""></button>","null","darkgreenblue","turquoise","[""darkgreenblue"",""turquoise"",""low nameability""]","right-left","[""turquoise"",""darkgreenblue""]","1","low nameability","3","right","iti",""
"html-button-response","33","50885","0.0-26.0","CKN_123","123","","","","","","734","","0","lightred","turquoise","[""lightred"",""turquoise"",""low nameability""]","right-left","[""turquoise"",""lightred""]","1","low nameability","4","right","trigger",""
"html-button-response","34","51690","0.0-27.0-0.0","CKN_123","123","","","","","","792","<button class=""jspsych-btn""><img src=""stimuli/lightred.png"" style=""width: 200px;height: 200px;""></button>","1","lightred","turquoise","[""lightred"",""turquoise"",""low nameability""]","right-left","[""turquoise"",""lightred""]","1","low nameability","4","right","response","1"
"html-audio-button-response","35","51908","0.0-27.0-1.0","CKN_123","123","","","","","","null","stimuli/bleep.m4a","null","lightred","turquoise","[""lightred"",""turquoise"",""low nameability""]","right-left","[""turquoise"",""lightred""]","1","low nameability","4","right","audio_feedback","1"
"html-button-response","36","52430","0.0-28.0","CKN_123","123","","","","","","null","<button class=""jspsych-btn""><img src=""stimuli/white_square.png"" style=""width: 200px;height: 200px;""></button>","null","lightred","turquoise","[""lightred"",""turquoise"",""low nameability""]","right-left","[""turquoise"",""lightred""]","1","low nameability","4","right","iti",""
"html-button-response","37","53081","0.0-29.0","CKN_123","123","","","","","","631","","0","red","yellow","[""red"",""yellow"",""high nameability""]","left-right","[""red"",""yellow"",""high nameability""]","1","high nameability","5","left","trigger",""
"html-button-response","38","54524","0.0-30.0-0.0","CKN_123","123","","","","","","1436","<button class=""jspsych-btn""><img src=""stimuli/red.png"" style=""width: 200px;height: 200px;""></button>","0","red","yellow","[""red"",""yellow"",""high nameability""]","left-right","[""red"",""yellow"",""high nameability""]","1","high nameability","5","left","response","1"
"html-audio-button-response","39","54732","0.0-30.0-1.0","CKN_123","123","","","","","","null","stimuli/bleep.m4a","null","red","yellow","[""red"",""yellow"",""high nameability""]","left-right","[""red"",""yellow"",""high nameability""]","1","high nameability","5","left","audio_feedback","1"
"html-button-response","40","55245","0.0-31.0","CKN_123","123","","","","","","null","<button class=""jspsych-btn""><img src=""stimuli/white_square.png"" style=""width: 200px;height: 200px;""></button>","null","red","yellow","[""red"",""yellow"",""high nameability""]","left-right","[""red"",""yellow"",""high nameability""]","1","high nameability","5","left","iti",""
"html-button-response","41","56078","0.0-32.0","CKN_123","123","","","","","","823","","0","neonyellow","pink","[""neonyellow"",""pink"",""low nameability""]","right-left","[""pink"",""neonyellow""]","1","low nameability","6","right","trigger",""
"html-button-response","42","57089","0.0-33.0-0.0","CKN_123","123","","","","","","1004","<button class=""jspsych-btn""><img src=""stimuli/neonyellow.png"" style=""width: 200px;height: 200px;""></button>","1","neonyellow","pink","[""neonyellow"",""pink"",""low nameability""]","right-left","[""pink"",""neonyellow""]","1","low nameability","6","right","response","1"
"html-audio-button-response","43","57303","0.0-33.0-1.0","CKN_123","123","","","","","","null","stimuli/bleep.m4a","null","neonyellow","pink","[""neonyellow"",""pink"",""low nameability""]","right-left","[""pink"",""neonyellow""]","1","low nameability","6","right","audio_feedback","1"
"html-button-response","44","57830","0.0-34.0","CKN_123","123","","","","","","null","<button class=""jspsych-btn""><img src=""stimuli/white_square.png"" style=""width: 200px;height: 200px;""></button>","null","neonyellow","pink","[""neonyellow"",""pink"",""low nameability""]","right-left","[""pink"",""neonyellow""]","1","low nameability","6","right","iti",""
"html-button-response","45","58615","0.0-35.0","CKN_123","123","","","","","","753","","0","neonyellow","darkgreenblue","[""neonyellow"",""darkgreenblue"",""low nameability""]","left-right","[""neonyellow"",""darkgreenblue"",""low nameability""]","1","low nameability","7","left","trigger",""
"html-button-response","46","60211","0.0-36.0-0.0","CKN_123","123","","","","","","1592","<button class=""jspsych-btn""><img src=""stimuli/neonyellow.png"" style=""width: 200px;height: 200px;""></button>","0","neonyellow","darkgreenblue","[""neonyellow"",""darkgreenblue"",""low nameability""]","left-right","[""neonyellow"",""darkgreenblue"",""low nameability""]","1","low nameability","7","left","response","1"
"html-audio-button-response","47","60418","0.0-36.0-1.0","CKN_123","123","","","","","","null","stimuli/bleep.m4a","null","neonyellow","darkgreenblue","[""neonyellow"",""darkgreenblue"",""low nameability""]","left-right","[""neonyellow"",""darkgreenblue"",""low nameability""]","1","low nameability","7","left","audio_feedback","1"
"html-button-response","48","60940","0.0-37.0","CKN_123","123","","","","","","null","<button class=""jspsych-btn""><img src=""stimuli/white_square.png"" style=""width: 200px;height: 200px;""></button>","null","neonyellow","darkgreenblue","[""neonyellow"",""darkgreenblue"",""low nameability""]","left-right","[""neonyellow"",""darkgreenblue"",""low nameability""]","1","low nameability","7","left","iti",""
"html-button-response","49","62081","0.0-38.0","CKN_123","123","","","","","","1128","","0","turquoise","mustard","[""turquoise"",""mustard"",""low nameability""]","left-right","[""turquoise"",""mustard"",""low nameability""]","1","low nameability","8","left","trigger",""
"html-button-response","50","63538","0.0-39.0-0.0","CKN_123","123","","","","","","1450","<button class=""jspsych-btn""><img src=""stimuli/turquoise.png"" style=""width: 200px;height: 200px;""></button>","0","turquoise","mustard","[""turquoise"",""mustard"",""low nameability""]","left-right","[""turquoise"",""mustard"",""low nameability""]","1","low nameability","8","left","response","1"
"html-audio-button-response","51","63738","0.0-39.0-1.0","CKN_123","123","","","","","","null","stimuli/bleep.m4a","null","turquoise","mustard","[""turquoise"",""mustard"",""low nameability""]","left-right","[""turquoise"",""mustard"",""low nameability""]","1","low nameability","8","left","audio_feedback","1"
"html-button-response","52","64263","0.0-40.0","CKN_123","123","","","","","","null","<button class=""jspsych-btn""><img src=""stimuli/white_square.png"" style=""width: 200px;height: 200px;""></button>","null","turquoise","mustard","[""turquoise"",""mustard"",""low nameability""]","left-right","[""turquoise"",""mustard"",""low nameability""]","1","low nameability","8","left","iti",""
"html-button-response","53","65317","0.0-41.0","CKN_123","123","","","","","","1038","","0","darkgreenblue","pink","[""darkgreenblue"",""pink"",""low nameability""]","left-right","[""darkgreenblue"",""pink"",""low nameability""]","1","low nameability","9","left","trigger",""
"html-button-response","54","66426","0.0-42.0-0.0","CKN_123","123","","","","","","1104","<button class=""jspsych-btn""><img src=""stimuli/darkgreenblue.png"" style=""width: 200px;height: 200px;""></button>","0","darkgreenblue","pink","[""darkgreenblue"",""pink"",""low nameability""]","left-right","[""darkgreenblue"",""pink"",""low nameability""]","1","low nameability","9","left","response","1"
"html-audio-button-response","55","66636","0.0-42.0-1.0","CKN_123","123","","","","","","null","stimuli/bleep.m4a","null","darkgreenblue","pink","[""darkgreenblue"",""pink"",""low nameability""]","left-right","[""darkgreenblue"",""pink"",""low nameability""]","1","low nameability","9","left","audio_feedback","1"
"html-button-response","56","67152","0.0-43.0","CKN_123","123","","","","","","null","<button class=""jspsych-btn""><img src=""stimuli/white_square.png"" style=""width: 200px;height: 200px;""></button>","null","darkgreenblue","pink","[""darkgreenblue"",""pink"",""low nameability""]","left-right","[""darkgreenblue"",""pink"",""low nameability""]","1","low nameability","9","left","iti",""
"html-button-response","57","68034","0.0-44.0","CKN_123","123","","","","","","866","","0","orange","blue","[""orange"",""blue"",""high nameability""]","left-right","[""orange"",""blue"",""high nameability""]","1","high nameability","10","left","trigger",""
"html-button-response","58","69008","0.0-45.0-0.0","CKN_123","123","","","","","","970","<button class=""jspsych-btn""><img src=""stimuli/orange.png"" style=""width: 200px;height: 200px;""></button>","0","orange","blue","[""orange"",""blue"",""high nameability""]","left-right","[""orange"",""blue"",""high nameability""]","1","high nameability","10","left","response","1"
"html-audio-button-response","59","69211","0.0-45.0-1.0","CKN_123","123","","","","","","null","stimuli/bleep.m4a","null","orange","blue","[""orange"",""blue"",""high nameability""]","left-right","[""orange"",""blue"",""high nameability""]","1","high nameability","10","left","audio_feedback","1"
"html-button-response","60","69727","0.0-46.0","CKN_123","123","","","","","","null","<button class=""jspsych-btn""><img src=""stimuli/white_square.png"" style=""width: 200px;height: 200px;""></button>","null","orange","blue","[""orange"",""blue"",""high nameability""]","left-right","[""orange"",""blue"",""high nameability""]","1","high nameability","10","left","iti",""
"pavlovia","61","69812","0.0-47.0","CKN_123","123","","","","","","","","","","","","","","","","","","",""
"pavlovia","62","69825","0.0-48.0","CKN_123","123","","","","","","","","","","","","","","","","","","",""
"html-audio-button-response","63","73488","0.0-49.0","CKN_123","123","","","","","","3757","stimuli/tada.m4a","0","","","","","","","","","","",""
"html-button-response","64","74096","0.0-50.0","CKN_123","123","","","","","","602","","0","","","","","","","","","","",""
"html-button-response","65","75419","0.0-51.0","CKN_123","123","","","","","","1319","","0","darkgreenblue","lightred","[""darkgreenblue"",""lightred"",""low nameability""]","left-right","[""darkgreenblue"",""lightred"",""low nameability""]","2","low nameability","11","left","trigger",""
"html-button-response","66","76539","0.0-52.0-0.0","CKN_123","123","","","","","","1114","<button class=""jspsych-btn""><img src=""stimuli/darkgreenblue.png"" style=""width: 200px;height: 200px;""></button>","0","darkgreenblue","lightred","[""darkgreenblue"",""lightred"",""low nameability""]","left-right","[""darkgreenblue"",""lightred"",""low nameability""]","2","low nameability","11","left","response","1"
"html-audio-button-response","67","76747","0.0-52.0-1.0","CKN_123","123","","","","","","null","stimuli/bleep.m4a","null","darkgreenblue","lightred","[""darkgreenblue"",""lightred"",""low nameability""]","left-right","[""darkgreenblue"",""lightred"",""low nameability""]","2","low nameability","11","left","audio_feedback","1"
"html-button-response","68","77266","0.0-53.0","CKN_123","123","","","","","","null","<button class=""jspsych-btn""><img src=""stimuli/white_square.png"" style=""width: 200px;height: 200px;""></button>","null","darkgreenblue","lightred","[""darkgreenblue"",""lightred"",""low nameability""]","left-right","[""darkgreenblue"",""lightred"",""low nameability""]","2","low nameability","11","left","iti",""
"html-button-response","69","79495","0.0-54.0","CKN_123","123","","","","","","2218","","0","purple","brown","[""purple"",""brown"",""high nameability""]","right-left","[""brown"",""purple""]","2","high nameability","12","right","trigger",""
"html-button-response","70","80530","0.0-55.0-0.0","CKN_123","123","","","","","","1029","<button class=""jspsych-btn""><img src=""stimuli/purple.png"" style=""width: 200px;height: 200px;""></button>","1","purple","brown","[""purple"",""brown"",""high nameability""]","right-left","[""brown"",""purple""]","2","high nameability","12","right","response","1"
"html-audio-button-response","71","80741","0.0-55.0-1.0","CKN_123","123","","","","","","null","stimuli/bleep.m4a","null","purple","brown","[""purple"",""brown"",""high nameability""]","right-left","[""brown"",""purple""]","2","high nameability","12","right","audio_feedback","1"
"html-button-response","72","81266","0.0-56.0","CKN_123","123","","","","","","null","<button class=""jspsych-btn""><img src=""stimuli/white_square.png"" style=""width: 200px;height: 200px;""></button>","null","purple","brown","[""purple"",""brown"",""high nameability""]","right-left","[""brown"",""purple""]","2","high nameability","12","right","iti",""
"html-button-response","73","82674","0.0-57.0","CKN_123","123","","","","","","1384","","0","purple","blue","[""purple"",""blue"",""high nameability""]","right-left","[""blue"",""purple""]","2","high nameability","13","right","trigger",""
"html-button-response","74","83460","0.0-58.0-0.0","CKN_123","123","","","","","","778","<button class=""jspsych-btn""><img src=""stimuli/purple.png"" style=""width: 200px;height: 200px;""></button>","1","purple","blue","[""purple"",""blue"",""high nameability""]","right-left","[""blue"",""purple""]","2","high nameability","13","right","response","1"
"html-audio-button-response","75","83669","0.0-58.0-1.0","CKN_123","123","","","","","","null","stimuli/bleep.m4a","null","purple","blue","[""purple"",""blue"",""high nameability""]","right-left","[""blue"",""purple""]","2","high nameability","13","right","audio_feedback","1"
"html-button-response","76","84179","0.0-59.0","CKN_123","123","","","","","","null","<button class=""jspsych-btn""><img src=""stimuli/white_square.png"" style=""width: 200px;height: 200px;""></button>","null","purple","blue","[""purple"",""blue"",""high nameability""]","right-left","[""blue"",""purple""]","2","high nameability","13","right","iti",""
"html-button-response","77","87379","0.0-60.0","CKN_123","123","","","","","","3189","","0","pink","turquoise","[""pink"",""turquoise"",""low nameability""]","left-right","[""pink"",""turquoise"",""low nameability""]","2","low nameability","14","left","trigger",""
"html-button-response","78","89991","0.0-61.0-0.0","CKN_123","123","","","","","","2607","<button class=""jspsych-btn""><img src=""stimuli/pink.png"" style=""width: 200px;height: 200px;""></button>","0","pink","turquoise","[""pink"",""turquoise"",""low nameability""]","left-right","[""pink"",""turquoise"",""low nameability""]","2","low nameability","14","left","response","1"
"html-audio-button-response","79","90194","0.0-61.0-1.0","CKN_123","123","","","","","","null","stimuli/bleep.m4a","null","pink","turquoise","[""pink"",""turquoise"",""low nameability""]","left-right","[""pink"",""turquoise"",""low nameability""]","2","low nameability","14","left","audio_feedback","1"
"html-button-response","80","90717","0.0-62.0","CKN_123","123","","","","","","null","<button class=""jspsych-btn""><img src=""stimuli/white_square.png"" style=""width: 200px;height: 200px;""></button>","null","pink","turquoise","[""pink"",""turquoise"",""low nameability""]","left-right","[""pink"",""turquoise"",""low nameability""]","2","low nameability","14","left","iti",""
"html-button-response","81","91303","0.0-63.0","CKN_123","123","","","","","","572","","0","turquoise","pink","[""turquoise"",""pink"",""low nameability""]","left-right","[""turquoise"",""pink"",""low nameability""]","2","low nameability","15","left","trigger",""
"html-button-response","82","92312","0.0-64.0-0.0","CKN_123","123","","","","","","1003","<button class=""jspsych-btn""><img src=""stimuli/turquoise.png"" style=""width: 200px;height: 200px;""></button>","0","turquoise","pink","[""turquoise"",""pink"",""low nameability""]","left-right","[""turquoise"",""pink"",""low nameability""]","2","low nameability","15","left","response","1"
"html-audio-button-response","83","92513","0.0-64.0-1.0","CKN_123","123","","","","","","null","stimuli/bleep.m4a","null","turquoise","pink","[""turquoise"",""pink"",""low nameability""]","left-right","[""turquoise"",""pink"",""low nameability""]","2","low nameability","15","left","audio_feedback","1"
"html-button-response","84","93028","0.0-65.0","CKN_123","123","","","","","","null","<button class=""jspsych-btn""><img src=""stimuli/white_square.png"" style=""width: 200px;height: 200px;""></button>","null","turquoise","pink","[""turquoise"",""pink"",""low nameability""]","left-right","[""turquoise"",""pink"",""low nameability""]","2","low nameability","15","left","iti",""
"html-button-response","85","93895","0.0-66.0","CKN_123","123","","","","","","854","","0","neonyellow","mustard","[""neonyellow"",""mustard"",""low nameability""]","left-right","[""neonyellow"",""mustard"",""low nameability""]","2","low nameability","16","left","trigger",""
"html-button-response","86","95396","0.0-67.0-0.0","CKN_123","123","","","","","","1497","<button class=""jspsych-btn""><img src=""stimuli/neonyellow.png"" style=""width: 200px;height: 200px;""></button>","0","neonyellow","mustard","[""neonyellow"",""mustard"",""low nameability""]","left-right","[""neonyellow"",""mustard"",""low nameability""]","2","low nameability","16","left","response","1"
"html-audio-button-response","87","95604","0.0-67.0-1.0","CKN_123","123","","","","","","null","stimuli/bleep.m4a","null","neonyellow","mustard","[""neonyellow"",""mustard"",""low nameability""]","left-right","[""neonyellow"",""mustard"",""low nameability""]","2","low nameability","16","left","audio_feedback","1"
"html-button-response","88","96126","0.0-68.0","CKN_123","123","","","","","","null","<button class=""jspsych-btn""><img src=""stimuli/white_square.png"" style=""width: 200px;height: 200px;""></button>","null","neonyellow","mustard","[""neonyellow"",""mustard"",""low nameability""]","left-right","[""neonyellow"",""mustard"",""low nameability""]","2","low nameability","16","left","iti",""
"html-button-response","89","97012","0.0-69.0","CKN_123","123","","","","","","881","","0","darkgreenblue","mustard","[""darkgreenblue"",""mustard"",""low nameability""]","left-right","[""darkgreenblue"",""mustard"",""low nameability""]","2","low nameability","17","left","trigger",""
"html-button-response","90","97897","0.0-70.0-0.0","CKN_123","123","","","","","","880","<button class=""jspsych-btn""><img src=""stimuli/darkgreenblue.png"" style=""width: 200px;height: 200px;""></button>","0","darkgreenblue","mustard","[""darkgreenblue"",""mustard"",""low nameability""]","left-right","[""darkgreenblue"",""mustard"",""low nameability""]","2","low nameability","17","left","response","1"
"html-audio-button-response","91","98100","0.0-70.0-1.0","CKN_123","123","","","","","","null","stimuli/bleep.m4a","null","darkgreenblue","mustard","[""darkgreenblue"",""mustard"",""low nameability""]","left-right","[""darkgreenblue"",""mustard"",""low nameability""]","2","low nameability","17","left","audio_feedback","1"
"html-button-response","92","98616","0.0-71.0","CKN_123","123","","","","","","null","<button class=""jspsych-btn""><img src=""stimuli/white_square.png"" style=""width: 200px;height: 200px;""></button>","null","darkgreenblue","mustard","[""darkgreenblue"",""mustard"",""low nameability""]","left-right","[""darkgreenblue"",""mustard"",""low nameability""]","2","low nameability","17","left","iti",""
"html-button-response","93","99618","0.0-72.0","CKN_123","123","","","","","","987","","0","blue","yellow","[""blue"",""yellow"",""high nameability""]","right-left","[""yellow"",""blue""]","2","high nameability","18","right","trigger",""
"html-button-response","94","100677","0.0-73.0-0.0","CKN_123","123","","","","","","1053","<button class=""jspsych-btn""><img src=""stimuli/blue.png"" style=""width: 200px;height: 200px;""></button>","1","blue","yellow","[""blue"",""yellow"",""high nameability""]","right-left","[""yellow"",""blue""]","2","high nameability","18","right","response","1"
"html-audio-button-response","95","100885","0.0-73.0-1.0","CKN_123","123","","","","","","null","stimuli/bleep.m4a","null","blue","yellow","[""blue"",""yellow"",""high nameability""]","right-left","[""yellow"",""blue""]","2","high nameability","18","right","audio_feedback","1"
"html-button-response","96","101409","0.0-74.0","CKN_123","123","","","","","","null","<button class=""jspsych-btn""><img src=""stimuli/white_square.png"" style=""width: 200px;height: 200px;""></button>","null","blue","yellow","[""blue"",""yellow"",""high nameability""]","right-left","[""yellow"",""blue""]","2","high nameability","18","right","iti",""
"html-button-response","97","102632","0.0-75.0","CKN_123","123","","","","","","1213","","0","yellow","purple","[""yellow"",""purple"",""high nameability""]","right-left","[""purple"",""yellow""]","2","high nameability","19","right","trigger",""
"html-button-response","98","104863","0.0-76.0-0.0","CKN_123","123","","","","","","2225","<button class=""jspsych-btn""><img src=""stimuli/yellow.png"" style=""width: 200px;height: 200px;""></button>","1","yellow","purple","[""yellow"",""purple"",""high nameability""]","right-left","[""purple"",""yellow""]","2","high nameability","19","right","response","1"
"html-audio-button-response","99","105066","0.0-76.0-1.0","CKN_123","123","","","","","","null","stimuli/bleep.m4a","null","yellow","purple","[""yellow"",""purple"",""high nameability""]","right-left","[""purple"",""yellow""]","2","high nameability","19","right","audio_feedback","1"
"html-button-response","100","105603","0.0-77.0","CKN_123","123","","","","","","null","<button class=""jspsych-btn""><img src=""stimuli/white_square.png"" style=""width: 200px;height: 200px;""></button>","null","yellow","purple","[""yellow"",""purple"",""high nameability""]","right-left","[""purple"",""yellow""]","2","high nameability","19","right","iti",""
"html-button-response","101","105939","0.0-78.0","CKN_123","123","","","","","","317","","0","orange","brown","[""orange"",""brown"",""high nameability""]","left-right","[""orange"",""brown"",""high nameability""]","2","high nameability","20","left","trigger",""
"html-button-response","102","107196","0.0-79.0-0.0","CKN_123","123","","","","","","1246","<button class=""jspsych-btn""><img src=""stimuli/orange.png"" style=""width: 200px;height: 200px;""></button>","0","orange","brown","[""orange"",""brown"",""high nameability""]","left-right","[""orange"",""brown"",""high nameability""]","2","high nameability","20","left","response","1"
"html-audio-button-response","103","107413","0.0-79.0-1.0","CKN_123","123","","","","","","null","stimuli/bleep.m4a","null","orange","brown","[""orange"",""brown"",""high nameability""]","left-right","[""orange"",""brown"",""high nameability""]","2","high nameability","20","left","audio_feedback","1"
"html-button-response","104","107957","0.0-80.0","CKN_123","123","","","","","","null","<button class=""jspsych-btn""><img src=""stimuli/white_square.png"" style=""width: 200px;height: 200px;""></button>","null","orange","brown","[""orange"",""brown"",""high nameability""]","left-right","[""orange"",""brown"",""high nameability""]","2","high nameability","20","left","iti",""
"pavlovia","105","108058","0.0-81.0","CKN_123","123","","","","","","","","","","","","","","","","","","",""
"pavlovia","106","108073","0.0-82.0","CKN_123","123","","","","","","","","","","","","","","","","","","",""
"html-audio-button-response","107","113493","0.0-83.0","CKN_123","123","","","","","","5539","stimuli/tada.m4a","0","","","","","","","","","","",""
"html-button-response","108","114014","0.0-84.0","CKN_123","123","","","","","","512","","0","","","","","","","","","","",""
"html-button-response","109","117649","0.0-85.0","CKN_123","123","","","","","","3621","","0","mustard","turquoise","[""mustard"",""turquoise"",""low nameability""]","left-right","[""mustard"",""turquoise"",""low nameability""]","3","low nameability","21","left","trigger",""
"html-button-response","110","118834","0.0-86.0-0.0","CKN_123","123","","","","","","1168","<button class=""jspsych-btn""><img src=""stimuli/mustard.png"" style=""width: 200px;height: 200px;""></button>","0","mustard","turquoise","[""mustard"",""turquoise"",""low nameability""]","left-right","[""mustard"",""turquoise"",""low nameability""]","3","low nameability","21","left","response","1"
"html-audio-button-response","111","119048","0.0-86.0-1.0","CKN_123","123","","","","","","null","stimuli/bleep.m4a","null","mustard","turquoise","[""mustard"",""turquoise"",""low nameability""]","left-right","[""mustard"",""turquoise"",""low nameability""]","3","low nameability","21","left","audio_feedback","1"
"html-button-response","112","119587","0.0-87.0","CKN_123","123","","","","","","null","<button class=""jspsych-btn""><img src=""stimuli/white_square.png"" style=""width: 200px;height: 200px;""></button>","null","mustard","turquoise","[""mustard"",""turquoise"",""low nameability""]","left-right","[""mustard"",""turquoise"",""low nameability""]","3","low nameability","21","left","iti",""
"html-button-response","113","121099","0.0-88.0","CKN_123","123","","","","","","1484","","0","pink","darkgreenblue","[""pink"",""darkgreenblue"",""low nameability""]","right-left","[""darkgreenblue"",""pink""]","3","low nameability","22","right","trigger",""
"html-button-response","114","122414","0.0-89.0-0.0","CKN_123","123","","","","","","1303","<button class=""jspsych-btn""><img src=""stimuli/pink.png"" style=""width: 200px;height: 200px;""></button>","1","pink","darkgreenblue","[""pink"",""darkgreenblue"",""low nameability""]","right-left","[""darkgreenblue"",""pink""]","3","low nameability","22","right","response","1"
"html-audio-button-response","115","122620","0.0-89.0-1.0","CKN_123","123","","","","","","null","stimuli/bleep.m4a","null","pink","darkgreenblue","[""pink"",""darkgreenblue"",""low nameability""]","right-left","[""darkgreenblue"",""pink""]","3","low nameability","22","right","audio_feedback","1"
"html-button-response","116","123141","0.0-90.0","CKN_123","123","","","","","","null","<button class=""jspsych-btn""><img src=""stimuli/white_square.png"" style=""width: 200px;height: 200px;""></button>","null","pink","darkgreenblue","[""pink"",""darkgreenblue"",""low nameability""]","right-left","[""darkgreenblue"",""pink""]","3","low nameability","22","right","iti",""
"html-button-response","117","124241","0.0-91.0","CKN_123","123","","","","","","1085","","0","mustard","pink","[""mustard"",""pink"",""low nameability""]","right-left","[""pink"",""mustard""]","3","low nameability","23","right","trigger",""
"html-button-response","118","125066","0.0-92.0-0.0","CKN_123","123","","","","","","820","<button class=""jspsych-btn""><img src=""stimuli/mustard.png"" style=""width: 200px;height: 200px;""></button>","1","mustard","pink","[""mustard"",""pink"",""low nameability""]","right-left","[""pink"",""mustard""]","3","low nameability","23","right","response","1"
"html-audio-button-response","119","125279","0.0-92.0-1.0","CKN_123","123","","","","","","null","stimuli/bleep.m4a","null","mustard","pink","[""mustard"",""pink"",""low nameability""]","right-left","[""pink"",""mustard""]","3","low nameability","23","right","audio_feedback","1"
"html-button-response","120","125818","0.0-93.0","CKN_123","123","","","","","","null","<button class=""jspsych-btn""><img src=""stimuli/white_square.png"" style=""width: 200px;height: 200px;""></button>","null","mustard","pink","[""mustard"",""pink"",""low nameability""]","right-left","[""pink"",""mustard""]","3","low nameability","23","right","iti",""
"html-button-response","121","126784","0.0-94.0","CKN_123","123","","","","","","936","","0","lightred","neonyellow","[""lightred"",""neonyellow"",""low nameability""]","left-right","[""lightred"",""neonyellow"",""low nameability""]","3","low nameability","24","left","trigger",""
"html-button-response","122","127976","0.0-95.0-0.0","CKN_123","123","","","","","","1182","<button class=""jspsych-btn""><img src=""stimuli/lightred.png"" style=""width: 200px;height: 200px;""></button>","0","lightred","neonyellow","[""lightred"",""neonyellow"",""low nameability""]","left-right","[""lightred"",""neonyellow"",""low nameability""]","3","low nameability","24","left","response","1"
"html-audio-button-response","123","128178","0.0-95.0-1.0","CKN_123","123","","","","","","null","stimuli/bleep.m4a","null","lightred","neonyellow","[""lightred"",""neonyellow"",""low nameability""]","left-right","[""lightred"",""neonyellow"",""low nameability""]","3","low nameability","24","left","audio_feedback","1"
"html-button-response","124","128690","0.0-96.0","CKN_123","123","","","","","","null","<button class=""jspsych-btn""><img src=""stimuli/white_square.png"" style=""width: 200px;height: 200px;""></button>","null","lightred","neonyellow","[""lightred"",""neonyellow"",""low nameability""]","left-right","[""lightred"",""neonyellow"",""low nameability""]","3","low nameability","24","left","iti",""
"html-button-response","125","129841","0.0-97.0","CKN_123","123","","","","","","1138","","0","purple","red","[""purple"",""red"",""high nameability""]","left-right","[""purple"",""red"",""high nameability""]","3","high nameability","25","left","trigger",""
"html-button-response","126","130980","0.0-98.0-0.0","CKN_123","123","","","","","","1130","<button class=""jspsych-btn""><img src=""stimuli/purple.png"" style=""width: 200px;height: 200px;""></button>","0","purple","red","[""purple"",""red"",""high nameability""]","left-right","[""purple"",""red"",""high nameability""]","3","high nameability","25","left","response","1"
"html-audio-button-response","127","131187","0.0-98.0-1.0","CKN_123","123","","","","","","null","stimuli/bleep.m4a","null","purple","red","[""purple"",""red"",""high nameability""]","left-right","[""purple"",""red"",""high nameability""]","3","high nameability","25","left","audio_feedback","1"
"html-button-response","128","131719","0.0-99.0","CKN_123","123","","","","","","null","<button class=""jspsych-btn""><img src=""stimuli/white_square.png"" style=""width: 200px;height: 200px;""></button>","null","purple","red","[""purple"",""red"",""high nameability""]","left-right","[""purple"",""red"",""high nameability""]","3","high nameability","25","left","iti",""
"html-button-response","129","132799","0.0-100.0","CKN_123","123","","","","","","1062","","0","red","orange","[""red"",""orange"",""high nameability""]","right-left","[""orange"",""red""]","3","high nameability","26","right","trigger",""
"html-button-response","130","133993","0.0-101.0-0.0","CKN_123","123","","","","","","1187","<button class=""jspsych-btn""><img src=""stimuli/red.png"" style=""width: 200px;height: 200px;""></button>","1","red","orange","[""red"",""orange"",""high nameability""]","right-left","[""orange"",""red""]","3","high nameability","26","right","response","1"
"html-audio-button-response","131","134196","0.0-101.0-1.0","CKN_123","123","","","","","","null","stimuli/bleep.m4a","null","red","orange","[""red"",""orange"",""high nameability""]","right-left","[""orange"",""red""]","3","high nameability","26","right","audio_feedback","1"
"html-button-response","132","134714","0.0-102.0","CKN_123","123","","","","","","null","<button class=""jspsych-btn""><img src=""stimuli/white_square.png"" style=""width: 200px;height: 200px;""></button>","null","red","orange","[""red"",""orange"",""high nameability""]","right-left","[""orange"",""red""]","3","high nameability","26","right","iti",""
"html-button-response","133","137868","0.0-103.0","CKN_123","123","","","","","","3135","","0","pink","lightred","[""pink"",""lightred"",""low nameability""]","left-right","[""pink"",""lightred"",""low nameability""]","3","low nameability","27","left","trigger",""
"html-button-response","134","138998","0.0-104.0-0.0","CKN_123","123","","","","","","1125","<button class=""jspsych-btn""><img src=""stimuli/pink.png"" style=""width: 200px;height: 200px;""></button>","0","pink","lightred","[""pink"",""lightred"",""low nameability""]","left-right","[""pink"",""lightred"",""low nameability""]","3","low nameability","27","left","response","1"
"html-audio-button-response","135","139202","0.0-104.0-1.0","CKN_123","123","","","","","","null","stimuli/bleep.m4a","null","pink","lightred","[""pink"",""lightred"",""low nameability""]","left-right","[""pink"",""lightred"",""low nameability""]","3","low nameability","27","left","audio_feedback","1"
"html-button-response","136","139721","0.0-105.0","CKN_123","123","","","","","","null","<button class=""jspsych-btn""><img src=""stimuli/white_square.png"" style=""width: 200px;height: 200px;""></button>","null","pink","lightred","[""pink"",""lightred"",""low nameability""]","left-right","[""pink"",""lightred"",""low nameability""]","3","low nameability","27","left","iti",""
"html-button-response","137","140469","0.0-106.0","CKN_123","123","","","","","","739","","0","red","purple","[""red"",""purple"",""high nameability""]","left-right","[""red"",""purple"",""high nameability""]","3","high nameability","28","left","trigger",""
"html-button-response","138","141577","0.0-107.0-0.0","CKN_123","123","","","","","","1102","<button class=""jspsych-btn""><img src=""stimuli/red.png"" style=""width: 200px;height: 200px;""></button>","0","red","purple","[""red"",""purple"",""high nameability""]","left-right","[""red"",""purple"",""high nameability""]","3","high nameability","28","left","response","1"
"html-audio-button-response","139","141779","0.0-107.0-1.0","CKN_123","123","","","","","","null","stimuli/bleep.m4a","null","red","purple","[""red"",""purple"",""high nameability""]","left-right","[""red"",""purple"",""high nameability""]","3","high nameability","28","left","audio_feedback","1"
"html-button-response","140","142303","0.0-108.0","CKN_123","123","","","","","","null","<button class=""jspsych-btn""><img src=""stimuli/white_square.png"" style=""width: 200px;height: 200px;""></button>","null","red","purple","[""red"",""purple"",""high nameability""]","left-right","[""red"",""purple"",""high nameability""]","3","high nameability","28","left","iti",""
"html-button-response","141","143334","0.0-109.0","CKN_123","123","","","","","","1018","","0","pink","mustard","[""pink"",""mustard"",""low nameability""]","right-left","[""mustard"",""pink""]","3","low nameability","29","right","trigger",""
"html-button-response","142","144428","0.0-110.0-0.0","CKN_123","123","","","","","","1086","<button class=""jspsych-btn""><img src=""stimuli/pink.png"" style=""width: 200px;height: 200px;""></button>","1","pink","mustard","[""pink"",""mustard"",""low nameability""]","right-left","[""mustard"",""pink""]","3","low nameability","29","right","response","1"
"html-audio-button-response","143","144637","0.0-110.0-1.0","CKN_123","123","","","","","","null","stimuli/bleep.m4a","null","pink","mustard","[""pink"",""mustard"",""low nameability""]","right-left","[""mustard"",""pink""]","3","low nameability","29","right","audio_feedback","1"
"html-button-response","144","145181","0.0-111.0","CKN_123","123","","","","","","null","<button class=""jspsych-btn""><img src=""stimuli/white_square.png"" style=""width: 200px;height: 200px;""></button>","null","pink","mustard","[""pink"",""mustard"",""low nameability""]","right-left","[""mustard"",""pink""]","3","low nameability","29","right","iti",""
"html-button-response","145","146108","0.0-112.0","CKN_123","123","","","","","","916","","0","red","blue","[""red"",""blue"",""high nameability""]","left-right","[""red"",""blue"",""high nameability""]","3","high nameability","30","left","trigger",""
"html-button-response","146","147176","0.0-113.0-0.0","CKN_123","123","","","","","","1062","<button class=""jspsych-btn""><img src=""stimuli/red.png"" style=""width: 200px;height: 200px;""></button>","1","red","blue","[""red"",""blue"",""high nameability""]","left-right","[""red"",""blue"",""high nameability""]","3","high nameability","30","left","response","0"
"html-audio-button-response","147","147823","0.0-113.0-1.0","CKN_123","123","","","","","","null","stimuli/boing.m4a","null","red","blue","[""red"",""blue"",""high nameability""]","left-right","[""red"",""blue"",""high nameability""]","3","high nameability","30","left","audio_feedback","0"
"html-button-response","148","148837","0.0-113.1-0.1","CKN_123","123","","","","","","967","<button class=""jspsych-btn""><img src=""stimuli/red.png"" style=""width: 200px;height: 200px;""></button>","0","red","blue","[""red"",""blue"",""high nameability""]","left-right","[""red"",""blue"",""high nameability""]","3","high nameability","30","left","response","1"
"html-audio-button-response","149","149049","0.0-113.1-1.1","CKN_123","123","","","","","","null","stimuli/bleep.m4a","null","red","blue","[""red"",""blue"",""high nameability""]","left-right","[""red"",""blue"",""high nameability""]","3","high nameability","30","left","audio_feedback","1"
"html-button-response","150","149593","0.0-114.0","CKN_123","123","","","","","","null","<button class=""jspsych-btn""><img src=""stimuli/white_square.png"" style=""width: 200px;height: 200px;""></button>","null","red","blue","[""red"",""blue"",""high nameability""]","left-right","[""red"",""blue"",""high nameability""]","3","high nameability","30","left","iti",""
"pavlovia","151","149669","0.0-115.0","CKN_123","123","","","","","","","","","","","","","","","","","","",""
"pavlovia","152","149682","0.0-116.0","CKN_123","123","","","","","","","","","","","","","","","","","","",""
"html-audio-button-response","153","153350","0.0-117.0","CKN_123","123","","","","","","3757","stimuli/tada.m4a","0","","","","","","","","","","",""
"html-button-response","154","153927","0.0-118.0","CKN_123","123","","","","","","571","","0","","","","","","","","","","",""
"html-button-response","155","155563","0.0-119.0","CKN_123","123","","","","","","1631","","0","blue","brown","[""blue"",""brown"",""high nameability""]","right-left","[""brown"",""blue""]","4","high nameability","31","right","trigger",""
"html-button-response","156","158111","0.0-120.0-0.0","CKN_123","123","","","","","","2538","<button class=""jspsych-btn""><img src=""stimuli/blue.png"" style=""width: 200px;height: 200px;""></button>","1","blue","brown","[""blue"",""brown"",""high nameability""]","right-left","[""brown"",""blue""]","4","high nameability","31","right","response","1"
"html-audio-button-response","157","158323","0.0-120.0-1.0","CKN_123","123","","","","","","null","stimuli/bleep.m4a","null","blue","brown","[""blue"",""brown"",""high nameability""]","right-left","[""brown"",""blue""]","4","high nameability","31","right","audio_feedback","1"
"html-button-response","158","158859","0.0-121.0","CKN_123","123","","","","","","null","<button class=""jspsych-btn""><img src=""stimuli/white_square.png"" style=""width: 200px;height: 200px;""></button>","null","blue","brown","[""blue"",""brown"",""high nameability""]","right-left","[""brown"",""blue""]","4","high nameability","31","right","iti",""
"html-button-response","159","159550","0.0-122.0","CKN_123","123","","","","","","665","","0","yellow","blue","[""yellow"",""blue"",""high nameability""]","left-right","[""yellow"",""blue"",""high nameability""]","4","high nameability","32","left","trigger",""
"html-button-response","160","160459","0.0-123.0-0.0","CKN_123","123","","","","","","904","<button class=""jspsych-btn""><img src=""stimuli/yellow.png"" style=""width: 200px;height: 200px;""></button>","1","yellow","blue","[""yellow"",""blue"",""high nameability""]","left-right","[""yellow"",""blue"",""high nameability""]","4","high nameability","32","left","response","0"
"html-audio-button-response","161","161087","0.0-123.0-1.0","CKN_123","123","","","","","","null","stimuli/boing.m4a","null","yellow","blue","[""yellow"",""blue"",""high nameability""]","left-right","[""yellow"",""blue"",""high nameability""]","4","high nameability","32","left","audio_feedback","0"
"html-button-response","162","161659","0.0-123.1-0.1","CKN_123","123","","","","","","550","<button class=""jspsych-btn""><img src=""stimuli/yellow.png"" style=""width: 200px;height: 200px;""></button>","0","yellow","blue","[""yellow"",""blue"",""high nameability""]","left-right","[""yellow"",""blue"",""high nameability""]","4","high nameability","32","left","response","1"
"html-audio-button-response","163","161858","0.0-123.1-1.1","CKN_123","123","","","","","","null","stimuli/bleep.m4a","null","yellow","blue","[""yellow"",""blue"",""high nameability""]","left-right","[""yellow"",""blue"",""high nameability""]","4","high nameability","32","left","audio_feedback","1"
"html-button-response","164","162370","0.0-124.0","CKN_123","123","","","","","","null","<button class=""jspsych-btn""><img src=""stimuli/white_square.png"" style=""width: 200px;height: 200px;""></button>","null","yellow","blue","[""yellow"",""blue"",""high nameability""]","left-right","[""yellow"",""blue"",""high nameability""]","4","high nameability","32","left","iti",""
"html-button-response","165","166214","0.0-125.0","CKN_123","123","","","","","","3828","","0","turquoise","neonyellow","[""turquoise"",""neonyellow"",""low nameability""]","left-right","[""turquoise"",""neonyellow"",""low nameability""]","4","low nameability","33","left","trigger",""
"html-button-response","166","167269","0.0-126.0-0.0","CKN_123","123","","","","","","1047","<button class=""jspsych-btn""><img src=""stimuli/turquoise.png"" style=""width: 200px;height: 200px;""></button>","0","turquoise","neonyellow","[""turquoise"",""neonyellow"",""low nameability""]","left-right","[""turquoise"",""neonyellow"",""low nameability""]","4","low nameability","33","left","response","1"
"html-audio-button-response","167","167476","0.0-126.0-1.0","CKN_123","123","","","","","","null","stimuli/bleep.m4a","null","turquoise","neonyellow","[""turquoise"",""neonyellow"",""low nameability""]","left-right","[""turquoise"",""neonyellow"",""low nameability""]","4","low nameability","33","left","audio_feedback","1"
"html-button-response","168","167997","0.0-127.0","CKN_123","123","","","","","","null","<button class=""jspsych-btn""><img src=""stimuli/white_square.png"" style=""width: 200px;height: 200px;""></button>","null","turquoise","neonyellow","[""turquoise"",""neonyellow"",""low nameability""]","left-right","[""turquoise"",""neonyellow"",""low nameability""]","4","low nameability","33","left","iti",""
"html-button-response","169","169713","0.0-128.0","CKN_123","123","","","","","","1703","","0","lightred","pink","[""lightred"",""pink"",""low nameability""]","right-left","[""pink"",""lightred""]","4","low nameability","34","right","trigger",""
"html-button-response","170","170814","0.0-129.0-0.0","CKN_123","123","","","","","","1094","<button class=""jspsych-btn""><img src=""stimuli/lightred.png"" style=""width: 200px;height: 200px;""></button>","1","lightred","pink","[""lightred"",""pink"",""low nameability""]","right-left","[""pink"",""lightred""]","4","low nameability","34","right","response","1"
"html-audio-button-response","171","171019","0.0-129.0-1.0","CKN_123","123","","","","","","null","stimuli/bleep.m4a","null","lightred","pink","[""lightred"",""pink"",""low nameability""]","right-left","[""pink"",""lightred""]","4","low nameability","34","right","audio_feedback","1"
"html-button-response","172","171548","0.0-130.0","CKN_123","123","","","","","","null","<button class=""jspsych-btn""><img src=""stimuli/white_square.png"" style=""width: 200px;height: 200px;""></button>","null","lightred","pink","[""lightred"",""pink"",""low nameability""]","right-left","[""pink"",""lightred""]","4","low nameability","34","right","iti",""
"html-button-response","173","172216","0.0-131.0","CKN_123","123","","","","","","658","","0","darkgreenblue","neonyellow","[""darkgreenblue"",""neonyellow"",""low nameability""]","left-right","[""darkgreenblue"",""neonyellow"",""low nameability""]","4","low nameability","35","left","trigger",""
"html-button-response","174","173299","0.0-132.0-0.0","CKN_123","123","","","","","","1071","<button class=""jspsych-btn""><img src=""stimuli/darkgreenblue.png"" style=""width: 200px;height: 200px;""></button>","0","darkgreenblue","neonyellow","[""darkgreenblue"",""neonyellow"",""low nameability""]","left-right","[""darkgreenblue"",""neonyellow"",""low nameability""]","4","low nameability","35","left","response","1"
"html-audio-button-response","175","173520","0.0-132.0-1.0","CKN_123","123","","","","","","null","stimuli/bleep.m4a","null","darkgreenblue","neonyellow","[""darkgreenblue"",""neonyellow"",""low nameability""]","left-right","[""darkgreenblue"",""neonyellow"",""low nameability""]","4","low nameability","35","left","audio_feedback","1"
"html-button-response","176","174062","0.0-133.0","CKN_123","123","","","","","","null","<button class=""jspsych-btn""><img src=""stimuli/white_square.png"" style=""width: 200px;height: 200px;""></button>","null","darkgreenblue","neonyellow","[""darkgreenblue"",""neonyellow"",""low nameability""]","left-right","[""darkgreenblue"",""neonyellow"",""low nameability""]","4","low nameability","35","left","iti",""
"html-button-response","177","174569","0.0-134.0","CKN_123","123","","","","","","483","","0","neonyellow","lightred","[""neonyellow"",""lightred"",""low nameability""]","left-right","[""neonyellow"",""lightred"",""low nameability""]","4","low nameability","36","left","trigger",""
"html-button-response","178","176308","0.0-135.0-0.0","CKN_123","123","","","","","","1727","<button class=""jspsych-btn""><img src=""stimuli/neonyellow.png"" style=""width: 200px;height: 200px;""></button>","0","neonyellow","lightred","[""neonyellow"",""lightred"",""low nameability""]","left-right","[""neonyellow"",""lightred"",""low nameability""]","4","low nameability","36","left","response","1"
"html-audio-button-response","179","176528","0.0-135.0-1.0","CKN_123","123","","","","","","null","stimuli/bleep.m4a","null","neonyellow","lightred","[""neonyellow"",""lightred"",""low nameability""]","left-right","[""neonyellow"",""lightred"",""low nameability""]","4","low nameability","36","left","audio_feedback","1"
"html-button-response","180","177060","0.0-136.0","CKN_123","123","","","","","","null","<button class=""jspsych-btn""><img src=""stimuli/white_square.png"" style=""width: 200px;height: 200px;""></button>","null","neonyellow","lightred","[""neonyellow"",""lightred"",""low nameability""]","left-right","[""neonyellow"",""lightred"",""low nameability""]","4","low nameability","36","left","iti",""
"html-button-response","181","178030","0.0-137.0","CKN_123","123","","","","","","952","","0","brown","orange","[""brown"",""orange"",""high nameability""]","right-left","[""orange"",""brown""]","4","high nameability","37","right","trigger",""
"html-button-response","182","179496","0.0-138.0-0.0","CKN_123","123","","","","","","1451","<button class=""jspsych-btn""><img src=""stimuli/brown.png"" style=""width: 200px;height: 200px;""></button>","1","brown","orange","[""brown"",""orange"",""high nameability""]","right-left","[""orange"",""brown""]","4","high nameability","37","right","response","1"
"html-audio-button-response","183","179706","0.0-138.0-1.0","CKN_123","123","","","","","","null","stimuli/bleep.m4a","null","brown","orange","[""brown"",""orange"",""high nameability""]","right-left","[""orange"",""brown""]","4","high nameability","37","right","audio_feedback","1"
"html-button-response","184","180234","0.0-139.0","CKN_123","123","","","","","","null","<button class=""jspsych-btn""><img src=""stimuli/white_square.png"" style=""width: 200px;height: 200px;""></button>","null","brown","orange","[""brown"",""orange"",""high nameability""]","right-left","[""orange"",""brown""]","4","high nameability","37","right","iti",""
"html-button-response","185","182367","0.0-140.0","CKN_123","123","","","","","","2112","","0","blue","purple","[""blue"",""purple"",""high nameability""]","right-left","[""purple"",""blue""]","4","high nameability","38","right","trigger",""
"html-button-response","186","183197","0.0-141.0-0.0","CKN_123","123","","","","","","820","<button class=""jspsych-btn""><img src=""stimuli/blue.png"" style=""width: 200px;height: 200px;""></button>","1","blue","purple","[""blue"",""purple"",""high nameability""]","right-left","[""purple"",""blue""]","4","high nameability","38","right","response","1"
"html-audio-button-response","187","183402","0.0-141.0-1.0","CKN_123","123","","","","","","null","stimuli/bleep.m4a","null","blue","purple","[""blue"",""purple"",""high nameability""]","right-left","[""purple"",""blue""]","4","high nameability","38","right","audio_feedback","1"
"html-button-response","188","183927","0.0-142.0","CKN_123","123","","","","","","null","<button class=""jspsych-btn""><img src=""stimuli/white_square.png"" style=""width: 200px;height: 200px;""></button>","null","blue","purple","[""blue"",""purple"",""high nameability""]","right-left","[""purple"",""blue""]","4","high nameability","38","right","iti",""
"html-button-response","189","185068","0.0-143.0","CKN_123","123","","","","","","1125","","0","orange","yellow","[""orange"",""yellow"",""high nameability""]","left-right","[""orange"",""yellow"",""high nameability""]","4","high nameability","39","left","trigger",""
"html-button-response","190","186255","0.0-144.0-0.0","CKN_123","123","","","","","","1179","<button class=""jspsych-btn""><img src=""stimuli/orange.png"" style=""width: 200px;height: 200px;""></button>","0","orange","yellow","[""orange"",""yellow"",""high nameability""]","left-right","[""orange"",""yellow"",""high nameability""]","4","high nameability","39","left","response","1"
"html-audio-button-response","191","186469","0.0-144.0-1.0","CKN_123","123","","","","","","null","stimuli/bleep.m4a","null","orange","yellow","[""orange"",""yellow"",""high nameability""]","left-right","[""orange"",""yellow"",""high nameability""]","4","high nameability","39","left","audio_feedback","1"
"html-button-response","192","186996","0.0-145.0","CKN_123","123","","","","","","null","<button class=""jspsych-btn""><img src=""stimuli/white_square.png"" style=""width: 200px;height: 200px;""></button>","null","orange","yellow","[""orange"",""yellow"",""high nameability""]","left-right","[""orange"",""yellow"",""high nameability""]","4","high nameability","39","left","iti",""
"html-button-response","193","188285","0.0-146.0","CKN_123","123","","","","","","1275","","0","purple","orange","[""purple"",""orange"",""high nameability""]","left-right","[""purple"",""orange"",""high nameability""]","4","high nameability","40","left","trigger",""
"html-button-response","194","189327","0.0-147.0-0.0","CKN_123","123","","","","","","1035","<button class=""jspsych-btn""><img src=""stimuli/purple.png"" style=""width: 200px;height: 200px;""></button>","0","purple","orange","[""purple"",""orange"",""high nameability""]","left-right","[""purple"",""orange"",""high nameability""]","4","high nameability","40","left","response","1"
"html-audio-button-response","195","189532","0.0-147.0-1.0","CKN_123","123","","","","","","null","stimuli/bleep.m4a","null","purple","orange","[""purple"",""orange"",""high nameability""]","left-right","[""purple"",""orange"",""high nameability""]","4","high nameability","40","left","audio_feedback","1"
"html-button-response","196","190054","0.0-148.0","CKN_123","123","","","","","","null","<button class=""jspsych-btn""><img src=""stimuli/white_square.png"" style=""width: 200px;height: 200px;""></button>","null","purple","orange","[""purple"",""orange"",""high nameability""]","left-right","[""purple"",""orange"",""high nameability""]","4","high nameability","40","left","iti",""
"pavlovia","197","190172","0.0-149.0","CKN_123","123","","","","","","","","","","","","","","","","","","",""
"pavlovia","198","190186","0.0-150.0","CKN_123","123","","","","","","","","","","","","","","","","","","",""
"html-audio-button-response","199","193623","0.0-151.0","CKN_123","123","","","","","","3573","stimuli/tada.m4a","0","","","","","","","","","","",""
"html-button-response","200","194099","0.0-152.0","CKN_123","123","","","","","","471","","0","","","","","","","","","","",""
"html-button-response","201","196118","0.0-153.0","CKN_123","123","","","","","","2011","","0","orange","purple","[""orange"",""purple"",""high nameability""]","right-left","[""purple"",""orange""]","5","high nameability","41","right","trigger",""
"html-button-response","202","197494","0.0-154.0-0.0","CKN_123","123","","","","","","1365","<button class=""jspsych-btn""><img src=""stimuli/orange.png"" style=""width: 200px;height: 200px;""></button>","0","orange","purple","[""orange"",""purple"",""high nameability""]","right-left","[""purple"",""orange""]","5","high nameability","41","right","response","0"
"html-audio-button-response","203","198117","0.0-154.0-1.0","CKN_123","123","","","","","","null","stimuli/boing.m4a","null","orange","purple","[""orange"",""purple"",""high nameability""]","right-left","[""purple"",""orange""]","5","high nameability","41","right","audio_feedback","0"
"html-button-response","204","198390","0.0-154.1-0.1","CKN_123","123","","","","","","252","<button class=""jspsych-btn""><img src=""stimuli/orange.png"" style=""width: 200px;height: 200px;""></button>","1","orange","purple","[""orange"",""purple"",""high nameability""]","right-left","[""purple"",""orange""]","5","high nameability","41","right","response","1"
"html-audio-button-response","205","198600","0.0-154.1-1.1","CKN_123","123","","","","","","null","stimuli/bleep.m4a","null","orange","purple","[""orange"",""purple"",""high nameability""]","right-left","[""purple"",""orange""]","5","high nameability","41","right","audio_feedback","1"
"html-button-response","206","199117","0.0-155.0","CKN_123","123","","","","","","null","<button class=""jspsych-btn""><img src=""stimuli/white_square.png"" style=""width: 200px;height: 200px;""></button>","null","orange","purple","[""orange"",""purple"",""high nameability""]","right-left","[""purple"",""orange""]","5","high nameability","41","right","iti",""
"html-button-response","207","200919","0.0-156.0","CKN_123","123","","","","","","1785","","0","neonyellow","turquoise","[""neonyellow"",""turquoise"",""low nameability""]","left-right","[""neonyellow"",""turquoise"",""low nameability""]","5","low nameability","42","left","trigger",""
"html-button-response","208","202375","0.0-157.0-0.0","CKN_123","123","","","","","","1448","<button class=""jspsych-btn""><img src=""stimuli/neonyellow.png"" style=""width: 200px;height: 200px;""></button>","0","neonyellow","turquoise","[""neonyellow"",""turquoise"",""low nameability""]","left-right","[""neonyellow"",""turquoise"",""low nameability""]","5","low nameability","42","left","response","1"
"html-audio-button-response","209","202582","0.0-157.0-1.0","CKN_123","123","","","","","","null","stimuli/bleep.m4a","null","neonyellow","turquoise","[""neonyellow"",""turquoise"",""low nameability""]","left-right","[""neonyellow"",""turquoise"",""low nameability""]","5","low nameability","42","left","audio_feedback","1"
"html-button-response","210","203106","0.0-158.0","CKN_123","123","","","","","","null","<button class=""jspsych-btn""><img src=""stimuli/white_square.png"" style=""width: 200px;height: 200px;""></button>","null","neonyellow","turquoise","[""neonyellow"",""turquoise"",""low nameability""]","left-right","[""neonyellow"",""turquoise"",""low nameability""]","5","low nameability","42","left","iti",""
"html-button-response","211","204027","0.0-159.0","CKN_123","123","","","","","","913","","0","lightred","darkgreenblue","[""lightred"",""darkgreenblue"",""low nameability""]","right-left","[""darkgreenblue"",""lightred""]","5","low nameability","43","right","trigger",""
"html-button-response","212","205853","0.0-160.0-0.0","CKN_123","123","","","","","","1817","<button class=""jspsych-btn""><img src=""stimuli/lightred.png"" style=""width: 200px;height: 200px;""></button>","1","lightred","darkgreenblue","[""lightred"",""darkgreenblue"",""low nameability""]","right-left","[""darkgreenblue"",""lightred""]","5","low nameability","43","right","response","1"
"html-audio-button-response","213","206061","0.0-160.0-1.0","CKN_123","123","","","","","","null","stimuli/bleep.m4a","null","lightred","darkgreenblue","[""lightred"",""darkgreenblue"",""low nameability""]","right-left","[""darkgreenblue"",""lightred""]","5","low nameability","43","right","audio_feedback","1"
"html-button-response","214","206574","0.0-161.0","CKN_123","123","","","","","","null","<button class=""jspsych-btn""><img src=""stimuli/white_square.png"" style=""width: 200px;height: 200px;""></button>","null","lightred","darkgreenblue","[""lightred"",""darkgreenblue"",""low nameability""]","right-left","[""darkgreenblue"",""lightred""]","5","low nameability","43","right","iti",""
"html-button-response","215","207375","0.0-162.0","CKN_123","123","","","","","","789","","0","brown","blue","[""brown"",""blue"",""high nameability""]","left-right","[""brown"",""blue"",""high nameability""]","5","high nameability","44","left","trigger",""
"html-button-response","216","208603","0.0-163.0-0.0","CKN_123","123","","","","","","1221","<button class=""jspsych-btn""><img src=""stimuli/brown.png"" style=""width: 200px;height: 200px;""></button>","0","brown","blue","[""brown"",""blue"",""high nameability""]","left-right","[""brown"",""blue"",""high nameability""]","5","high nameability","44","left","response","1"
"html-audio-button-response","217","208802","0.0-163.0-1.0","CKN_123","123","","","","","","null","stimuli/bleep.m4a","null","brown","blue","[""brown"",""blue"",""high nameability""]","left-right","[""brown"",""blue"",""high nameability""]","5","high nameability","44","left","audio_feedback","1"
"html-button-response","218","209321","0.0-164.0","CKN_123","123","","","","","","null","<button class=""jspsych-btn""><img src=""stimuli/white_square.png"" style=""width: 200px;height: 200px;""></button>","null","brown","blue","[""brown"",""blue"",""high nameability""]","left-right","[""brown"",""blue"",""high nameability""]","5","high nameability","44","left","iti",""
"html-button-response","219","211130","0.0-165.0","CKN_123","123","","","","","","1798","","0","orange","red","[""orange"",""red"",""high nameability""]","right-left","[""red"",""orange""]","5","high nameability","45","right","trigger",""
"html-button-response","220","212042","0.0-166.0-0.0","CKN_123","123","","","","","","906","<button class=""jspsych-btn""><img src=""stimuli/orange.png"" style=""width: 200px;height: 200px;""></button>","1","orange","red","[""orange"",""red"",""high nameability""]","right-left","[""red"",""orange""]","5","high nameability","45","right","response","1"
"html-audio-button-response","221","212254","0.0-166.0-1.0","CKN_123","123","","","","","","null","stimuli/bleep.m4a","null","orange","red","[""orange"",""red"",""high nameability""]","right-left","[""red"",""orange""]","5","high nameability","45","right","audio_feedback","1"
"html-button-response","222","212791","0.0-167.0","CKN_123","123","","","","","","null","<button class=""jspsych-btn""><img src=""stimuli/white_square.png"" style=""width: 200px;height: 200px;""></button>","null","orange","red","[""orange"",""red"",""high nameability""]","right-left","[""red"",""orange""]","5","high nameability","45","right","iti",""
"html-button-response","223","213771","0.0-168.0","CKN_123","123","","","","","","962","","0","turquoise","lightred","[""turquoise"",""lightred"",""low nameability""]","right-left","[""lightred"",""turquoise""]","5","low nameability","46","right","trigger",""
"html-button-response","224","214817","0.0-169.0-0.0","CKN_123","123","","","","","","1041","<button class=""jspsych-btn""><img src=""stimuli/turquoise.png"" style=""width: 200px;height: 200px;""></button>","1","turquoise","lightred","[""turquoise"",""lightred"",""low nameability""]","right-left","[""lightred"",""turquoise""]","5","low nameability","46","right","response","1"
"html-audio-button-response","225","215019","0.0-169.0-1.0","CKN_123","123","","","","","","null","stimuli/bleep.m4a","null","turquoise","lightred","[""turquoise"",""lightred"",""low nameability""]","right-left","[""lightred"",""turquoise""]","5","low nameability","46","right","audio_feedback","1"
"html-button-response","226","215542","0.0-170.0","CKN_123","123","","","","","","null","<button class=""jspsych-btn""><img src=""stimuli/white_square.png"" style=""width: 200px;height: 200px;""></button>","null","turquoise","lightred","[""turquoise"",""lightred"",""low nameability""]","right-left","[""lightred"",""turquoise""]","5","low nameability","46","right","iti",""
"html-button-response","227","216348","0.0-171.0","CKN_123","123","","","","","","795","","0","yellow","red","[""yellow"",""red"",""high nameability""]","right-left","[""red"",""yellow""]","5","high nameability","47","right","trigger",""
"html-button-response","228","217309","0.0-172.0-0.0","CKN_123","123","","","","","","955","<button class=""jspsych-btn""><img src=""stimuli/yellow.png"" style=""width: 200px;height: 200px;""></button>","1","yellow","red","[""yellow"",""red"",""high nameability""]","right-left","[""red"",""yellow""]","5","high nameability","47","right","response","1"
"html-audio-button-response","229","217514","0.0-172.0-1.0","CKN_123","123","","","","","","null","stimuli/bleep.m4a","null","yellow","red","[""yellow"",""red"",""high nameability""]","right-left","[""red"",""yellow""]","5","high nameability","47","right","audio_feedback","1"
"html-button-response","230","218037","0.0-173.0","CKN_123","123","","","","","","null","<button class=""jspsych-btn""><img src=""stimuli/white_square.png"" style=""width: 200px;height: 200px;""></button>","null","yellow","red","[""yellow"",""red"",""high nameability""]","right-left","[""red"",""yellow""]","5","high nameability","47","right","iti",""
"html-button-response","231","218805","0.0-174.0","CKN_123","123","","","","","","755","","0","blue","red","[""blue"",""red"",""high nameability""]","left-right","[""blue"",""red"",""high nameability""]","5","high nameability","48","left","trigger",""
"html-button-response","232","219817","0.0-175.0-0.0","CKN_123","123","","","","","","1006","<button class=""jspsych-btn""><img src=""stimuli/blue.png"" style=""width: 200px;height: 200px;""></button>","0","blue","red","[""blue"",""red"",""high nameability""]","left-right","[""blue"",""red"",""high nameability""]","5","high nameability","48","left","response","1"
"html-audio-button-response","233","220019","0.0-175.0-1.0","CKN_123","123","","","","","","null","stimuli/bleep.m4a","null","blue","red","[""blue"",""red"",""high nameability""]","left-right","[""blue"",""red"",""high nameability""]","5","high nameability","48","left","audio_feedback","1"
"html-button-response","234","220540","0.0-176.0","CKN_123","123","","","","","","null","<button class=""jspsych-btn""><img src=""stimuli/white_square.png"" style=""width: 200px;height: 200px;""></button>","null","blue","red","[""blue"",""red"",""high nameability""]","left-right","[""blue"",""red"",""high nameability""]","5","high nameability","48","left","iti",""
"html-button-response","235","221927","0.0-177.0","CKN_123","123","","","","","","1374","","0","mustard","lightred","[""mustard"",""lightred"",""low nameability""]","right-left","[""lightred"",""mustard""]","5","low nameability","49","right","trigger",""
"html-button-response","236","222842","0.0-178.0-0.0","CKN_123","123","","","","","","909","<button class=""jspsych-btn""><img src=""stimuli/mustard.png"" style=""width: 200px;height: 200px;""></button>","1","mustard","lightred","[""mustard"",""lightred"",""low nameability""]","right-left","[""lightred"",""mustard""]","5","low nameability","49","right","response","1"
"html-audio-button-response","237","223042","0.0-178.0-1.0","CKN_123","123","","","","","","null","stimuli/bleep.m4a","null","mustard","lightred","[""mustard"",""lightred"",""low nameability""]","right-left","[""lightred"",""mustard""]","5","low nameability","49","right","audio_feedback","1"
"html-button-response","238","223553","0.0-179.0","CKN_123","123","","","","","","null","<button class=""jspsych-btn""><img src=""stimuli/white_square.png"" style=""width: 200px;height: 200px;""></button>","null","mustard","lightred","[""mustard"",""lightred"",""low nameability""]","right-left","[""lightred"",""mustard""]","5","low nameability","49","right","iti",""
"html-button-response","239","224386","0.0-180.0","CKN_123","123","","","","","","815","","0","purple","yellow","[""purple"",""yellow"",""high nameability""]","right-left","[""yellow"",""purple""]","5","high nameability","50","right","trigger",""
"html-button-response","240","225369","0.0-181.0-0.0","CKN_123","123","","","","","","977","<button class=""jspsych-btn""><img src=""stimuli/purple.png"" style=""width: 200px;height: 200px;""></button>","1","purple","yellow","[""purple"",""yellow"",""high nameability""]","right-left","[""yellow"",""purple""]","5","high nameability","50","right","response","1"
"html-audio-button-response","241","225578","0.0-181.0-1.0","CKN_123","123","","","","","","null","stimuli/bleep.m4a","null","purple","yellow","[""purple"",""yellow"",""high nameability""]","right-left","[""yellow"",""purple""]","5","high nameability","50","right","audio_feedback","1"
"html-button-response","242","226092","0.0-182.0","CKN_123","123","","","","","","null","<button class=""jspsych-btn""><img src=""stimuli/white_square.png"" style=""width: 200px;height: 200px;""></button>","null","purple","yellow","[""purple"",""yellow"",""high nameability""]","right-left","[""yellow"",""purple""]","5","high nameability","50","right","iti",""
"pavlovia","243","226179","0.0-183.0","CKN_123","123","","","","","","","","","","","","","","","","","","",""
"pavlovia","244","226188","0.0-184.0","CKN_123","123","","","","","","","","","","","","","","","","","","",""
"html-audio-button-response","245","230130","0.0-185.0","CKN_123","123","","","","","","4040","stimuli/tada.m4a","0","","","","","","","","","","",""
"html-button-response","246","230630","0.0-186.0","CKN_123","123","","","","","","494","","0","","","","","","","","","","",""
"html-button-response","247","232190","0.0-187.0","CKN_123","123","","","","","","1554","","0","blue","orange","[""blue"",""orange"",""high nameability""]","right-left","[""orange"",""blue""]","6","high nameability","51","right","trigger",""
"html-button-response","248","232992","0.0-188.0-0.0","CKN_123","123","","","","","","798","<button class=""jspsych-btn""><img src=""stimuli/blue.png"" style=""width: 200px;height: 200px;""></button>","1","blue","orange","[""blue"",""orange"",""high nameability""]","right-left","[""orange"",""blue""]","6","high nameability","51","right","response","1"
"html-audio-button-response","249","233198","0.0-188.0-1.0","CKN_123","123","","","","","","null","stimuli/bleep.m4a","null","blue","orange","[""blue"",""orange"",""high nameability""]","right-left","[""orange"",""blue""]","6","high nameability","51","right","audio_feedback","1"
"html-button-response","250","233715","0.0-189.0","CKN_123","123","","","","","","null","<button class=""jspsych-btn""><img src=""stimuli/white_square.png"" style=""width: 200px;height: 200px;""></button>","null","blue","orange","[""blue"",""orange"",""high nameability""]","right-left","[""orange"",""blue""]","6","high nameability","51","right","iti",""
"html-button-response","251","234067","0.0-190.0","CKN_123","123","","","","","","337","","0","red","brown","[""red"",""brown"",""high nameability""]","left-right","[""red"",""brown"",""high nameability""]","6","high nameability","52","left","trigger",""
"html-button-response","252","234793","0.0-191.0-0.0","CKN_123","123","","","","","","722","<button class=""jspsych-btn""><img src=""stimuli/red.png"" style=""width: 200px;height: 200px;""></button>","1","red","brown","[""red"",""brown"",""high nameability""]","left-right","[""red"",""brown"",""high nameability""]","6","high nameability","52","left","response","0"
"html-audio-button-response","253","235412","0.0-191.0-1.0","CKN_123","123","","","","","","null","stimuli/boing.m4a","null","red","brown","[""red"",""brown"",""high nameability""]","left-right","[""red"",""brown"",""high nameability""]","6","high nameability","52","left","audio_feedback","0"
"html-button-response","254","237853","0.0-191.1-0.1","CKN_123","123","","","","","","2428","<button class=""jspsych-btn""><img src=""stimuli/red.png"" style=""width: 200px;height: 200px;""></button>","0","red","brown","[""red"",""brown"",""high nameability""]","left-right","[""red"",""brown"",""high nameability""]","6","high nameability","52","left","response","1"
"html-audio-button-response","255","238076","0.0-191.1-1.1","CKN_123","123","","","","","","null","stimuli/bleep.m4a","null","red","brown","[""red"",""brown"",""high nameability""]","left-right","[""red"",""brown"",""high nameability""]","6","high nameability","52","left","audio_feedback","1"
"html-button-response","256","238627","0.0-192.0","CKN_123","123","","","","","","null","<button class=""jspsych-btn""><img src=""stimuli/white_square.png"" style=""width: 200px;height: 200px;""></button>","null","red","brown","[""red"",""brown"",""high nameability""]","left-right","[""red"",""brown"",""high nameability""]","6","high nameability","52","left","iti",""
"html-button-response","257","239185","0.0-193.0","CKN_123","123","","","","","","538","","0","brown","yellow","[""brown"",""yellow"",""high nameability""]","left-right","[""brown"",""yellow"",""high nameability""]","6","high nameability","53","left","trigger",""
"html-button-response","258","240056","0.0-194.0-0.0","CKN_123","123","","","","","","860","<button class=""jspsych-btn""><img src=""stimuli/brown.png"" style=""width: 200px;height: 200px;""></button>","1","brown","yellow","[""brown"",""yellow"",""high nameability""]","left-right","[""brown"",""yellow"",""high nameability""]","6","high nameability","53","left","response","0"
"html-audio-button-response","259","240694","0.0-194.0-1.0","CKN_123","123","","","","","","null","stimuli/boing.m4a","null","brown","yellow","[""brown"",""yellow"",""high nameability""]","left-right","[""brown"",""yellow"",""high nameability""]","6","high nameability","53","left","audio_feedback","0"
"html-button-response","260","241703","0.0-194.1-0.1","CKN_123","123","","","","","","996","<button class=""jspsych-btn""><img src=""stimuli/brown.png"" style=""width: 200px;height: 200px;""></button>","0","brown","yellow","[""brown"",""yellow"",""high nameability""]","left-right","[""brown"",""yellow"",""high nameability""]","6","high nameability","53","left","response","1"
"html-audio-button-response","261","241907","0.0-194.1-1.1","CKN_123","123","","","","","","null","stimuli/bleep.m4a","null","brown","yellow","[""brown"",""yellow"",""high nameability""]","left-right","[""brown"",""yellow"",""high nameability""]","6","high nameability","53","left","audio_feedback","1"
"html-button-response","262","242428","0.0-195.0","CKN_123","123","","","","","","null","<button class=""jspsych-btn""><img src=""stimuli/white_square.png"" style=""width: 200px;height: 200px;""></button>","null","brown","yellow","[""brown"",""yellow"",""high nameability""]","left-right","[""brown"",""yellow"",""high nameability""]","6","high nameability","53","left","iti",""
"html-button-response","263","242721","0.0-196.0","CKN_123","123","","","","","","280","","0","brown","red","[""brown"",""red"",""high nameability""]","left-right","[""brown"",""red"",""high nameability""]","6","high nameability","54","left","trigger",""
"html-button-response","264","243858","0.0-197.0-0.0","CKN_123","123","","","","","","1129","<button class=""jspsych-btn""><img src=""stimuli/brown.png"" style=""width: 200px;height: 200px;""></button>","0","brown","red","[""brown"",""red"",""high nameability""]","left-right","[""brown"",""red"",""high nameability""]","6","high nameability","54","left","response","1"
"html-audio-button-response","265","244067","0.0-197.0-1.0","CKN_123","123","","","","","","null","stimuli/bleep.m4a","null","brown","red","[""brown"",""red"",""high nameability""]","left-right","[""brown"",""red"",""high nameability""]","6","high nameability","54","left","audio_feedback","1"
"html-button-response","266","244587","0.0-198.0","CKN_123","123","","","","","","null","<button class=""jspsych-btn""><img src=""stimuli/white_square.png"" style=""width: 200px;height: 200px;""></button>","null","brown","red","[""brown"",""red"",""high nameability""]","left-right","[""brown"",""red"",""high nameability""]","6","high nameability","54","left","iti",""
"html-button-response","267","245355","0.0-199.0","CKN_123","123","","","","","","760","","0","yellow","brown","[""yellow"",""brown"",""high nameability""]","right-left","[""brown"",""yellow""]","6","high nameability","55","right","trigger",""
"html-button-response","268","246304","0.0-200.0-0.0","CKN_123","123","","","","","","943","<button class=""jspsych-btn""><img src=""stimuli/yellow.png"" style=""width: 200px;height: 200px;""></button>","1","yellow","brown","[""yellow"",""brown"",""high nameability""]","right-left","[""brown"",""yellow""]","6","high nameability","55","right","response","1"
"html-audio-button-response","269","246545","0.0-200.0-1.0","CKN_123","123","","","","","","null","stimuli/bleep.m4a","null","yellow","brown","[""yellow"",""brown"",""high nameability""]","right-left","[""brown"",""yellow""]","6","high nameability","55","right","audio_feedback","1"
"html-button-response","270","247073","0.0-201.0","CKN_123","123","","","","","","null","<button class=""jspsych-btn""><img src=""stimuli/white_square.png"" style=""width: 200px;height: 200px;""></button>","null","yellow","brown","[""yellow"",""brown"",""high nameability""]","right-left","[""brown"",""yellow""]","6","high nameability","55","right","iti",""
"html-button-response","271","247840","0.0-202.0","CKN_123","123","","","","","","732","","0","yellow","orange","[""yellow"",""orange"",""high nameability""]","right-left","[""orange"",""yellow""]","6","high nameability","56","right","trigger",""
"html-button-response","272","249597","0.0-203.0-0.0","CKN_123","123","","","","","","1745","<button class=""jspsych-btn""><img src=""stimuli/yellow.png"" style=""width: 200px;height: 200px;""></button>","1","yellow","orange","[""yellow"",""orange"",""high nameability""]","right-left","[""orange"",""yellow""]","6","high nameability","56","right","response","1"
"html-audio-button-response","273","249803","0.0-203.0-1.0","CKN_123","123","","","","","","null","stimuli/bleep.m4a","null","yellow","orange","[""yellow"",""orange"",""high nameability""]","right-left","[""orange"",""yellow""]","6","high nameability","56","right","audio_feedback","1"
"html-button-response","274","250340","0.0-204.0","CKN_123","123","","","","","","null","<button class=""jspsych-btn""><img src=""stimuli/white_square.png"" style=""width: 200px;height: 200px;""></button>","null","yellow","orange","[""yellow"",""orange"",""high nameability""]","right-left","[""orange"",""yellow""]","6","high nameability","56","right","iti",""
"html-button-response","275","251969","0.0-205.0","CKN_123","123","","","","","","1611","","0","brown","purple","[""brown"",""purple"",""high nameability""]","left-right","[""brown"",""purple"",""high nameability""]","6","high nameability","57","left","trigger",""
"html-button-response","276","254056","0.0-206.0-0.0","CKN_123","123","","","","","","2078","<button class=""jspsych-btn""><img src=""stimuli/brown.png"" style=""width: 200px;height: 200px;""></button>","0","brown","purple","[""brown"",""purple"",""high nameability""]","left-right","[""brown"",""purple"",""high nameability""]","6","high nameability","57","left","response","1"
"html-audio-button-response","277","254268","0.0-206.0-1.0","CKN_123","123","","","","","","null","stimuli/bleep.m4a","null","brown","purple","[""brown"",""purple"",""high nameability""]","left-right","[""brown"",""purple"",""high nameability""]","6","high nameability","57","left","audio_feedback","1"
"html-button-response","278","254798","0.0-207.0","CKN_123","123","","","","","","null","<button class=""jspsych-btn""><img src=""stimuli/white_square.png"" style=""width: 200px;height: 200px;""></button>","null","brown","purple","[""brown"",""purple"",""high nameability""]","left-right","[""brown"",""purple"",""high nameability""]","6","high nameability","57","left","iti",""
"html-button-response","279","255006","0.0-208.0","CKN_123","123","","","","","","197","","0","turquoise","darkgreenblue","[""turquoise"",""darkgreenblue"",""low nameability""]","right-left","[""darkgreenblue"",""turquoise""]","6","low nameability","58","right","trigger",""
"html-button-response","280","257244","0.0-209.0-0.0","CKN_123","123","","","","","","2228","<button class=""jspsych-btn""><img src=""stimuli/turquoise.png"" style=""width: 200px;height: 200px;""></button>","1","turquoise","darkgreenblue","[""turquoise"",""darkgreenblue"",""low nameability""]","right-left","[""darkgreenblue"",""turquoise""]","6","low nameability","58","right","response","1"
"html-audio-button-response","281","257453","0.0-209.0-1.0","CKN_123","123","","","","","","null","stimuli/bleep.m4a","null","turquoise","darkgreenblue","[""turquoise"",""darkgreenblue"",""low nameability""]","right-left","[""darkgreenblue"",""turquoise""]","6","low nameability","58","right","audio_feedback","1"
"html-button-response","282","257985","0.0-210.0","CKN_123","123","","","","","","null","<button class=""jspsych-btn""><img src=""stimuli/white_square.png"" style=""width: 200px;height: 200px;""></button>","null","turquoise","darkgreenblue","[""turquoise"",""darkgreenblue"",""low nameability""]","right-left","[""darkgreenblue"",""turquoise""]","6","low nameability","58","right","iti",""
"html-button-response","283","258438","0.0-211.0","CKN_123","123","","","","","","434","","0","mustard","darkgreenblue","[""mustard"",""darkgreenblue"",""low nameability""]","right-left","[""darkgreenblue"",""mustard""]","6","low nameability","59","right","trigger",""
"html-button-response","284","259319","0.0-212.0-0.0","CKN_123","123","","","","","","872","<button class=""jspsych-btn""><img src=""stimuli/mustard.png"" style=""width: 200px;height: 200px;""></button>","1","mustard","darkgreenblue","[""mustard"",""darkgreenblue"",""low nameability""]","right-left","[""darkgreenblue"",""mustard""]","6","low nameability","59","right","response","1"
"html-audio-button-response","285","259522","0.0-212.0-1.0","CKN_123","123","","","","","","null","stimuli/bleep.m4a","null","mustard","darkgreenblue","[""mustard"",""darkgreenblue"",""low nameability""]","right-left","[""darkgreenblue"",""mustard""]","6","low nameability","59","right","audio_feedback","1"
"html-button-response","286","260055","0.0-213.0","CKN_123","123","","","","","","null","<button class=""jspsych-btn""><img src=""stimuli/white_square.png"" style=""width: 200px;height: 200px;""></button>","null","mustard","darkgreenblue","[""mustard"",""darkgreenblue"",""low nameability""]","right-left","[""darkgreenblue"",""mustard""]","6","low nameability","59","right","iti",""
"html-button-response","287","260299","0.0-214.0","CKN_123","123","","","","","","220","","0","lightred","mustard","[""lightred"",""mustard"",""low nameability""]","right-left","[""mustard"",""lightred""]","6","low nameability","60","right","trigger",""
"html-button-response","288","261332","0.0-215.0-0.0","CKN_123","123","","","","","","1026","<button class=""jspsych-btn""><img src=""stimuli/lightred.png"" style=""width: 200px;height: 200px;""></button>","1","lightred","mustard","[""lightred"",""mustard"",""low nameability""]","right-left","[""mustard"",""lightred""]","6","low nameability","60","right","response","1"
"html-audio-button-response","289","261557","0.0-215.0-1.0","CKN_123","123","","","","","","null","stimuli/bleep.m4a","null","lightred","mustard","[""lightred"",""mustard"",""low nameability""]","right-left","[""mustard"",""lightred""]","6","low nameability","60","right","audio_feedback","1"
"html-button-response","290","262083","0.0-216.0","CKN_123","123","","","","","","null","<button class=""jspsych-btn""><img src=""stimuli/white_square.png"" style=""width: 200px;height: 200px;""></button>","null","lightred","mustard","[""lightred"",""mustard"",""low nameability""]","right-left","[""mustard"",""lightred""]","6","low nameability","60","right","iti",""
