"trial_type","trial_index","time_elapsed","internal_node_id","subject_id","seed","success","timeout","failed_images","failed_audio","failed_video","rt","stimulus","response","target","foil","choices","combination_order","choices_in_order","round","condition","trial_counter","target_location","trial_kind","correct"
"pavlovia","0","24","0.0-0.0","CKN_143","143","","","","","","","","","","","","","","","","","","",""
"preload","1","1650","0.0-1.0","CKN_143","143","true","false","[]","[]","[]","","","","","","","","","","","","","",""
"fullscreen","2","3597","0.0-2.0","CKN_143","143","true","","","","","","","","","","","","","","","","","",""
"html-button-response","3","334437","0.0-3.0","CKN_143","143","","","","","","330821","","0","","","","","","","","","","",""
"html-button-response","4","337440","0.0-4.0","CKN_143","143","","","","","","2986","","0","star","square","[""square"",""star""]","left-right","[""square"",""star""]","1","practice","1","right","trigger",""
"html-button-response","5","342453","0.0-5.0-0.0","CKN_143","143","","","","","","4992","<button class=""jspsych-btn""><img src=""stimuli/star.png"" style=""width: 200px;height: 200px;""></button>","1","star","square","[""square"",""star""]","left-right","[""square"",""star""]","1","practice","1","right","response","1"
"html-audio-button-response","6","342667","0.0-5.0-1.0","CKN_143","143","","","","","","null","stimuli/bleep.m4a","null","star","square","[""square"",""star""]","left-right","[""square"",""star""]","1","practice","1","right","audio_feedback","1"
"html-button-response","7","343201","0.0-6.0","CKN_143","143","","","","","","null","<button class=""jspsych-btn""><img src=""stimuli/white_square.png"" style=""width: 200px;height: 200px;""></button>","null","star","square","[""square"",""star""]","left-right","[""square"",""star""]","1","practice","1","right","iti",""
"html-button-response","8","347260","0.0-7.0","CKN_143","143","","","","","","4029","","0","triangle","pentagram","[""triangle"",""pentagram""]","left-right","[""triangle"",""pentagram""]","1","practice","1","left","trigger",""
"html-button-response","9","349879","0.0-8.0-0.0","CKN_143","143","","","","","","2611","<button class=""jspsych-btn""><img src=""stimuli/triangle.png"" style=""width: 200px;height: 200px;""></button>","0","triangle","pentagram","[""triangle"",""pentagram""]","left-right","[""triangle"",""pentagram""]","1","practice","1","left","response","1"
"html-audio-button-response","10","350093","0.0-8.0-1.0","CKN_143","143","","","","","","null","stimuli/bleep.m4a","null","triangle","pentagram","[""triangle"",""pentagram""]","left-right","[""triangle"",""pentagram""]","1","practice","1","left","audio_feedback","1"
"html-button-response","11","350618","0.0-9.0","CKN_143","143","","","","","","null","<button class=""jspsych-btn""><img src=""stimuli/white_square.png"" style=""width: 200px;height: 200px;""></button>","null","triangle","pentagram","[""triangle"",""pentagram""]","left-right","[""triangle"",""pentagram""]","1","practice","1","left","iti",""
"html-button-response","12","352442","0.0-10.0","CKN_143","143","","","","","","1809","","0","diamond","rectangle","[""rectangle"",""diamond""]","left-right","[""rectangle"",""diamond""]","1","practice","1","right","trigger",""
"html-button-response","13","357007","0.0-11.0-0.0","CKN_143","143","","","","","","4552","<button class=""jspsych-btn""><img src=""stimuli/diamond.png"" style=""width: 200px;height: 200px;""></button>","1","diamond","rectangle","[""rectangle"",""diamond""]","left-right","[""rectangle"",""diamond""]","1","practice","1","right","response","1"
"html-audio-button-response","14","357216","0.0-11.0-1.0","CKN_143","143","","","","","","null","stimuli/bleep.m4a","null","diamond","rectangle","[""rectangle"",""diamond""]","left-right","[""rectangle"",""diamond""]","1","practice","1","right","audio_feedback","1"
"html-button-response","15","357732","0.0-12.0","CKN_143","143","","","","","","null","<button class=""jspsych-btn""><img src=""stimuli/white_square.png"" style=""width: 200px;height: 200px;""></button>","null","diamond","rectangle","[""rectangle"",""diamond""]","left-right","[""rectangle"",""diamond""]","1","practice","1","right","iti",""
"html-button-response","16","362118","0.0-13.0","CKN_143","143","","","","","","4367","","0","pentagram","star","[""pentagram"",""star""]","left-right","[""pentagram"",""star""]","1","practice","1","left","trigger",""
"html-button-response","17","363979","0.0-14.0-0.0","CKN_143","143","","","","","","1849","<button class=""jspsych-btn""><img src=""stimuli/pentagram.png"" style=""width: 200px;height: 200px;""></button>","0","pentagram","star","[""pentagram"",""star""]","left-right","[""pentagram"",""star""]","1","practice","1","left","response","1"
"html-audio-button-response","18","364187","0.0-14.0-1.0","CKN_143","143","","","","","","null","stimuli/bleep.m4a","null","pentagram","star","[""pentagram"",""star""]","left-right","[""pentagram"",""star""]","1","practice","1","left","audio_feedback","1"
"html-button-response","19","364702","0.0-15.0","CKN_143","143","","","","","","null","<button class=""jspsych-btn""><img src=""stimuli/white_square.png"" style=""width: 200px;height: 200px;""></button>","null","pentagram","star","[""pentagram"",""star""]","left-right","[""pentagram"",""star""]","1","practice","1","left","iti",""
"html-button-response","20","368963","0.0-16.0","CKN_143","143","","","","","","4253","","0","","","","","","","","","","",""
"html-button-response","21","371991","0.0-17.0","CKN_143","143","","","","","","3014","","0","turquoise","neonyellow","[""turquoise"",""neonyellow"",""low nameability""]","right-left","[""neonyellow"",""turquoise""]","1","low nameability","1","right","trigger",""
"html-button-response","22","376717","0.0-18.0-0.0","CKN_143","143","","","","","","4703","<button class=""jspsych-btn""><img src=""stimuli/turquoise.png"" style=""width: 200px;height: 200px;""></button>","1","turquoise","neonyellow","[""turquoise"",""neonyellow"",""low nameability""]","right-left","[""neonyellow"",""turquoise""]","1","low nameability","1","right","response","1"
"html-audio-button-response","23","376936","0.0-18.0-1.0","CKN_143","143","","","","","","null","stimuli/bleep.m4a","null","turquoise","neonyellow","[""turquoise"",""neonyellow"",""low nameability""]","right-left","[""neonyellow"",""turquoise""]","1","low nameability","1","right","audio_feedback","1"
"html-button-response","24","377462","0.0-19.0","CKN_143","143","","","","","","null","<button class=""jspsych-btn""><img src=""stimuli/white_square.png"" style=""width: 200px;height: 200px;""></button>","null","turquoise","neonyellow","[""turquoise"",""neonyellow"",""low nameability""]","right-left","[""neonyellow"",""turquoise""]","1","low nameability","1","right","iti",""
"html-button-response","25","379301","0.0-20.0","CKN_143","143","","","","","","1815","","0","darkgreenblue","neonyellow","[""darkgreenblue"",""neonyellow"",""low nameability""]","right-left","[""neonyellow"",""darkgreenblue""]","1","low nameability","2","right","trigger",""
"html-button-response","26","383964","0.0-21.0-0.0","CKN_143","143","","","","","","4646","<button class=""jspsych-btn""><img src=""stimuli/darkgreenblue.png"" style=""width: 200px;height: 200px;""></button>","1","darkgreenblue","neonyellow","[""darkgreenblue"",""neonyellow"",""low nameability""]","right-left","[""neonyellow"",""darkgreenblue""]","1","low nameability","2","right","response","1"
"html-audio-button-response","27","384174","0.0-21.0-1.0","CKN_143","143","","","","","","null","stimuli/bleep.m4a","null","darkgreenblue","neonyellow","[""darkgreenblue"",""neonyellow"",""low nameability""]","right-left","[""neonyellow"",""darkgreenblue""]","1","low nameability","2","right","audio_feedback","1"
"html-button-response","28","384696","0.0-22.0","CKN_143","143","","","","","","null","<button class=""jspsych-btn""><img src=""stimuli/white_square.png"" style=""width: 200px;height: 200px;""></button>","null","darkgreenblue","neonyellow","[""darkgreenblue"",""neonyellow"",""low nameability""]","right-left","[""neonyellow"",""darkgreenblue""]","1","low nameability","2","right","iti",""
"html-button-response","29","387530","0.0-23.0","CKN_143","143","","","","","","2814","","0","purple","blue","[""purple"",""blue"",""high nameability""]","right-left","[""blue"",""purple""]","1","high nameability","3","right","trigger",""
"html-button-response","30","389718","0.0-24.0-0.0","CKN_143","143","","","","","","2175","<button class=""jspsych-btn""><img src=""stimuli/purple.png"" style=""width: 200px;height: 200px;""></button>","1","purple","blue","[""purple"",""blue"",""high nameability""]","right-left","[""blue"",""purple""]","1","high nameability","3","right","response","1"
"html-audio-button-response","31","389934","0.0-24.0-1.0","CKN_143","143","","","","","","null","stimuli/bleep.m4a","null","purple","blue","[""purple"",""blue"",""high nameability""]","right-left","[""blue"",""purple""]","1","high nameability","3","right","audio_feedback","1"
"html-button-response","32","390455","0.0-25.0","CKN_143","143","","","","","","null","<button class=""jspsych-btn""><img src=""stimuli/white_square.png"" style=""width: 200px;height: 200px;""></button>","null","purple","blue","[""purple"",""blue"",""high nameability""]","right-left","[""blue"",""purple""]","1","high nameability","3","right","iti",""
"html-button-response","33","391906","0.0-26.0","CKN_143","143","","","","","","1431","","0","yellow","purple","[""yellow"",""purple"",""high nameability""]","left-right","[""yellow"",""purple"",""high nameability""]","1","high nameability","4","left","trigger",""
"html-button-response","34","394523","0.0-27.0-0.0","CKN_143","143","","","","","","2603","<button class=""jspsych-btn""><img src=""stimuli/yellow.png"" style=""width: 200px;height: 200px;""></button>","0","yellow","purple","[""yellow"",""purple"",""high nameability""]","left-right","[""yellow"",""purple"",""high nameability""]","1","high nameability","4","left","response","1"
"html-audio-button-response","35","394739","0.0-27.0-1.0","CKN_143","143","","","","","","null","stimuli/bleep.m4a","null","yellow","purple","[""yellow"",""purple"",""high nameability""]","left-right","[""yellow"",""purple"",""high nameability""]","1","high nameability","4","left","audio_feedback","1"
"html-button-response","36","395265","0.0-28.0","CKN_143","143","","","","","","null","<button class=""jspsych-btn""><img src=""stimuli/white_square.png"" style=""width: 200px;height: 200px;""></button>","null","yellow","purple","[""yellow"",""purple"",""high nameability""]","left-right","[""yellow"",""purple"",""high nameability""]","1","high nameability","4","left","iti",""
"html-button-response","37","399099","0.0-29.0","CKN_143","143","","","","","","3805","","0","pink","neonyellow","[""pink"",""neonyellow"",""low nameability""]","right-left","[""neonyellow"",""pink""]","1","low nameability","5","right","trigger",""
"html-button-response","38","403952","0.0-30.0-0.0","CKN_143","143","","","","","","4840","<button class=""jspsych-btn""><img src=""stimuli/pink.png"" style=""width: 200px;height: 200px;""></button>","1","pink","neonyellow","[""pink"",""neonyellow"",""low nameability""]","right-left","[""neonyellow"",""pink""]","1","low nameability","5","right","response","1"
"html-audio-button-response","39","404164","0.0-30.0-1.0","CKN_143","143","","","","","","null","stimuli/bleep.m4a","null","pink","neonyellow","[""pink"",""neonyellow"",""low nameability""]","right-left","[""neonyellow"",""pink""]","1","low nameability","5","right","audio_feedback","1"
"html-button-response","40","404682","0.0-31.0","CKN_143","143","","","","","","null","<button class=""jspsych-btn""><img src=""stimuli/white_square.png"" style=""width: 200px;height: 200px;""></button>","null","pink","neonyellow","[""pink"",""neonyellow"",""low nameability""]","right-left","[""neonyellow"",""pink""]","1","low nameability","5","right","iti",""
"html-button-response","41","408879","0.0-32.0","CKN_143","143","","","","","","4179","","0","darkgreenblue","turquoise","[""darkgreenblue"",""turquoise"",""low nameability""]","left-right","[""darkgreenblue"",""turquoise"",""low nameability""]","1","low nameability","6","left","trigger",""
"html-button-response","42","410914","0.0-33.0-0.0","CKN_143","143","","","","","","2027","<button class=""jspsych-btn""><img src=""stimuli/darkgreenblue.png"" style=""width: 200px;height: 200px;""></button>","0","darkgreenblue","turquoise","[""darkgreenblue"",""turquoise"",""low nameability""]","left-right","[""darkgreenblue"",""turquoise"",""low nameability""]","1","low nameability","6","left","response","1"
"html-audio-button-response","43","411125","0.0-33.0-1.0","CKN_143","143","","","","","","null","stimuli/bleep.m4a","null","darkgreenblue","turquoise","[""darkgreenblue"",""turquoise"",""low nameability""]","left-right","[""darkgreenblue"",""turquoise"",""low nameability""]","1","low nameability","6","left","audio_feedback","1"
"html-button-response","44","411650","0.0-34.0","CKN_143","143","","","","","","null","<button class=""jspsych-btn""><img src=""stimuli/white_square.png"" style=""width: 200px;height: 200px;""></button>","null","darkgreenblue","turquoise","[""darkgreenblue"",""turquoise"",""low nameability""]","left-right","[""darkgreenblue"",""turquoise"",""low nameability""]","1","low nameability","6","left","iti",""
"html-button-response","45","417160","0.0-35.0","CKN_143","143","","","","","","5492","","0","yellow","blue","[""yellow"",""blue"",""high nameability""]","left-right","[""yellow"",""blue"",""high nameability""]","1","high nameability","7","left","trigger",""
"html-button-response","46","419598","0.0-36.0-0.0","CKN_143","143","","","","","","2428","<button class=""jspsych-btn""><img src=""stimuli/yellow.png"" style=""width: 200px;height: 200px;""></button>","0","yellow","blue","[""yellow"",""blue"",""high nameability""]","left-right","[""yellow"",""blue"",""high nameability""]","1","high nameability","7","left","response","1"
"html-audio-button-response","47","419807","0.0-36.0-1.0","CKN_143","143","","","","","","null","stimuli/bleep.m4a","null","yellow","blue","[""yellow"",""blue"",""high nameability""]","left-right","[""yellow"",""blue"",""high nameability""]","1","high nameability","7","left","audio_feedback","1"
"html-button-response","48","420326","0.0-37.0","CKN_143","143","","","","","","null","<button class=""jspsych-btn""><img src=""stimuli/white_square.png"" style=""width: 200px;height: 200px;""></button>","null","yellow","blue","[""yellow"",""blue"",""high nameability""]","left-right","[""yellow"",""blue"",""high nameability""]","1","high nameability","7","left","iti",""
"html-button-response","49","421976","0.0-38.0","CKN_143","143","","","","","","1627","","0","blue","yellow","[""blue"",""yellow"",""high nameability""]","right-left","[""yellow"",""blue""]","1","high nameability","8","right","trigger",""
"html-button-response","50","423645","0.0-39.0-0.0","CKN_143","143","","","","","","1657","<button class=""jspsych-btn""><img src=""stimuli/blue.png"" style=""width: 200px;height: 200px;""></button>","1","blue","yellow","[""blue"",""yellow"",""high nameability""]","right-left","[""yellow"",""blue""]","1","high nameability","8","right","response","1"
"html-audio-button-response","51","423853","0.0-39.0-1.0","CKN_143","143","","","","","","null","stimuli/bleep.m4a","null","blue","yellow","[""blue"",""yellow"",""high nameability""]","right-left","[""yellow"",""blue""]","1","high nameability","8","right","audio_feedback","1"
"html-button-response","52","424368","0.0-40.0","CKN_143","143","","","","","","null","<button class=""jspsych-btn""><img src=""stimuli/white_square.png"" style=""width: 200px;height: 200px;""></button>","null","blue","yellow","[""blue"",""yellow"",""high nameability""]","right-left","[""yellow"",""blue""]","1","high nameability","8","right","iti",""
"html-button-response","53","427919","0.0-41.0","CKN_143","143","","","","","","3534","","0","yellow","red","[""yellow"",""red"",""high nameability""]","right-left","[""red"",""yellow""]","1","high nameability","9","right","trigger",""
"html-button-response","54","432091","0.0-42.0-0.0","CKN_143","143","","","","","","4163","<button class=""jspsych-btn""><img src=""stimuli/yellow.png"" style=""width: 200px;height: 200px;""></button>","1","yellow","red","[""yellow"",""red"",""high nameability""]","right-left","[""red"",""yellow""]","1","high nameability","9","right","response","1"
"html-audio-button-response","55","432294","0.0-42.0-1.0","CKN_143","143","","","","","","null","stimuli/bleep.m4a","null","yellow","red","[""yellow"",""red"",""high nameability""]","right-left","[""red"",""yellow""]","1","high nameability","9","right","audio_feedback","1"
"html-button-response","56","432819","0.0-43.0","CKN_143","143","","","","","","null","<button class=""jspsych-btn""><img src=""stimuli/white_square.png"" style=""width: 200px;height: 200px;""></button>","null","yellow","red","[""yellow"",""red"",""high nameability""]","right-left","[""red"",""yellow""]","1","high nameability","9","right","iti",""
"html-button-response","57","434414","0.0-44.0","CKN_143","143","","","","","","1578","","0","lightred","pink","[""lightred"",""pink"",""low nameability""]","left-right","[""lightred"",""pink"",""low nameability""]","1","low nameability","10","left","trigger",""
"html-button-response","58","437427","0.0-45.0-0.0","CKN_143","143","","","","","","3004","<button class=""jspsych-btn""><img src=""stimuli/lightred.png"" style=""width: 200px;height: 200px;""></button>","0","lightred","pink","[""lightred"",""pink"",""low nameability""]","left-right","[""lightred"",""pink"",""low nameability""]","1","low nameability","10","left","response","1"
"html-audio-button-response","59","437633","0.0-45.0-1.0","CKN_143","143","","","","","","null","stimuli/bleep.m4a","null","lightred","pink","[""lightred"",""pink"",""low nameability""]","left-right","[""lightred"",""pink"",""low nameability""]","1","low nameability","10","left","audio_feedback","1"
"html-button-response","60","438150","0.0-46.0","CKN_143","143","","","","","","null","<button class=""jspsych-btn""><img src=""stimuli/white_square.png"" style=""width: 200px;height: 200px;""></button>","null","lightred","pink","[""lightred"",""pink"",""low nameability""]","left-right","[""lightred"",""pink"",""low nameability""]","1","low nameability","10","left","iti",""
"pavlovia","61","438241","0.0-47.0","CKN_143","143","","","","","","","","","","","","","","","","","","",""
"pavlovia","62","438255","0.0-48.0","CKN_143","143","","","","","","","","","","","","","","","","","","",""
"html-audio-button-response","63","446135","0.0-49.0","CKN_143","143","","","","","","7984","stimuli/tada.m4a","0","","","","","","","","","","",""
"html-button-response","64","447156","0.0-50.0","CKN_143","143","","","","","","1015","","0","","","","","","","","","","",""
"html-button-response","65","450096","0.0-51.0","CKN_143","143","","","","","","2933","","0","orange","yellow","[""orange"",""yellow"",""high nameability""]","left-right","[""orange"",""yellow"",""high nameability""]","2","high nameability","11","left","trigger",""
"html-button-response","66","451701","0.0-52.0-0.0","CKN_143","143","","","","","","1596","<button class=""jspsych-btn""><img src=""stimuli/orange.png"" style=""width: 200px;height: 200px;""></button>","0","orange","yellow","[""orange"",""yellow"",""high nameability""]","left-right","[""orange"",""yellow"",""high nameability""]","2","high nameability","11","left","response","1"
"html-audio-button-response","67","451905","0.0-52.0-1.0","CKN_143","143","","","","","","null","stimuli/bleep.m4a","null","orange","yellow","[""orange"",""yellow"",""high nameability""]","left-right","[""orange"",""yellow"",""high nameability""]","2","high nameability","11","left","audio_feedback","1"
"html-button-response","68","452426","0.0-53.0","CKN_143","143","","","","","","null","<button class=""jspsych-btn""><img src=""stimuli/white_square.png"" style=""width: 200px;height: 200px;""></button>","null","orange","yellow","[""orange"",""yellow"",""high nameability""]","left-right","[""orange"",""yellow"",""high nameability""]","2","high nameability","11","left","iti",""
"html-button-response","69","453868","0.0-54.0","CKN_143","143","","","","","","1436","","0","brown","blue","[""brown"",""blue"",""high nameability""]","left-right","[""brown"",""blue"",""high nameability""]","2","high nameability","12","left","trigger",""
"html-button-response","70","455725","0.0-55.0-0.0","CKN_143","143","","","","","","1848","<button class=""jspsych-btn""><img src=""stimuli/brown.png"" style=""width: 200px;height: 200px;""></button>","0","brown","blue","[""brown"",""blue"",""high nameability""]","left-right","[""brown"",""blue"",""high nameability""]","2","high nameability","12","left","response","1"
"html-audio-button-response","71","455935","0.0-55.0-1.0","CKN_143","143","","","","","","null","stimuli/bleep.m4a","null","brown","blue","[""brown"",""blue"",""high nameability""]","left-right","[""brown"",""blue"",""high nameability""]","2","high nameability","12","left","audio_feedback","1"
"html-button-response","72","456452","0.0-56.0","CKN_143","143","","","","","","null","<button class=""jspsych-btn""><img src=""stimuli/white_square.png"" style=""width: 200px;height: 200px;""></button>","null","brown","blue","[""brown"",""blue"",""high nameability""]","left-right","[""brown"",""blue"",""high nameability""]","2","high nameability","12","left","iti",""
"html-button-response","73","462000","0.0-57.0","CKN_143","143","","","","","","5525","","0","pink","lightred","[""pink"",""lightred"",""low nameability""]","left-right","[""pink"",""lightred"",""low nameability""]","2","low nameability","13","left","trigger",""
"html-button-response","74","465052","0.0-58.0-0.0","CKN_143","143","","","","","","3040","<button class=""jspsych-btn""><img src=""stimuli/pink.png"" style=""width: 200px;height: 200px;""></button>","0","pink","lightred","[""pink"",""lightred"",""low nameability""]","left-right","[""pink"",""lightred"",""low nameability""]","2","low nameability","13","left","response","1"
"html-audio-button-response","75","465267","0.0-58.0-1.0","CKN_143","143","","","","","","null","stimuli/bleep.m4a","null","pink","lightred","[""pink"",""lightred"",""low nameability""]","left-right","[""pink"",""lightred"",""low nameability""]","2","low nameability","13","left","audio_feedback","1"
"html-button-response","76","465787","0.0-59.0","CKN_143","143","","","","","","null","<button class=""jspsych-btn""><img src=""stimuli/white_square.png"" style=""width: 200px;height: 200px;""></button>","null","pink","lightred","[""pink"",""lightred"",""low nameability""]","left-right","[""pink"",""lightred"",""low nameability""]","2","low nameability","13","left","iti",""
"html-button-response","77","468025","0.0-60.0","CKN_143","143","","","","","","2219","","0","mustard","turquoise","[""mustard"",""turquoise"",""low nameability""]","left-right","[""mustard"",""turquoise"",""low nameability""]","2","low nameability","14","left","trigger",""
"html-button-response","78","473969","0.0-61.0-0.0","CKN_143","143","","","","","","5932","<button class=""jspsych-btn""><img src=""stimuli/mustard.png"" style=""width: 200px;height: 200px;""></button>","0","mustard","turquoise","[""mustard"",""turquoise"",""low nameability""]","left-right","[""mustard"",""turquoise"",""low nameability""]","2","low nameability","14","left","response","1"
"html-audio-button-response","79","474176","0.0-61.0-1.0","CKN_143","143","","","","","","null","stimuli/bleep.m4a","null","mustard","turquoise","[""mustard"",""turquoise"",""low nameability""]","left-right","[""mustard"",""turquoise"",""low nameability""]","2","low nameability","14","left","audio_feedback","1"
"html-button-response","80","474692","0.0-62.0","CKN_143","143","","","","","","null","<button class=""jspsych-btn""><img src=""stimuli/white_square.png"" style=""width: 200px;height: 200px;""></button>","null","mustard","turquoise","[""mustard"",""turquoise"",""low nameability""]","left-right","[""mustard"",""turquoise"",""low nameability""]","2","low nameability","14","left","iti",""
"html-button-response","81","477590","0.0-63.0","CKN_143","143","","","","","","2883","","0","purple","brown","[""purple"",""brown"",""high nameability""]","left-right","[""purple"",""brown"",""high nameability""]","2","high nameability","15","left","trigger",""
"html-button-response","82","478978","0.0-64.0-0.0","CKN_143","143","","","","","","1377","<button class=""jspsych-btn""><img src=""stimuli/purple.png"" style=""width: 200px;height: 200px;""></button>","0","purple","brown","[""purple"",""brown"",""high nameability""]","left-right","[""purple"",""brown"",""high nameability""]","2","high nameability","15","left","response","1"
"html-audio-button-response","83","479181","0.0-64.0-1.0","CKN_143","143","","","","","","null","stimuli/bleep.m4a","null","purple","brown","[""purple"",""brown"",""high nameability""]","left-right","[""purple"",""brown"",""high nameability""]","2","high nameability","15","left","audio_feedback","1"
"html-button-response","84","479701","0.0-65.0","CKN_143","143","","","","","","null","<button class=""jspsych-btn""><img src=""stimuli/white_square.png"" style=""width: 200px;height: 200px;""></button>","null","purple","brown","[""purple"",""brown"",""high nameability""]","left-right","[""purple"",""brown"",""high nameability""]","2","high nameability","15","left","iti",""
"html-button-response","85","480956","0.0-66.0","CKN_143","143","","","","","","1232","","0","pink","turquoise","[""pink"",""turquoise"",""low nameability""]","right-left","[""turquoise"",""pink""]","2","low nameability","16","right","trigger",""
"html-button-response","86","482596","0.0-67.0-0.0","CKN_143","143","","","","","","1633","<button class=""jspsych-btn""><img src=""stimuli/pink.png"" style=""width: 200px;height: 200px;""></button>","1","pink","turquoise","[""pink"",""turquoise"",""low nameability""]","right-left","[""turquoise"",""pink""]","2","low nameability","16","right","response","1"
"html-audio-button-response","87","482801","0.0-67.0-1.0","CKN_143","143","","","","","","null","stimuli/bleep.m4a","null","pink","turquoise","[""pink"",""turquoise"",""low nameability""]","right-left","[""turquoise"",""pink""]","2","low nameability","16","right","audio_feedback","1"
"html-button-response","88","483322","0.0-68.0","CKN_143","143","","","","","","null","<button class=""jspsych-btn""><img src=""stimuli/white_square.png"" style=""width: 200px;height: 200px;""></button>","null","pink","turquoise","[""pink"",""turquoise"",""low nameability""]","right-left","[""turquoise"",""pink""]","2","low nameability","16","right","iti",""
"html-button-response","89","484556","0.0-69.0","CKN_143","143","","","","","","1215","","0","purple","red","[""purple"",""red"",""high nameability""]","right-left","[""red"",""purple""]","2","high nameability","17","right","trigger",""
"html-button-response","90","486409","0.0-70.0-0.0","CKN_143","143","","","","","","1839","<button class=""jspsych-btn""><img src=""stimuli/purple.png"" style=""width: 200px;height: 200px;""></button>","1","purple","red","[""purple"",""red"",""high nameability""]","right-left","[""red"",""purple""]","2","high nameability","17","right","response","1"
"html-audio-button-response","91","486612","0.0-70.0-1.0","CKN_143","143","","","","","","null","stimuli/bleep.m4a","null","purple","red","[""purple"",""red"",""high nameability""]","right-left","[""red"",""purple""]","2","high nameability","17","right","audio_feedback","1"
"html-button-response","92","487135","0.0-71.0","CKN_143","143","","","","","","null","<button class=""jspsych-btn""><img src=""stimuli/white_square.png"" style=""width: 200px;height: 200px;""></button>","null","purple","red","[""purple"",""red"",""high nameability""]","right-left","[""red"",""purple""]","2","high nameability","17","right","iti",""
"html-button-response","93","488669","0.0-72.0","CKN_143","143","","","","","","1511","","0","blue","brown","[""blue"",""brown"",""high nameability""]","right-left","[""brown"",""blue""]","2","high nameability","18","right","trigger",""
"html-button-response","94","490432","0.0-73.0-0.0","CKN_143","143","","","","","","1756","<button class=""jspsych-btn""><img src=""stimuli/blue.png"" style=""width: 200px;height: 200px;""></button>","1","blue","brown","[""blue"",""brown"",""high nameability""]","right-left","[""brown"",""blue""]","2","high nameability","18","right","response","1"
"html-audio-button-response","95","490633","0.0-73.0-1.0","CKN_143","143","","","","","","null","stimuli/bleep.m4a","null","blue","brown","[""blue"",""brown"",""high nameability""]","right-left","[""brown"",""blue""]","2","high nameability","18","right","audio_feedback","1"
"html-button-response","96","491157","0.0-74.0","CKN_143","143","","","","","","null","<button class=""jspsych-btn""><img src=""stimuli/white_square.png"" style=""width: 200px;height: 200px;""></button>","null","blue","brown","[""blue"",""brown"",""high nameability""]","right-left","[""brown"",""blue""]","2","high nameability","18","right","iti",""
"html-button-response","97","493061","0.0-75.0","CKN_143","143","","","","","","1884","","0","pink","mustard","[""pink"",""mustard"",""low nameability""]","right-left","[""mustard"",""pink""]","2","low nameability","19","right","trigger",""
"html-button-response","98","494324","0.0-76.0-0.0","CKN_143","143","","","","","","1257","<button class=""jspsych-btn""><img src=""stimuli/pink.png"" style=""width: 200px;height: 200px;""></button>","1","pink","mustard","[""pink"",""mustard"",""low nameability""]","right-left","[""mustard"",""pink""]","2","low nameability","19","right","response","1"
"html-audio-button-response","99","494528","0.0-76.0-1.0","CKN_143","143","","","","","","null","stimuli/bleep.m4a","null","pink","mustard","[""pink"",""mustard"",""low nameability""]","right-left","[""mustard"",""pink""]","2","low nameability","19","right","audio_feedback","1"
"html-button-response","100","495044","0.0-77.0","CKN_143","143","","","","","","null","<button class=""jspsych-btn""><img src=""stimuli/white_square.png"" style=""width: 200px;height: 200px;""></button>","null","pink","mustard","[""pink"",""mustard"",""low nameability""]","right-left","[""mustard"",""pink""]","2","low nameability","19","right","iti",""
"html-button-response","101","498891","0.0-78.0","CKN_143","143","","","","","","3824","","0","orange","blue","[""orange"",""blue"",""high nameability""]","left-right","[""orange"",""blue"",""high nameability""]","2","high nameability","20","left","trigger",""
"html-button-response","102","500985","0.0-79.0-0.0","CKN_143","143","","","","","","2085","<button class=""jspsych-btn""><img src=""stimuli/orange.png"" style=""width: 200px;height: 200px;""></button>","0","orange","blue","[""orange"",""blue"",""high nameability""]","left-right","[""orange"",""blue"",""high nameability""]","2","high nameability","20","left","response","1"
"html-audio-button-response","103","501191","0.0-79.0-1.0","CKN_143","143","","","","","","null","stimuli/bleep.m4a","null","orange","blue","[""orange"",""blue"",""high nameability""]","left-right","[""orange"",""blue"",""high nameability""]","2","high nameability","20","left","audio_feedback","1"
"html-button-response","104","501710","0.0-80.0","CKN_143","143","","","","","","null","<button class=""jspsych-btn""><img src=""stimuli/white_square.png"" style=""width: 200px;height: 200px;""></button>","null","orange","blue","[""orange"",""blue"",""high nameability""]","left-right","[""orange"",""blue"",""high nameability""]","2","high nameability","20","left","iti",""
"pavlovia","105","501766","0.0-81.0","CKN_143","143","","","","","","","","","","","","","","","","","","",""
"pavlovia","106","501775","0.0-82.0","CKN_143","143","","","","","","","","","","","","","","","","","","",""
"html-audio-button-response","107","508079","0.0-83.0","CKN_143","143","","","","","","6365","stimuli/tada.m4a","0","","","","","","","","","","",""
"html-button-response","108","508950","0.0-84.0","CKN_143","143","","","","","","865","","0","","","","","","","","","","",""
"html-button-response","109","510312","0.0-85.0","CKN_143","143","","","","","","1357","","0","red","blue","[""red"",""blue"",""high nameability""]","left-right","[""red"",""blue"",""high nameability""]","3","high nameability","21","left","trigger",""
"html-button-response","110","513414","0.0-86.0-0.0","CKN_143","143","","","","","","3094","<button class=""jspsych-btn""><img src=""stimuli/red.png"" style=""width: 200px;height: 200px;""></button>","0","red","blue","[""red"",""blue"",""high nameability""]","left-right","[""red"",""blue"",""high nameability""]","3","high nameability","21","left","response","1"
"html-audio-button-response","111","513625","0.0-86.0-1.0","CKN_143","143","","","","","","null","stimuli/bleep.m4a","null","red","blue","[""red"",""blue"",""high nameability""]","left-right","[""red"",""blue"",""high nameability""]","3","high nameability","21","left","audio_feedback","1"
"html-button-response","112","514139","0.0-87.0","CKN_143","143","","","","","","null","<button class=""jspsych-btn""><img src=""stimuli/white_square.png"" style=""width: 200px;height: 200px;""></button>","null","red","blue","[""red"",""blue"",""high nameability""]","left-right","[""red"",""blue"",""high nameability""]","3","high nameability","21","left","iti",""
"html-button-response","113","515167","0.0-88.0","CKN_143","143","","","","","","1019","","0","neonyellow","lightred","[""neonyellow"",""lightred"",""low nameability""]","left-right","[""neonyellow"",""lightred"",""low nameability""]","3","low nameability","22","left","trigger",""
"html-button-response","114","518320","0.0-89.0-0.0","CKN_143","143","","","","","","3144","<button class=""jspsych-btn""><img src=""stimuli/neonyellow.png"" style=""width: 200px;height: 200px;""></button>","0","neonyellow","lightred","[""neonyellow"",""lightred"",""low nameability""]","left-right","[""neonyellow"",""lightred"",""low nameability""]","3","low nameability","22","left","response","1"
"html-audio-button-response","115","518528","0.0-89.0-1.0","CKN_143","143","","","","","","null","stimuli/bleep.m4a","null","neonyellow","lightred","[""neonyellow"",""lightred"",""low nameability""]","left-right","[""neonyellow"",""lightred"",""low nameability""]","3","low nameability","22","left","audio_feedback","1"
"html-button-response","116","519050","0.0-90.0","CKN_143","143","","","","","","null","<button class=""jspsych-btn""><img src=""stimuli/white_square.png"" style=""width: 200px;height: 200px;""></button>","null","neonyellow","lightred","[""neonyellow"",""lightred"",""low nameability""]","left-right","[""neonyellow"",""lightred"",""low nameability""]","3","low nameability","22","left","iti",""
"html-button-response","117","521441","0.0-91.0","CKN_143","143","","","","","","2373","","0","turquoise","darkgreenblue","[""turquoise"",""darkgreenblue"",""low nameability""]","right-left","[""darkgreenblue"",""turquoise""]","3","low nameability","23","right","trigger",""
"html-button-response","118","522936","0.0-92.0-0.0","CKN_143","143","","","","","","1488","<button class=""jspsych-btn""><img src=""stimuli/turquoise.png"" style=""width: 200px;height: 200px;""></button>","1","turquoise","darkgreenblue","[""turquoise"",""darkgreenblue"",""low nameability""]","right-left","[""darkgreenblue"",""turquoise""]","3","low nameability","23","right","response","1"
"html-audio-button-response","119","523142","0.0-92.0-1.0","CKN_143","143","","","","","","null","stimuli/bleep.m4a","null","turquoise","darkgreenblue","[""turquoise"",""darkgreenblue"",""low nameability""]","right-left","[""darkgreenblue"",""turquoise""]","3","low nameability","23","right","audio_feedback","1"
"html-button-response","120","523662","0.0-93.0","CKN_143","143","","","","","","null","<button class=""jspsych-btn""><img src=""stimuli/white_square.png"" style=""width: 200px;height: 200px;""></button>","null","turquoise","darkgreenblue","[""turquoise"",""darkgreenblue"",""low nameability""]","right-left","[""darkgreenblue"",""turquoise""]","3","low nameability","23","right","iti",""
"html-button-response","121","524734","0.0-94.0","CKN_143","143","","","","","","1061","","0","red","purple","[""red"",""purple"",""high nameability""]","right-left","[""purple"",""red""]","3","high nameability","24","right","trigger",""
"html-button-response","122","526351","0.0-95.0-0.0","CKN_143","143","","","","","","1608","<button class=""jspsych-btn""><img src=""stimuli/red.png"" style=""width: 200px;height: 200px;""></button>","1","red","purple","[""red"",""purple"",""high nameability""]","right-left","[""purple"",""red""]","3","high nameability","24","right","response","1"
"html-audio-button-response","123","526554","0.0-95.0-1.0","CKN_143","143","","","","","","null","stimuli/bleep.m4a","null","red","purple","[""red"",""purple"",""high nameability""]","right-left","[""purple"",""red""]","3","high nameability","24","right","audio_feedback","1"
"html-button-response","124","527073","0.0-96.0","CKN_143","143","","","","","","null","<button class=""jspsych-btn""><img src=""stimuli/white_square.png"" style=""width: 200px;height: 200px;""></button>","null","red","purple","[""red"",""purple"",""high nameability""]","right-left","[""purple"",""red""]","3","high nameability","24","right","iti",""
"html-button-response","125","528363","0.0-97.0","CKN_143","143","","","","","","1276","","0","blue","purple","[""blue"",""purple"",""high nameability""]","left-right","[""blue"",""purple"",""high nameability""]","3","high nameability","25","left","trigger",""
"html-button-response","126","530919","0.0-98.0-0.0","CKN_143","143","","","","","","2548","<button class=""jspsych-btn""><img src=""stimuli/blue.png"" style=""width: 200px;height: 200px;""></button>","0","blue","purple","[""blue"",""purple"",""high nameability""]","left-right","[""blue"",""purple"",""high nameability""]","3","high nameability","25","left","response","1"
"html-audio-button-response","127","531126","0.0-98.0-1.0","CKN_143","143","","","","","","null","stimuli/bleep.m4a","null","blue","purple","[""blue"",""purple"",""high nameability""]","left-right","[""blue"",""purple"",""high nameability""]","3","high nameability","25","left","audio_feedback","1"
"html-button-response","128","531641","0.0-99.0","CKN_143","143","","","","","","null","<button class=""jspsych-btn""><img src=""stimuli/white_square.png"" style=""width: 200px;height: 200px;""></button>","null","blue","purple","[""blue"",""purple"",""high nameability""]","left-right","[""blue"",""purple"",""high nameability""]","3","high nameability","25","left","iti",""
"html-button-response","129","533513","0.0-100.0","CKN_143","143","","","","","","1854","","0","red","yellow","[""red"",""yellow"",""high nameability""]","left-right","[""red"",""yellow"",""high nameability""]","3","high nameability","26","left","trigger",""
"html-button-response","130","534603","0.0-101.0-0.0","CKN_143","143","","","","","","1082","<button class=""jspsych-btn""><img src=""stimuli/red.png"" style=""width: 200px;height: 200px;""></button>","0","red","yellow","[""red"",""yellow"",""high nameability""]","left-right","[""red"",""yellow"",""high nameability""]","3","high nameability","26","left","response","1"
"html-audio-button-response","131","534809","0.0-101.0-1.0","CKN_143","143","","","","","","null","stimuli/bleep.m4a","null","red","yellow","[""red"",""yellow"",""high nameability""]","left-right","[""red"",""yellow"",""high nameability""]","3","high nameability","26","left","audio_feedback","1"
"html-button-response","132","535329","0.0-102.0","CKN_143","143","","","","","","null","<button class=""jspsych-btn""><img src=""stimuli/white_square.png"" style=""width: 200px;height: 200px;""></button>","null","red","yellow","[""red"",""yellow"",""high nameability""]","left-right","[""red"",""yellow"",""high nameability""]","3","high nameability","26","left","iti",""
"html-button-response","133","536394","0.0-103.0","CKN_143","143","","","","","","1045","","0","mustard","neonyellow","[""mustard"",""neonyellow"",""low nameability""]","left-right","[""mustard"",""neonyellow"",""low nameability""]","3","low nameability","27","left","trigger",""
"html-button-response","134","537863","0.0-104.0-0.0","CKN_143","143","","","","","","1460","<button class=""jspsych-btn""><img src=""stimuli/mustard.png"" style=""width: 200px;height: 200px;""></button>","0","mustard","neonyellow","[""mustard"",""neonyellow"",""low nameability""]","left-right","[""mustard"",""neonyellow"",""low nameability""]","3","low nameability","27","left","response","1"
"html-audio-button-response","135","538078","0.0-104.0-1.0","CKN_143","143","","","","","","null","stimuli/bleep.m4a","null","mustard","neonyellow","[""mustard"",""neonyellow"",""low nameability""]","left-right","[""mustard"",""neonyellow"",""low nameability""]","3","low nameability","27","left","audio_feedback","1"
"html-button-response","136","538597","0.0-105.0","CKN_143","143","","","","","","null","<button class=""jspsych-btn""><img src=""stimuli/white_square.png"" style=""width: 200px;height: 200px;""></button>","null","mustard","neonyellow","[""mustard"",""neonyellow"",""low nameability""]","left-right","[""mustard"",""neonyellow"",""low nameability""]","3","low nameability","27","left","iti",""
"html-button-response","137","540213","0.0-106.0","CKN_143","143","","","","","","1597","","0","turquoise","lightred","[""turquoise"",""lightred"",""low nameability""]","left-right","[""turquoise"",""lightred"",""low nameability""]","3","low nameability","28","left","trigger",""
"html-button-response","138","541473","0.0-107.0-0.0","CKN_143","143","","","","","","1251","<button class=""jspsych-btn""><img src=""stimuli/turquoise.png"" style=""width: 200px;height: 200px;""></button>","0","turquoise","lightred","[""turquoise"",""lightred"",""low nameability""]","left-right","[""turquoise"",""lightred"",""low nameability""]","3","low nameability","28","left","response","1"
"html-audio-button-response","139","541677","0.0-107.0-1.0","CKN_143","143","","","","","","null","stimuli/bleep.m4a","null","turquoise","lightred","[""turquoise"",""lightred"",""low nameability""]","left-right","[""turquoise"",""lightred"",""low nameability""]","3","low nameability","28","left","audio_feedback","1"
"html-button-response","140","542199","0.0-108.0","CKN_143","143","","","","","","null","<button class=""jspsych-btn""><img src=""stimuli/white_square.png"" style=""width: 200px;height: 200px;""></button>","null","turquoise","lightred","[""turquoise"",""lightred"",""low nameability""]","left-right","[""turquoise"",""lightred"",""low nameability""]","3","low nameability","28","left","iti",""
"html-button-response","141","544812","0.0-109.0","CKN_143","143","","","","","","2591","","0","neonyellow","darkgreenblue","[""neonyellow"",""darkgreenblue"",""low nameability""]","right-left","[""darkgreenblue"",""neonyellow""]","3","low nameability","29","right","trigger",""
"html-button-response","142","547804","0.0-110.0-0.0","CKN_143","143","","","","","","2983","<button class=""jspsych-btn""><img src=""stimuli/neonyellow.png"" style=""width: 200px;height: 200px;""></button>","1","neonyellow","darkgreenblue","[""neonyellow"",""darkgreenblue"",""low nameability""]","right-left","[""darkgreenblue"",""neonyellow""]","3","low nameability","29","right","response","1"
"html-audio-button-response","143","548010","0.0-110.0-1.0","CKN_143","143","","","","","","null","stimuli/bleep.m4a","null","neonyellow","darkgreenblue","[""neonyellow"",""darkgreenblue"",""low nameability""]","right-left","[""darkgreenblue"",""neonyellow""]","3","low nameability","29","right","audio_feedback","1"
"html-button-response","144","548529","0.0-111.0","CKN_143","143","","","","","","null","<button class=""jspsych-btn""><img src=""stimuli/white_square.png"" style=""width: 200px;height: 200px;""></button>","null","neonyellow","darkgreenblue","[""neonyellow"",""darkgreenblue"",""low nameability""]","right-left","[""darkgreenblue"",""neonyellow""]","3","low nameability","29","right","iti",""
"html-button-response","145","556772","0.0-112.0","CKN_143","143","","","","","","8222","","0","blue","orange","[""blue"",""orange"",""high nameability""]","left-right","[""blue"",""orange"",""high nameability""]","3","high nameability","30","left","trigger",""
"html-button-response","146","558657","0.0-113.0-0.0","CKN_143","143","","","","","","1874","<button class=""jspsych-btn""><img src=""stimuli/blue.png"" style=""width: 200px;height: 200px;""></button>","0","blue","orange","[""blue"",""orange"",""high nameability""]","left-right","[""blue"",""orange"",""high nameability""]","3","high nameability","30","left","response","1"
"html-audio-button-response","147","558866","0.0-113.0-1.0","CKN_143","143","","","","","","null","stimuli/bleep.m4a","null","blue","orange","[""blue"",""orange"",""high nameability""]","left-right","[""blue"",""orange"",""high nameability""]","3","high nameability","30","left","audio_feedback","1"
"html-button-response","148","559384","0.0-114.0","CKN_143","143","","","","","","null","<button class=""jspsych-btn""><img src=""stimuli/white_square.png"" style=""width: 200px;height: 200px;""></button>","null","blue","orange","[""blue"",""orange"",""high nameability""]","left-right","[""blue"",""orange"",""high nameability""]","3","high nameability","30","left","iti",""
"pavlovia","149","559429","0.0-115.0","CKN_143","143","","","","","","","","","","","","","","","","","","",""
"pavlovia","150","559435","0.0-116.0","CKN_143","143","","","","","","","","","","","","","","","","","","",""
"html-audio-button-response","151","564066","0.0-117.0","CKN_143","143","","","","","","4680","stimuli/tada.m4a","0","","","","","","","","","","",""
"html-button-response","152","564764","0.0-118.0","CKN_143","143","","","","","","692","","0","","","","","","","","","","",""
"html-button-response","153","566974","0.0-119.0","CKN_143","143","","","","","","2201","","0","lightred","neonyellow","[""lightred"",""neonyellow"",""low nameability""]","right-left","[""neonyellow"",""lightred""]","4","low nameability","31","right","trigger",""
"html-button-response","154","568184","0.0-120.0-0.0","CKN_143","143","","","","","","1201","<button class=""jspsych-btn""><img src=""stimuli/lightred.png"" style=""width: 200px;height: 200px;""></button>","1","lightred","neonyellow","[""lightred"",""neonyellow"",""low nameability""]","right-left","[""neonyellow"",""lightred""]","4","low nameability","31","right","response","1"
"html-audio-button-response","155","568389","0.0-120.0-1.0","CKN_143","143","","","","","","null","stimuli/bleep.m4a","null","lightred","neonyellow","[""lightred"",""neonyellow"",""low nameability""]","right-left","[""neonyellow"",""lightred""]","4","low nameability","31","right","audio_feedback","1"
"html-button-response","156","568907","0.0-121.0","CKN_143","143","","","","","","null","<button class=""jspsych-btn""><img src=""stimuli/white_square.png"" style=""width: 200px;height: 200px;""></button>","null","lightred","neonyellow","[""lightred"",""neonyellow"",""low nameability""]","right-left","[""neonyellow"",""lightred""]","4","low nameability","31","right","iti",""
"html-button-response","157","570001","0.0-122.0","CKN_143","143","","","","","","1077","","0","darkgreenblue","pink","[""darkgreenblue"",""pink"",""low nameability""]","right-left","[""pink"",""darkgreenblue""]","4","low nameability","32","right","trigger",""
"html-button-response","158","571713","0.0-123.0-0.0","CKN_143","143","","","","","","1703","<button class=""jspsych-btn""><img src=""stimuli/darkgreenblue.png"" style=""width: 200px;height: 200px;""></button>","1","darkgreenblue","pink","[""darkgreenblue"",""pink"",""low nameability""]","right-left","[""pink"",""darkgreenblue""]","4","low nameability","32","right","response","1"
"html-audio-button-response","159","571917","0.0-123.0-1.0","CKN_143","143","","","","","","null","stimuli/bleep.m4a","null","darkgreenblue","pink","[""darkgreenblue"",""pink"",""low nameability""]","right-left","[""pink"",""darkgreenblue""]","4","low nameability","32","right","audio_feedback","1"
"html-button-response","160","572436","0.0-124.0","CKN_143","143","","","","","","null","<button class=""jspsych-btn""><img src=""stimuli/white_square.png"" style=""width: 200px;height: 200px;""></button>","null","darkgreenblue","pink","[""darkgreenblue"",""pink"",""low nameability""]","right-left","[""pink"",""darkgreenblue""]","4","low nameability","32","right","iti",""
"html-button-response","161","574544","0.0-125.0","CKN_143","143","","","","","","2094","","0","brown","purple","[""brown"",""purple"",""high nameability""]","left-right","[""brown"",""purple"",""high nameability""]","4","high nameability","33","left","trigger",""
"html-button-response","162","577210","0.0-126.0-0.0","CKN_143","143","","","","","","2657","<button class=""jspsych-btn""><img src=""stimuli/brown.png"" style=""width: 200px;height: 200px;""></button>","0","brown","purple","[""brown"",""purple"",""high nameability""]","left-right","[""brown"",""purple"",""high nameability""]","4","high nameability","33","left","response","1"
"html-audio-button-response","163","577424","0.0-126.0-1.0","CKN_143","143","","","","","","null","stimuli/bleep.m4a","null","brown","purple","[""brown"",""purple"",""high nameability""]","left-right","[""brown"",""purple"",""high nameability""]","4","high nameability","33","left","audio_feedback","1"
"html-button-response","164","577935","0.0-127.0","CKN_143","143","","","","","","138","<button class=""jspsych-btn""><img src=""stimuli/white_square.png"" style=""width: 200px;height: 200px;""></button>","0","brown","purple","[""brown"",""purple"",""high nameability""]","left-right","[""brown"",""purple"",""high nameability""]","4","high nameability","33","left","iti",""
"html-button-response","165","580804","0.0-128.0","CKN_143","143","","","","","","2858","","0","neonyellow","turquoise","[""neonyellow"",""turquoise"",""low nameability""]","left-right","[""neonyellow"",""turquoise"",""low nameability""]","4","low nameability","34","left","trigger",""
"html-button-response","166","584117","0.0-129.0-0.0","CKN_143","143","","","","","","3296","<button class=""jspsych-btn""><img src=""stimuli/neonyellow.png"" style=""width: 200px;height: 200px;""></button>","0","neonyellow","turquoise","[""neonyellow"",""turquoise"",""low nameability""]","left-right","[""neonyellow"",""turquoise"",""low nameability""]","4","low nameability","34","left","response","1"
"html-audio-button-response","167","584329","0.0-129.0-1.0","CKN_143","143","","","","","","null","stimuli/bleep.m4a","null","neonyellow","turquoise","[""neonyellow"",""turquoise"",""low nameability""]","left-right","[""neonyellow"",""turquoise"",""low nameability""]","4","low nameability","34","left","audio_feedback","1"
"html-button-response","168","584845","0.0-130.0","CKN_143","143","","","","","","null","<button class=""jspsych-btn""><img src=""stimuli/white_square.png"" style=""width: 200px;height: 200px;""></button>","null","neonyellow","turquoise","[""neonyellow"",""turquoise"",""low nameability""]","left-right","[""neonyellow"",""turquoise"",""low nameability""]","4","low nameability","34","left","iti",""
"html-button-response","169","586502","0.0-131.0","CKN_143","143","","","","","","1638","","0","turquoise","mustard","[""turquoise"",""mustard"",""low nameability""]","right-left","[""mustard"",""turquoise""]","4","low nameability","35","right","trigger",""
"html-button-response","170","588686","0.0-132.0-0.0","CKN_143","143","","","","","","2175","<button class=""jspsych-btn""><img src=""stimuli/turquoise.png"" style=""width: 200px;height: 200px;""></button>","1","turquoise","mustard","[""turquoise"",""mustard"",""low nameability""]","right-left","[""mustard"",""turquoise""]","4","low nameability","35","right","response","1"
"html-audio-button-response","171","588894","0.0-132.0-1.0","CKN_143","143","","","","","","null","stimuli/bleep.m4a","null","turquoise","mustard","[""turquoise"",""mustard"",""low nameability""]","right-left","[""mustard"",""turquoise""]","4","low nameability","35","right","audio_feedback","1"
"html-button-response","172","589412","0.0-133.0","CKN_143","143","","","","","","null","<button class=""jspsych-btn""><img src=""stimuli/white_square.png"" style=""width: 200px;height: 200px;""></button>","null","turquoise","mustard","[""turquoise"",""mustard"",""low nameability""]","right-left","[""mustard"",""turquoise""]","4","low nameability","35","right","iti",""
"html-button-response","173","591192","0.0-134.0","CKN_143","143","","","","","","1758","","0","neonyellow","mustard","[""neonyellow"",""mustard"",""low nameability""]","left-right","[""neonyellow"",""mustard"",""low nameability""]","4","low nameability","36","left","trigger",""
"html-button-response","174","593763","0.0-135.0-0.0","CKN_143","143","","","","","","2562","<button class=""jspsych-btn""><img src=""stimuli/neonyellow.png"" style=""width: 200px;height: 200px;""></button>","0","neonyellow","mustard","[""neonyellow"",""mustard"",""low nameability""]","left-right","[""neonyellow"",""mustard"",""low nameability""]","4","low nameability","36","left","response","1"
"html-audio-button-response","175","593975","0.0-135.0-1.0","CKN_143","143","","","","","","null","stimuli/bleep.m4a","null","neonyellow","mustard","[""neonyellow"",""mustard"",""low nameability""]","left-right","[""neonyellow"",""mustard"",""low nameability""]","4","low nameability","36","left","audio_feedback","1"
"html-button-response","176","594497","0.0-136.0","CKN_143","143","","","","","","52","<button class=""jspsych-btn""><img src=""stimuli/white_square.png"" style=""width: 200px;height: 200px;""></button>","0","neonyellow","mustard","[""neonyellow"",""mustard"",""low nameability""]","left-right","[""neonyellow"",""mustard"",""low nameability""]","4","low nameability","36","left","iti",""
"html-button-response","177","595776","0.0-137.0","CKN_143","143","","","","","","1266","","0","neonyellow","pink","[""neonyellow"",""pink"",""low nameability""]","left-right","[""neonyellow"",""pink"",""low nameability""]","4","low nameability","37","left","trigger",""
"html-button-response","178","596755","0.0-138.0-0.0","CKN_143","143","","","","","","971","<button class=""jspsych-btn""><img src=""stimuli/neonyellow.png"" style=""width: 200px;height: 200px;""></button>","0","neonyellow","pink","[""neonyellow"",""pink"",""low nameability""]","left-right","[""neonyellow"",""pink"",""low nameability""]","4","low nameability","37","left","response","1"
"html-audio-button-response","179","596965","0.0-138.0-1.0","CKN_143","143","","","","","","null","stimuli/bleep.m4a","null","neonyellow","pink","[""neonyellow"",""pink"",""low nameability""]","left-right","[""neonyellow"",""pink"",""low nameability""]","4","low nameability","37","left","audio_feedback","1"
"html-button-response","180","597486","0.0-139.0","CKN_143","143","","","","","","null","<button class=""jspsych-btn""><img src=""stimuli/white_square.png"" style=""width: 200px;height: 200px;""></button>","null","neonyellow","pink","[""neonyellow"",""pink"",""low nameability""]","left-right","[""neonyellow"",""pink"",""low nameability""]","4","low nameability","37","left","iti",""
"html-button-response","181","599310","0.0-140.0","CKN_143","143","","","","","","1808","","0","red","orange","[""red"",""orange"",""high nameability""]","left-right","[""red"",""orange"",""high nameability""]","4","high nameability","38","left","trigger",""
"html-button-response","182","600882","0.0-141.0-0.0","CKN_143","143","","","","","","1563","<button class=""jspsych-btn""><img src=""stimuli/red.png"" style=""width: 200px;height: 200px;""></button>","0","red","orange","[""red"",""orange"",""high nameability""]","left-right","[""red"",""orange"",""high nameability""]","4","high nameability","38","left","response","1"
"html-audio-button-response","183","601084","0.0-141.0-1.0","CKN_143","143","","","","","","null","stimuli/bleep.m4a","null","red","orange","[""red"",""orange"",""high nameability""]","left-right","[""red"",""orange"",""high nameability""]","4","high nameability","38","left","audio_feedback","1"
"html-button-response","184","601598","0.0-142.0","CKN_143","143","","","","","","null","<button class=""jspsych-btn""><img src=""stimuli/white_square.png"" style=""width: 200px;height: 200px;""></button>","null","red","orange","[""red"",""orange"",""high nameability""]","left-right","[""red"",""orange"",""high nameability""]","4","high nameability","38","left","iti",""
"html-button-response","185","603903","0.0-143.0","CKN_143","143","","","","","","2282","","0","pink","darkgreenblue","[""pink"",""darkgreenblue"",""low nameability""]","right-left","[""darkgreenblue"",""pink""]","4","low nameability","39","right","trigger",""
"html-button-response","186","606033","0.0-144.0-0.0","CKN_143","143","","","","","","2121","<button class=""jspsych-btn""><img src=""stimuli/pink.png"" style=""width: 200px;height: 200px;""></button>","1","pink","darkgreenblue","[""pink"",""darkgreenblue"",""low nameability""]","right-left","[""darkgreenblue"",""pink""]","4","low nameability","39","right","response","1"
"html-audio-button-response","187","606238","0.0-144.0-1.0","CKN_143","143","","","","","","null","stimuli/bleep.m4a","null","pink","darkgreenblue","[""pink"",""darkgreenblue"",""low nameability""]","right-left","[""darkgreenblue"",""pink""]","4","low nameability","39","right","audio_feedback","1"
"html-button-response","188","606757","0.0-145.0","CKN_143","143","","","","","","null","<button class=""jspsych-btn""><img src=""stimuli/white_square.png"" style=""width: 200px;height: 200px;""></button>","null","pink","darkgreenblue","[""pink"",""darkgreenblue"",""low nameability""]","right-left","[""darkgreenblue"",""pink""]","4","low nameability","39","right","iti",""
"html-button-response","189","608011","0.0-146.0","CKN_143","143","","","","","","1234","","0","orange","red","[""orange"",""red"",""high nameability""]","right-left","[""red"",""orange""]","4","high nameability","40","right","trigger",""
"html-button-response","190","609540","0.0-147.0-0.0","CKN_143","143","","","","","","1521","<button class=""jspsych-btn""><img src=""stimuli/orange.png"" style=""width: 200px;height: 200px;""></button>","1","orange","red","[""orange"",""red"",""high nameability""]","right-left","[""red"",""orange""]","4","high nameability","40","right","response","1"
"html-audio-button-response","191","609751","0.0-147.0-1.0","CKN_143","143","","","","","","null","stimuli/bleep.m4a","null","orange","red","[""orange"",""red"",""high nameability""]","right-left","[""red"",""orange""]","4","high nameability","40","right","audio_feedback","1"
"html-button-response","192","610278","0.0-148.0","CKN_143","143","","","","","","null","<button class=""jspsych-btn""><img src=""stimuli/white_square.png"" style=""width: 200px;height: 200px;""></button>","null","orange","red","[""orange"",""red"",""high nameability""]","right-left","[""red"",""orange""]","4","high nameability","40","right","iti",""
"pavlovia","193","610331","0.0-149.0","CKN_143","143","","","","","","","","","","","","","","","","","","",""
"pavlovia","194","610341","0.0-150.0","CKN_143","143","","","","","","","","","","","","","","","","","","",""
"html-audio-button-response","195","615155","0.0-151.0","CKN_143","143","","","","","","4880","stimuli/tada.m4a","0","","","","","","","","","","",""
"html-button-response","196","615774","0.0-152.0","CKN_143","143","","","","","","613","","0","","","","","","","","","","",""
"html-button-response","197","618558","0.0-153.0","CKN_143","143","","","","","","2768","","0","mustard","darkgreenblue","[""mustard"",""darkgreenblue"",""low nameability""]","right-left","[""darkgreenblue"",""mustard""]","5","low nameability","41","right","trigger",""
"html-button-response","198","620430","0.0-154.0-0.0","CKN_143","143","","","","","","1860","<button class=""jspsych-btn""><img src=""stimuli/mustard.png"" style=""width: 200px;height: 200px;""></button>","1","mustard","darkgreenblue","[""mustard"",""darkgreenblue"",""low nameability""]","right-left","[""darkgreenblue"",""mustard""]","5","low nameability","41","right","response","1"
"html-audio-button-response","199","620644","0.0-154.0-1.0","CKN_143","143","","","","","","null","stimuli/bleep.m4a","null","mustard","darkgreenblue","[""mustard"",""darkgreenblue"",""low nameability""]","right-left","[""darkgreenblue"",""mustard""]","5","low nameability","41","right","audio_feedback","1"
"html-button-response","200","621162","0.0-155.0","CKN_143","143","","","","","","null","<button class=""jspsych-btn""><img src=""stimuli/white_square.png"" style=""width: 200px;height: 200px;""></button>","null","mustard","darkgreenblue","[""mustard"",""darkgreenblue"",""low nameability""]","right-left","[""darkgreenblue"",""mustard""]","5","low nameability","41","right","iti",""
"html-button-response","201","622893","0.0-156.0","CKN_143","143","","","","","","1710","","0","mustard","lightred","[""mustard"",""lightred"",""low nameability""]","right-left","[""lightred"",""mustard""]","5","low nameability","42","right","trigger",""
"html-button-response","202","624323","0.0-157.0-0.0","CKN_143","143","","","","","","1409","<button class=""jspsych-btn""><img src=""stimuli/mustard.png"" style=""width: 200px;height: 200px;""></button>","1","mustard","lightred","[""mustard"",""lightred"",""low nameability""]","right-left","[""lightred"",""mustard""]","5","low nameability","42","right","response","1"
"html-audio-button-response","203","624536","0.0-157.0-1.0","CKN_143","143","","","","","","null","stimuli/bleep.m4a","null","mustard","lightred","[""mustard"",""lightred"",""low nameability""]","right-left","[""lightred"",""mustard""]","5","low nameability","42","right","audio_feedback","1"
"html-button-response","204","625052","0.0-158.0","CKN_143","143","","","","","","null","<button class=""jspsych-btn""><img src=""stimuli/white_square.png"" style=""width: 200px;height: 200px;""></button>","null","mustard","lightred","[""mustard"",""lightred"",""low nameability""]","right-left","[""lightred"",""mustard""]","5","low nameability","42","right","iti",""
"html-button-response","205","625892","0.0-159.0","CKN_143","143","","","","","","812","","0","brown","yellow","[""brown"",""yellow"",""high nameability""]","right-left","[""yellow"",""brown""]","5","high nameability","43","right","trigger",""
"html-button-response","206","628117","0.0-160.0-0.0","CKN_143","143","","","","","","2216","<button class=""jspsych-btn""><img src=""stimuli/brown.png"" style=""width: 200px;height: 200px;""></button>","1","brown","yellow","[""brown"",""yellow"",""high nameability""]","right-left","[""yellow"",""brown""]","5","high nameability","43","right","response","1"
"html-audio-button-response","207","628330","0.0-160.0-1.0","CKN_143","143","","","","","","null","stimuli/bleep.m4a","null","brown","yellow","[""brown"",""yellow"",""high nameability""]","right-left","[""yellow"",""brown""]","5","high nameability","43","right","audio_feedback","1"
"html-button-response","208","628853","0.0-161.0","CKN_143","143","","","","","","null","<button class=""jspsych-btn""><img src=""stimuli/white_square.png"" style=""width: 200px;height: 200px;""></button>","null","brown","yellow","[""brown"",""yellow"",""high nameability""]","right-left","[""yellow"",""brown""]","5","high nameability","43","right","iti",""
"html-button-response","209","630331","0.0-162.0","CKN_143","143","","","","","","1461","","0","mustard","pink","[""mustard"",""pink"",""low nameability""]","left-right","[""mustard"",""pink"",""low nameability""]","5","low nameability","44","left","trigger",""
"html-button-response","210","634203","0.0-163.0-0.0","CKN_143","143","","","","","","3863","<button class=""jspsych-btn""><img src=""stimuli/mustard.png"" style=""width: 200px;height: 200px;""></button>","0","mustard","pink","[""mustard"",""pink"",""low nameability""]","left-right","[""mustard"",""pink"",""low nameability""]","5","low nameability","44","left","response","1"
"html-audio-button-response","211","634404","0.0-163.0-1.0","CKN_143","143","","","","","","null","stimuli/bleep.m4a","null","mustard","pink","[""mustard"",""pink"",""low nameability""]","left-right","[""mustard"",""pink"",""low nameability""]","5","low nameability","44","left","audio_feedback","1"
"html-button-response","212","634921","0.0-164.0","CKN_143","143","","","","","","null","<button class=""jspsych-btn""><img src=""stimuli/white_square.png"" style=""width: 200px;height: 200px;""></button>","null","mustard","pink","[""mustard"",""pink"",""low nameability""]","left-right","[""mustard"",""pink"",""low nameability""]","5","low nameability","44","left","iti",""
"html-button-response","213","636181","0.0-165.0","CKN_143","143","","","","","","1236","","0","darkgreenblue","mustard","[""darkgreenblue"",""mustard"",""low nameability""]","left-right","[""darkgreenblue"",""mustard"",""low nameability""]","5","low nameability","45","left","trigger",""
"html-button-response","214","637729","0.0-166.0-0.0","CKN_143","143","","","","","","1537","<button class=""jspsych-btn""><img src=""stimuli/darkgreenblue.png"" style=""width: 200px;height: 200px;""></button>","0","darkgreenblue","mustard","[""darkgreenblue"",""mustard"",""low nameability""]","left-right","[""darkgreenblue"",""mustard"",""low nameability""]","5","low nameability","45","left","response","1"
"html-audio-button-response","215","637933","0.0-166.0-1.0","CKN_143","143","","","","","","null","stimuli/bleep.m4a","null","darkgreenblue","mustard","[""darkgreenblue"",""mustard"",""low nameability""]","left-right","[""darkgreenblue"",""mustard"",""low nameability""]","5","low nameability","45","left","audio_feedback","1"
"html-button-response","216","638451","0.0-167.0","CKN_143","143","","","","","","null","<button class=""jspsych-btn""><img src=""stimuli/white_square.png"" style=""width: 200px;height: 200px;""></button>","null","darkgreenblue","mustard","[""darkgreenblue"",""mustard"",""low nameability""]","left-right","[""darkgreenblue"",""mustard"",""low nameability""]","5","low nameability","45","left","iti",""
"html-button-response","217","639479","0.0-168.0","CKN_143","143","","","","","","1010","","0","yellow","brown","[""yellow"",""brown"",""high nameability""]","right-left","[""brown"",""yellow""]","5","high nameability","46","right","trigger",""
"html-button-response","218","643963","0.0-169.0-0.0","CKN_143","143","","","","","","4475","<button class=""jspsych-btn""><img src=""stimuli/yellow.png"" style=""width: 200px;height: 200px;""></button>","1","yellow","brown","[""yellow"",""brown"",""high nameability""]","right-left","[""brown"",""yellow""]","5","high nameability","46","right","response","1"
"html-audio-button-response","219","644168","0.0-169.0-1.0","CKN_143","143","","","","","","null","stimuli/bleep.m4a","null","yellow","brown","[""yellow"",""brown"",""high nameability""]","right-left","[""brown"",""yellow""]","5","high nameability","46","right","audio_feedback","1"
"html-button-response","220","644681","0.0-170.0","CKN_143","143","","","","","","78","<button class=""jspsych-btn""><img src=""stimuli/white_square.png"" style=""width: 200px;height: 200px;""></button>","1","yellow","brown","[""yellow"",""brown"",""high nameability""]","right-left","[""brown"",""yellow""]","5","high nameability","46","right","iti",""
"html-button-response","221","646439","0.0-171.0","CKN_143","143","","","","","","1747","","0","lightred","turquoise","[""lightred"",""turquoise"",""low nameability""]","right-left","[""turquoise"",""lightred""]","5","low nameability","47","right","trigger",""
"html-button-response","222","649650","0.0-172.0-0.0","CKN_143","143","","","","","","3198","<button class=""jspsych-btn""><img src=""stimuli/lightred.png"" style=""width: 200px;height: 200px;""></button>","1","lightred","turquoise","[""lightred"",""turquoise"",""low nameability""]","right-left","[""turquoise"",""lightred""]","5","low nameability","47","right","response","1"
"html-audio-button-response","223","649859","0.0-172.0-1.0","CKN_143","143","","","","","","null","stimuli/bleep.m4a","null","lightred","turquoise","[""lightred"",""turquoise"",""low nameability""]","right-left","[""turquoise"",""lightred""]","5","low nameability","47","right","audio_feedback","1"
"html-button-response","224","650373","0.0-173.0","CKN_143","143","","","","","","null","<button class=""jspsych-btn""><img src=""stimuli/white_square.png"" style=""width: 200px;height: 200px;""></button>","null","lightred","turquoise","[""lightred"",""turquoise"",""low nameability""]","right-left","[""turquoise"",""lightred""]","5","low nameability","47","right","iti",""
"html-button-response","225","652397","0.0-174.0","CKN_143","143","","","","","","2014","","0","lightred","darkgreenblue","[""lightred"",""darkgreenblue"",""low nameability""]","right-left","[""darkgreenblue"",""lightred""]","5","low nameability","48","right","trigger",""
"html-button-response","226","653624","0.0-175.0-0.0","CKN_143","143","","","","","","1216","<button class=""jspsych-btn""><img src=""stimuli/lightred.png"" style=""width: 200px;height: 200px;""></button>","1","lightred","darkgreenblue","[""lightred"",""darkgreenblue"",""low nameability""]","right-left","[""darkgreenblue"",""lightred""]","5","low nameability","48","right","response","1"
"html-audio-button-response","227","653836","0.0-175.0-1.0","CKN_143","143","","","","","","null","stimuli/bleep.m4a","null","lightred","darkgreenblue","[""lightred"",""darkgreenblue"",""low nameability""]","right-left","[""darkgreenblue"",""lightred""]","5","low nameability","48","right","audio_feedback","1"
"html-button-response","228","654351","0.0-176.0","CKN_143","143","","","","","","null","<button class=""jspsych-btn""><img src=""stimuli/white_square.png"" style=""width: 200px;height: 200px;""></button>","null","lightred","darkgreenblue","[""lightred"",""darkgreenblue"",""low nameability""]","right-left","[""darkgreenblue"",""lightred""]","5","low nameability","48","right","iti",""
"html-button-response","229","656130","0.0-177.0","CKN_143","143","","","","","","1758","","0","blue","red","[""blue"",""red"",""high nameability""]","left-right","[""blue"",""red"",""high nameability""]","5","high nameability","49","left","trigger",""
"html-button-response","230","657528","0.0-178.0-0.0","CKN_143","143","","","","","","1387","<button class=""jspsych-btn""><img src=""stimuli/blue.png"" style=""width: 200px;height: 200px;""></button>","0","blue","red","[""blue"",""red"",""high nameability""]","left-right","[""blue"",""red"",""high nameability""]","5","high nameability","49","left","response","1"
"html-audio-button-response","231","657745","0.0-178.0-1.0","CKN_143","143","","","","","","null","stimuli/bleep.m4a","null","blue","red","[""blue"",""red"",""high nameability""]","left-right","[""blue"",""red"",""high nameability""]","5","high nameability","49","left","audio_feedback","1"
"html-button-response","232","658257","0.0-179.0","CKN_143","143","","","","","","null","<button class=""jspsych-btn""><img src=""stimuli/white_square.png"" style=""width: 200px;height: 200px;""></button>","null","blue","red","[""blue"",""red"",""high nameability""]","left-right","[""blue"",""red"",""high nameability""]","5","high nameability","49","left","iti",""
"html-button-response","233","660298","0.0-180.0","CKN_143","143","","","","","","2023","","0","brown","red","[""brown"",""red"",""high nameability""]","left-right","[""brown"",""red"",""high nameability""]","5","high nameability","50","left","trigger",""
"html-button-response","234","662756","0.0-181.0-0.0","CKN_143","143","","","","","","2448","<button class=""jspsych-btn""><img src=""stimuli/brown.png"" style=""width: 200px;height: 200px;""></button>","0","brown","red","[""brown"",""red"",""high nameability""]","left-right","[""brown"",""red"",""high nameability""]","5","high nameability","50","left","response","1"
"html-audio-button-response","235","662966","0.0-181.0-1.0","CKN_143","143","","","","","","null","stimuli/bleep.m4a","null","brown","red","[""brown"",""red"",""high nameability""]","left-right","[""brown"",""red"",""high nameability""]","5","high nameability","50","left","audio_feedback","1"
"html-button-response","236","663488","0.0-182.0","CKN_143","143","","","","","","null","<button class=""jspsych-btn""><img src=""stimuli/white_square.png"" style=""width: 200px;height: 200px;""></button>","null","brown","red","[""brown"",""red"",""high nameability""]","left-right","[""brown"",""red"",""high nameability""]","5","high nameability","50","left","iti",""
"pavlovia","237","663522","0.0-183.0","CKN_143","143","","","","","","","","","","","","","","","","","","",""
"pavlovia","238","663528","0.0-184.0","CKN_143","143","","","","","","","","","","","","","","","","","","",""
"html-audio-button-response","239","668789","0.0-185.0","CKN_143","143","","","","","","5301","stimuli/tada.m4a","0","","","","","","","","","","",""
"html-button-response","240","669537","0.0-186.0","CKN_143","143","","","","","","741","","0","","","","","","","","","","",""
"html-button-response","241","671248","0.0-187.0","CKN_143","143","","","","","","1705","","0","brown","orange","[""brown"",""orange"",""high nameability""]","right-left","[""orange"",""brown""]","6","high nameability","51","right","trigger",""
"html-button-response","242","672590","0.0-188.0-0.0","CKN_143","143","","","","","","1334","<button class=""jspsych-btn""><img src=""stimuli/brown.png"" style=""width: 200px;height: 200px;""></button>","1","brown","orange","[""brown"",""orange"",""high nameability""]","right-left","[""orange"",""brown""]","6","high nameability","51","right","response","1"
"html-audio-button-response","243","672801","0.0-188.0-1.0","CKN_143","143","","","","","","null","stimuli/bleep.m4a","null","brown","orange","[""brown"",""orange"",""high nameability""]","right-left","[""orange"",""brown""]","6","high nameability","51","right","audio_feedback","1"
"html-button-response","244","673315","0.0-189.0","CKN_143","143","","","","","","null","<button class=""jspsych-btn""><img src=""stimuli/white_square.png"" style=""width: 200px;height: 200px;""></button>","null","brown","orange","[""brown"",""orange"",""high nameability""]","right-left","[""orange"",""brown""]","6","high nameability","51","right","iti",""
"html-button-response","245","674849","0.0-190.0","CKN_143","143","","","","","","1514","","0","turquoise","pink","[""turquoise"",""pink"",""low nameability""]","left-right","[""turquoise"",""pink"",""low nameability""]","6","low nameability","52","left","trigger",""
"html-button-response","246","676819","0.0-191.0-0.0","CKN_143","143","","","","","","1961","<button class=""jspsych-btn""><img src=""stimuli/turquoise.png"" style=""width: 200px;height: 200px;""></button>","0","turquoise","pink","[""turquoise"",""pink"",""low nameability""]","left-right","[""turquoise"",""pink"",""low nameability""]","6","low nameability","52","left","response","1"
"html-audio-button-response","247","677025","0.0-191.0-1.0","CKN_143","143","","","","","","null","stimuli/bleep.m4a","null","turquoise","pink","[""turquoise"",""pink"",""low nameability""]","left-right","[""turquoise"",""pink"",""low nameability""]","6","low nameability","52","left","audio_feedback","1"
"html-button-response","248","677537","0.0-192.0","CKN_143","143","","","","","","120","<button class=""jspsych-btn""><img src=""stimuli/white_square.png"" style=""width: 200px;height: 200px;""></button>","0","turquoise","pink","[""turquoise"",""pink"",""low nameability""]","left-right","[""turquoise"",""pink"",""low nameability""]","6","low nameability","52","left","iti",""
"html-button-response","249","678636","0.0-193.0","CKN_143","143","","","","","","1089","","0","lightred","mustard","[""lightred"",""mustard"",""low nameability""]","left-right","[""lightred"",""mustard"",""low nameability""]","6","low nameability","53","left","trigger",""
"html-button-response","250","680574","0.0-194.0-0.0","CKN_143","143","","","","","","1930","<button class=""jspsych-btn""><img src=""stimuli/lightred.png"" style=""width: 200px;height: 200px;""></button>","0","lightred","mustard","[""lightred"",""mustard"",""low nameability""]","left-right","[""lightred"",""mustard"",""low nameability""]","6","low nameability","53","left","response","1"
"html-audio-button-response","251","680780","0.0-194.0-1.0","CKN_143","143","","","","","","null","stimuli/bleep.m4a","null","lightred","mustard","[""lightred"",""mustard"",""low nameability""]","left-right","[""lightred"",""mustard"",""low nameability""]","6","low nameability","53","left","audio_feedback","1"
"html-button-response","252","681294","0.0-195.0","CKN_143","143","","","","","","null","<button class=""jspsych-btn""><img src=""stimuli/white_square.png"" style=""width: 200px;height: 200px;""></button>","null","lightred","mustard","[""lightred"",""mustard"",""low nameability""]","left-right","[""lightred"",""mustard"",""low nameability""]","6","low nameability","53","left","iti",""
"html-button-response","253","682258","0.0-196.0","CKN_143","143","","","","","","944","","0","orange","purple","[""orange"",""purple"",""high nameability""]","right-left","[""purple"",""orange""]","6","high nameability","54","right","trigger",""
"html-button-response","254","684104","0.0-197.0-0.0","CKN_143","143","","","","","","1838","<button class=""jspsych-btn""><img src=""stimuli/orange.png"" style=""width: 200px;height: 200px;""></button>","1","orange","purple","[""orange"",""purple"",""high nameability""]","right-left","[""purple"",""orange""]","6","high nameability","54","right","response","1"
"html-audio-button-response","255","684311","0.0-197.0-1.0","CKN_143","143","","","","","","null","stimuli/bleep.m4a","null","orange","purple","[""orange"",""purple"",""high nameability""]","right-left","[""purple"",""orange""]","6","high nameability","54","right","audio_feedback","1"
"html-button-response","256","684831","0.0-198.0","CKN_143","143","","","","","","null","<button class=""jspsych-btn""><img src=""stimuli/white_square.png"" style=""width: 200px;height: 200px;""></button>","null","orange","purple","[""orange"",""purple"",""high nameability""]","right-left","[""purple"",""orange""]","6","high nameability","54","right","iti",""
"html-button-response","257","685710","0.0-199.0","CKN_143","143","","","","","","863","","0","purple","yellow","[""purple"",""yellow"",""high nameability""]","right-left","[""yellow"",""purple""]","6","high nameability","55","right","trigger",""
"html-button-response","258","686974","0.0-200.0-0.0","CKN_143","143","","","","","","1256","<button class=""jspsych-btn""><img src=""stimuli/purple.png"" style=""width: 200px;height: 200px;""></button>","1","purple","yellow","[""purple"",""yellow"",""high nameability""]","right-left","[""yellow"",""purple""]","6","high nameability","55","right","response","1"
"html-audio-button-response","259","687189","0.0-200.0-1.0","CKN_143","143","","","","","","null","stimuli/bleep.m4a","null","purple","yellow","[""purple"",""yellow"",""high nameability""]","right-left","[""yellow"",""purple""]","6","high nameability","55","right","audio_feedback","1"
"html-button-response","260","687709","0.0-201.0","CKN_143","143","","","","","","null","<button class=""jspsych-btn""><img src=""stimuli/white_square.png"" style=""width: 200px;height: 200px;""></button>","null","purple","yellow","[""purple"",""yellow"",""high nameability""]","right-left","[""yellow"",""purple""]","6","high nameability","55","right","iti",""
"html-button-response","261","688907","0.0-202.0","CKN_143","143","","","","","","1183","","0","orange","brown","[""orange"",""brown"",""high nameability""]","left-right","[""orange"",""brown"",""high nameability""]","6","high nameability","56","left","trigger",""
"html-button-response","262","690696","0.0-203.0-0.0","CKN_143","143","","","","","","1778","<button class=""jspsych-btn""><img src=""stimuli/orange.png"" style=""width: 200px;height: 200px;""></button>","0","orange","brown","[""orange"",""brown"",""high nameability""]","left-right","[""orange"",""brown"",""high nameability""]","6","high nameability","56","left","response","1"
"html-audio-button-response","263","690901","0.0-203.0-1.0","CKN_143","143","","","","","","null","stimuli/bleep.m4a","null","orange","brown","[""orange"",""brown"",""high nameability""]","left-right","[""orange"",""brown"",""high nameability""]","6","high nameability","56","left","audio_feedback","1"
"html-button-response","264","691418","0.0-204.0","CKN_143","143","","","","","","null","<button class=""jspsych-btn""><img src=""stimuli/white_square.png"" style=""width: 200px;height: 200px;""></button>","null","orange","brown","[""orange"",""brown"",""high nameability""]","left-right","[""orange"",""brown"",""high nameability""]","6","high nameability","56","left","iti",""
"html-button-response","265","692498","0.0-205.0","CKN_143","143","","","","","","1061","","0","darkgreenblue","lightred","[""darkgreenblue"",""lightred"",""low nameability""]","right-left","[""lightred"",""darkgreenblue""]","6","low nameability","57","right","trigger",""
"html-button-response","266","696278","0.0-206.0-0.0","CKN_143","143","","","","","","3773","<button class=""jspsych-btn""><img src=""stimuli/darkgreenblue.png"" style=""width: 200px;height: 200px;""></button>","1","darkgreenblue","lightred","[""darkgreenblue"",""lightred"",""low nameability""]","right-left","[""lightred"",""darkgreenblue""]","6","low nameability","57","right","response","1"
"html-audio-button-response","267","696481","0.0-206.0-1.0","CKN_143","143","","","","","","null","stimuli/bleep.m4a","null","darkgreenblue","lightred","[""darkgreenblue"",""lightred"",""low nameability""]","right-left","[""lightred"",""darkgreenblue""]","6","low nameability","57","right","audio_feedback","1"
"html-button-response","268","696999","0.0-207.0","CKN_143","143","","","","","","null","<button class=""jspsych-btn""><img src=""stimuli/white_square.png"" style=""width: 200px;height: 200px;""></button>","null","darkgreenblue","lightred","[""darkgreenblue"",""lightred"",""low nameability""]","right-left","[""lightred"",""darkgreenblue""]","6","low nameability","57","right","iti",""
"html-button-response","269","698522","0.0-208.0","CKN_143","143","","","","","","1504","","0","purple","orange","[""purple"",""orange"",""high nameability""]","left-right","[""purple"",""orange"",""high nameability""]","6","high nameability","58","left","trigger",""
"html-button-response","270","700266","0.0-209.0-0.0","CKN_143","143","","","","","","1734","<button class=""jspsych-btn""><img src=""stimuli/purple.png"" style=""width: 200px;height: 200px;""></button>","0","purple","orange","[""purple"",""orange"",""high nameability""]","left-right","[""purple"",""orange"",""high nameability""]","6","high nameability","58","left","response","1"
"html-audio-button-response","271","700473","0.0-209.0-1.0","CKN_143","143","","","","","","null","stimuli/bleep.m4a","null","purple","orange","[""purple"",""orange"",""high nameability""]","left-right","[""purple"",""orange"",""high nameability""]","6","high nameability","58","left","audio_feedback","1"
"html-button-response","272","700994","0.0-210.0","CKN_143","143","","","","","","null","<button class=""jspsych-btn""><img src=""stimuli/white_square.png"" style=""width: 200px;height: 200px;""></button>","null","purple","orange","[""purple"",""orange"",""high nameability""]","left-right","[""purple"",""orange"",""high nameability""]","6","high nameability","58","left","iti",""
"html-button-response","273","702200","0.0-211.0","CKN_143","143","","","","","","1187","","0","yellow","orange","[""yellow"",""orange"",""high nameability""]","right-left","[""orange"",""yellow""]","6","high nameability","59","right","trigger",""
"html-button-response","274","703328","0.0-212.0-0.0","CKN_143","143","","","","","","1118","<button class=""jspsych-btn""><img src=""stimuli/yellow.png"" style=""width: 200px;height: 200px;""></button>","1","yellow","orange","[""yellow"",""orange"",""high nameability""]","right-left","[""orange"",""yellow""]","6","high nameability","59","right","response","1"
"html-audio-button-response","275","703534","0.0-212.0-1.0","CKN_143","143","","","","","","null","stimuli/bleep.m4a","null","yellow","orange","[""yellow"",""orange"",""high nameability""]","right-left","[""orange"",""yellow""]","6","high nameability","59","right","audio_feedback","1"
"html-button-response","276","704053","0.0-213.0","CKN_143","143","","","","","","null","<button class=""jspsych-btn""><img src=""stimuli/white_square.png"" style=""width: 200px;height: 200px;""></button>","null","yellow","orange","[""yellow"",""orange"",""high nameability""]","right-left","[""orange"",""yellow""]","6","high nameability","59","right","iti",""
"html-button-response","277","707540","0.0-214.0","CKN_143","143","","","","","","3466","","0","red","brown","[""red"",""brown"",""high nameability""]","right-left","[""brown"",""red""]","6","high nameability","60","right","trigger",""
"html-button-response","278","708927","0.0-215.0-0.0","CKN_143","143","","","","","","1376","<button class=""jspsych-btn""><img src=""stimuli/red.png"" style=""width: 200px;height: 200px;""></button>","1","red","brown","[""red"",""brown"",""high nameability""]","right-left","[""brown"",""red""]","6","high nameability","60","right","response","1"
"html-audio-button-response","279","709129","0.0-215.0-1.0","CKN_143","143","","","","","","null","stimuli/bleep.m4a","null","red","brown","[""red"",""brown"",""high nameability""]","right-left","[""brown"",""red""]","6","high nameability","60","right","audio_feedback","1"
"html-button-response","280","709643","0.0-216.0","CKN_143","143","","","","","","null","<button class=""jspsych-btn""><img src=""stimuli/white_square.png"" style=""width: 200px;height: 200px;""></button>","null","red","brown","[""red"",""brown"",""high nameability""]","right-left","[""brown"",""red""]","6","high nameability","60","right","iti",""
