"trial_type","trial_index","time_elapsed","internal_node_id","subject_id","seed","success","timeout","failed_images","failed_audio","failed_video","rt","stimulus","response","target","foil","choices","combination_order","choices_in_order","round","condition","trial_counter","target_location","trial_kind","correct"
"pavlovia","0","20","0.0-0.0","CKN_138","138","","","","","","","","","","","","","","","","","","",""
"preload","1","644","0.0-1.0","CKN_138","138","true","false","[]","[]","[]","","","","","","","","","","","","","",""
"fullscreen","2","29194","0.0-2.0","CKN_138","138","true","","","","","","","","","","","","","","","","","",""
"html-button-response","3","173057","0.0-3.0","CKN_138","138","","","","","","143830","","0","","","","","","","","","","",""
"html-button-response","4","176869","0.0-4.0","CKN_138","138","","","","","","3796","","0","star","square","[""square"",""star""]","left-right","[""square"",""star""]","1","practice","1","right","trigger",""
"html-button-response","5","181668","0.0-5.0-0.0","CKN_138","138","","","","","","4787","<button class=""jspsych-btn""><img src=""stimuli/star.png"" style=""width: 200px;height: 200px;""></button>","1","star","square","[""square"",""star""]","left-right","[""square"",""star""]","1","practice","1","right","response","1"
"html-audio-button-response","6","181879","0.0-5.0-1.0","CKN_138","138","","","","","","null","stimuli/bleep.m4a","null","star","square","[""square"",""star""]","left-right","[""square"",""star""]","1","practice","1","right","audio_feedback","1"
"html-button-response","7","182418","0.0-6.0","CKN_138","138","","","","","","null","<button class=""jspsych-btn""><img src=""stimuli/white_square.png"" style=""width: 200px;height: 200px;""></button>","null","star","square","[""square"",""star""]","left-right","[""square"",""star""]","1","practice","1","right","iti",""
"html-button-response","8","185654","0.0-7.0","CKN_138","138","","","","","","3214","","0","triangle","pentagram","[""triangle"",""pentagram""]","left-right","[""triangle"",""pentagram""]","1","practice","1","left","trigger",""
"html-button-response","9","190886","0.0-8.0-0.0","CKN_138","138","","","","","","5225","<button class=""jspsych-btn""><img src=""stimuli/triangle.png"" style=""width: 200px;height: 200px;""></button>","0","triangle","pentagram","[""triangle"",""pentagram""]","left-right","[""triangle"",""pentagram""]","1","practice","1","left","response","1"
"html-audio-button-response","10","191103","0.0-8.0-1.0","CKN_138","138","","","","","","null","stimuli/bleep.m4a","null","triangle","pentagram","[""triangle"",""pentagram""]","left-right","[""triangle"",""pentagram""]","1","practice","1","left","audio_feedback","1"
"html-button-response","11","191626","0.0-9.0","CKN_138","138","","","","","","null","<button class=""jspsych-btn""><img src=""stimuli/white_square.png"" style=""width: 200px;height: 200px;""></button>","null","triangle","pentagram","[""triangle"",""pentagram""]","left-right","[""triangle"",""pentagram""]","1","practice","1","left","iti",""
"html-button-response","12","196019","0.0-10.0","CKN_138","138","","","","","","4381","","0","diamond","rectangle","[""rectangle"",""diamond""]","left-right","[""rectangle"",""diamond""]","1","practice","1","right","trigger",""
"html-button-response","13","198174","0.0-11.0-0.0","CKN_138","138","","","","","","2139","<button class=""jspsych-btn""><img src=""stimuli/diamond.png"" style=""width: 200px;height: 200px;""></button>","1","diamond","rectangle","[""rectangle"",""diamond""]","left-right","[""rectangle"",""diamond""]","1","practice","1","right","response","1"
"html-audio-button-response","14","198390","0.0-11.0-1.0","CKN_138","138","","","","","","null","stimuli/bleep.m4a","null","diamond","rectangle","[""rectangle"",""diamond""]","left-right","[""rectangle"",""diamond""]","1","practice","1","right","audio_feedback","1"
"html-button-response","15","198909","0.0-12.0","CKN_138","138","","","","","","null","<button class=""jspsych-btn""><img src=""stimuli/white_square.png"" style=""width: 200px;height: 200px;""></button>","null","diamond","rectangle","[""rectangle"",""diamond""]","left-right","[""rectangle"",""diamond""]","1","practice","1","right","iti",""
"html-button-response","16","200227","0.0-13.0","CKN_138","138","","","","","","1304","","0","pentagram","star","[""pentagram"",""star""]","left-right","[""pentagram"",""star""]","1","practice","1","left","trigger",""
"html-button-response","17","202053","0.0-14.0-0.0","CKN_138","138","","","","","","1817","<button class=""jspsych-btn""><img src=""stimuli/pentagram.png"" style=""width: 200px;height: 200px;""></button>","0","pentagram","star","[""pentagram"",""star""]","left-right","[""pentagram"",""star""]","1","practice","1","left","response","1"
"html-audio-button-response","18","202262","0.0-14.0-1.0","CKN_138","138","","","","","","null","stimuli/bleep.m4a","null","pentagram","star","[""pentagram"",""star""]","left-right","[""pentagram"",""star""]","1","practice","1","left","audio_feedback","1"
"html-button-response","19","202776","0.0-15.0","CKN_138","138","","","","","","null","<button class=""jspsych-btn""><img src=""stimuli/white_square.png"" style=""width: 200px;height: 200px;""></button>","null","pentagram","star","[""pentagram"",""star""]","left-right","[""pentagram"",""star""]","1","practice","1","left","iti",""
"html-button-response","20","206528","0.0-16.0","CKN_138","138","","","","","","3734","","0","","","","","","","","","","",""
"html-button-response","21","209728","0.0-17.0","CKN_138","138","","","","","","3187","","0","purple","brown","[""purple"",""brown"",""high nameability""]","left-right","[""purple"",""brown"",""high nameability""]","1","high nameability","1","left","trigger",""
"html-button-response","22","211485","0.0-18.0-0.0","CKN_138","138","","","","","","1744","<button class=""jspsych-btn""><img src=""stimuli/purple.png"" style=""width: 200px;height: 200px;""></button>","0","purple","brown","[""purple"",""brown"",""high nameability""]","left-right","[""purple"",""brown"",""high nameability""]","1","high nameability","1","left","response","1"
"html-audio-button-response","23","211694","0.0-18.0-1.0","CKN_138","138","","","","","","null","stimuli/bleep.m4a","null","purple","brown","[""purple"",""brown"",""high nameability""]","left-right","[""purple"",""brown"",""high nameability""]","1","high nameability","1","left","audio_feedback","1"
"html-button-response","24","212209","0.0-19.0","CKN_138","138","","","","","","null","<button class=""jspsych-btn""><img src=""stimuli/white_square.png"" style=""width: 200px;height: 200px;""></button>","null","purple","brown","[""purple"",""brown"",""high nameability""]","left-right","[""purple"",""brown"",""high nameability""]","1","high nameability","1","left","iti",""
"html-button-response","25","213900","0.0-20.0","CKN_138","138","","","","","","1678","","0","darkgreenblue","turquoise","[""darkgreenblue"",""turquoise"",""low nameability""]","right-left","[""turquoise"",""darkgreenblue""]","1","low nameability","2","right","trigger",""
"html-button-response","26","217433","0.0-21.0-0.0","CKN_138","138","","","","","","3522","<button class=""jspsych-btn""><img src=""stimuli/darkgreenblue.png"" style=""width: 200px;height: 200px;""></button>","1","darkgreenblue","turquoise","[""darkgreenblue"",""turquoise"",""low nameability""]","right-left","[""turquoise"",""darkgreenblue""]","1","low nameability","2","right","response","1"
"html-audio-button-response","27","217661","0.0-21.0-1.0","CKN_138","138","","","","","","null","stimuli/bleep.m4a","null","darkgreenblue","turquoise","[""darkgreenblue"",""turquoise"",""low nameability""]","right-left","[""turquoise"",""darkgreenblue""]","1","low nameability","2","right","audio_feedback","1"
"html-button-response","28","218184","0.0-22.0","CKN_138","138","","","","","","null","<button class=""jspsych-btn""><img src=""stimuli/white_square.png"" style=""width: 200px;height: 200px;""></button>","null","darkgreenblue","turquoise","[""darkgreenblue"",""turquoise"",""low nameability""]","right-left","[""turquoise"",""darkgreenblue""]","1","low nameability","2","right","iti",""
"html-button-response","29","219230","0.0-23.0","CKN_138","138","","","","","","1026","","0","purple","blue","[""purple"",""blue"",""high nameability""]","left-right","[""purple"",""blue"",""high nameability""]","1","high nameability","3","left","trigger",""
"html-button-response","30","220860","0.0-24.0-0.0","CKN_138","138","","","","","","1622","<button class=""jspsych-btn""><img src=""stimuli/purple.png"" style=""width: 200px;height: 200px;""></button>","0","purple","blue","[""purple"",""blue"",""high nameability""]","left-right","[""purple"",""blue"",""high nameability""]","1","high nameability","3","left","response","1"
"html-audio-button-response","31","221062","0.0-24.0-1.0","CKN_138","138","","","","","","null","stimuli/bleep.m4a","null","purple","blue","[""purple"",""blue"",""high nameability""]","left-right","[""purple"",""blue"",""high nameability""]","1","high nameability","3","left","audio_feedback","1"
"html-button-response","32","221580","0.0-25.0","CKN_138","138","","","","","","null","<button class=""jspsych-btn""><img src=""stimuli/white_square.png"" style=""width: 200px;height: 200px;""></button>","null","purple","blue","[""purple"",""blue"",""high nameability""]","left-right","[""purple"",""blue"",""high nameability""]","1","high nameability","3","left","iti",""
"html-button-response","33","223213","0.0-26.0","CKN_138","138","","","","","","1606","","0","red","brown","[""red"",""brown"",""high nameability""]","right-left","[""brown"",""red""]","1","high nameability","4","right","trigger",""
"html-button-response","34","224809","0.0-27.0-0.0","CKN_138","138","","","","","","1585","<button class=""jspsych-btn""><img src=""stimuli/red.png"" style=""width: 200px;height: 200px;""></button>","1","red","brown","[""red"",""brown"",""high nameability""]","right-left","[""brown"",""red""]","1","high nameability","4","right","response","1"
"html-audio-button-response","35","225021","0.0-27.0-1.0","CKN_138","138","","","","","","null","stimuli/bleep.m4a","null","red","brown","[""red"",""brown"",""high nameability""]","right-left","[""brown"",""red""]","1","high nameability","4","right","audio_feedback","1"
"html-button-response","36","225540","0.0-28.0","CKN_138","138","","","","","","null","<button class=""jspsych-btn""><img src=""stimuli/white_square.png"" style=""width: 200px;height: 200px;""></button>","null","red","brown","[""red"",""brown"",""high nameability""]","right-left","[""brown"",""red""]","1","high nameability","4","right","iti",""
"html-button-response","37","226666","0.0-29.0","CKN_138","138","","","","","","1112","","0","blue","brown","[""blue"",""brown"",""high nameability""]","right-left","[""brown"",""blue""]","1","high nameability","5","right","trigger",""
"html-button-response","38","228884","0.0-30.0-0.0","CKN_138","138","","","","","","2212","<button class=""jspsych-btn""><img src=""stimuli/blue.png"" style=""width: 200px;height: 200px;""></button>","1","blue","brown","[""blue"",""brown"",""high nameability""]","right-left","[""brown"",""blue""]","1","high nameability","5","right","response","1"
"html-audio-button-response","39","229096","0.0-30.0-1.0","CKN_138","138","","","","","","null","stimuli/bleep.m4a","null","blue","brown","[""blue"",""brown"",""high nameability""]","right-left","[""brown"",""blue""]","1","high nameability","5","right","audio_feedback","1"
"html-button-response","40","229609","0.0-31.0","CKN_138","138","","","","","","null","<button class=""jspsych-btn""><img src=""stimuli/white_square.png"" style=""width: 200px;height: 200px;""></button>","null","blue","brown","[""blue"",""brown"",""high nameability""]","right-left","[""brown"",""blue""]","1","high nameability","5","right","iti",""
"html-button-response","41","230987","0.0-32.0","CKN_138","138","","","","","","1367","","0","lightred","pink","[""lightred"",""pink"",""low nameability""]","right-left","[""pink"",""lightred""]","1","low nameability","6","right","trigger",""
"html-button-response","42","232293","0.0-33.0-0.0","CKN_138","138","","","","","","1295","<button class=""jspsych-btn""><img src=""stimuli/lightred.png"" style=""width: 200px;height: 200px;""></button>","1","lightred","pink","[""lightred"",""pink"",""low nameability""]","right-left","[""pink"",""lightred""]","1","low nameability","6","right","response","1"
"html-audio-button-response","43","232502","0.0-33.0-1.0","CKN_138","138","","","","","","null","stimuli/bleep.m4a","null","lightred","pink","[""lightred"",""pink"",""low nameability""]","right-left","[""pink"",""lightred""]","1","low nameability","6","right","audio_feedback","1"
"html-button-response","44","233020","0.0-34.0","CKN_138","138","","","","","","null","<button class=""jspsych-btn""><img src=""stimuli/white_square.png"" style=""width: 200px;height: 200px;""></button>","null","lightred","pink","[""lightred"",""pink"",""low nameability""]","right-left","[""pink"",""lightred""]","1","low nameability","6","right","iti",""
"html-button-response","45","234089","0.0-35.0","CKN_138","138","","","","","","1053","","0","purple","red","[""purple"",""red"",""high nameability""]","right-left","[""red"",""purple""]","1","high nameability","7","right","trigger",""
"html-button-response","46","235505","0.0-36.0-0.0","CKN_138","138","","","","","","1408","<button class=""jspsych-btn""><img src=""stimuli/purple.png"" style=""width: 200px;height: 200px;""></button>","1","purple","red","[""purple"",""red"",""high nameability""]","right-left","[""red"",""purple""]","1","high nameability","7","right","response","1"
"html-audio-button-response","47","235726","0.0-36.0-1.0","CKN_138","138","","","","","","null","stimuli/bleep.m4a","null","purple","red","[""purple"",""red"",""high nameability""]","right-left","[""red"",""purple""]","1","high nameability","7","right","audio_feedback","1"
"html-button-response","48","236257","0.0-37.0","CKN_138","138","","","","","","null","<button class=""jspsych-btn""><img src=""stimuli/white_square.png"" style=""width: 200px;height: 200px;""></button>","null","purple","red","[""purple"",""red"",""high nameability""]","right-left","[""red"",""purple""]","1","high nameability","7","right","iti",""
"html-button-response","49","237470","0.0-38.0","CKN_138","138","","","","","","1200","","0","turquoise","pink","[""turquoise"",""pink"",""low nameability""]","left-right","[""turquoise"",""pink"",""low nameability""]","1","low nameability","8","left","trigger",""
"html-button-response","50","240466","0.0-39.0-0.0","CKN_138","138","","","","","","2988","<button class=""jspsych-btn""><img src=""stimuli/turquoise.png"" style=""width: 200px;height: 200px;""></button>","0","turquoise","pink","[""turquoise"",""pink"",""low nameability""]","left-right","[""turquoise"",""pink"",""low nameability""]","1","low nameability","8","left","response","1"
"html-audio-button-response","51","240669","0.0-39.0-1.0","CKN_138","138","","","","","","null","stimuli/bleep.m4a","null","turquoise","pink","[""turquoise"",""pink"",""low nameability""]","left-right","[""turquoise"",""pink"",""low nameability""]","1","low nameability","8","left","audio_feedback","1"
"html-button-response","52","241181","0.0-40.0","CKN_138","138","","","","","","null","<button class=""jspsych-btn""><img src=""stimuli/white_square.png"" style=""width: 200px;height: 200px;""></button>","null","turquoise","pink","[""turquoise"",""pink"",""low nameability""]","left-right","[""turquoise"",""pink"",""low nameability""]","1","low nameability","8","left","iti",""
"html-button-response","53","242813","0.0-41.0","CKN_138","138","","","","","","1620","","0","yellow","brown","[""yellow"",""brown"",""high nameability""]","left-right","[""yellow"",""brown"",""high nameability""]","1","high nameability","9","left","trigger",""
"html-button-response","54","245953","0.0-42.0-0.0","CKN_138","138","","","","","","3130","<button class=""jspsych-btn""><img src=""stimuli/yellow.png"" style=""width: 200px;height: 200px;""></button>","0","yellow","brown","[""yellow"",""brown"",""high nameability""]","left-right","[""yellow"",""brown"",""high nameability""]","1","high nameability","9","left","response","1"
"html-audio-button-response","55","246157","0.0-42.0-1.0","CKN_138","138","","","","","","null","stimuli/bleep.m4a","null","yellow","brown","[""yellow"",""brown"",""high nameability""]","left-right","[""yellow"",""brown"",""high nameability""]","1","high nameability","9","left","audio_feedback","1"
"html-button-response","56","246672","0.0-43.0","CKN_138","138","","","","","","null","<button class=""jspsych-btn""><img src=""stimuli/white_square.png"" style=""width: 200px;height: 200px;""></button>","null","yellow","brown","[""yellow"",""brown"",""high nameability""]","left-right","[""yellow"",""brown"",""high nameability""]","1","high nameability","9","left","iti",""
"html-button-response","57","247550","0.0-44.0","CKN_138","138","","","","","","867","","0","turquoise","lightred","[""turquoise"",""lightred"",""low nameability""]","right-left","[""lightred"",""turquoise""]","1","low nameability","10","right","trigger",""
"html-button-response","58","249088","0.0-45.0-0.0","CKN_138","138","","","","","","1531","<button class=""jspsych-btn""><img src=""stimuli/turquoise.png"" style=""width: 200px;height: 200px;""></button>","1","turquoise","lightred","[""turquoise"",""lightred"",""low nameability""]","right-left","[""lightred"",""turquoise""]","1","low nameability","10","right","response","1"
"html-audio-button-response","59","249293","0.0-45.0-1.0","CKN_138","138","","","","","","null","stimuli/bleep.m4a","null","turquoise","lightred","[""turquoise"",""lightred"",""low nameability""]","right-left","[""lightred"",""turquoise""]","1","low nameability","10","right","audio_feedback","1"
"html-button-response","60","249809","0.0-46.0","CKN_138","138","","","","","","null","<button class=""jspsych-btn""><img src=""stimuli/white_square.png"" style=""width: 200px;height: 200px;""></button>","null","turquoise","lightred","[""turquoise"",""lightred"",""low nameability""]","right-left","[""lightred"",""turquoise""]","1","low nameability","10","right","iti",""
"pavlovia","61","249910","0.0-47.0","CKN_138","138","","","","","","","","","","","","","","","","","","",""
"pavlovia","62","249933","0.0-48.0","CKN_138","138","","","","","","","","","","","","","","","","","","",""
"html-audio-button-response","63","256803","0.0-49.0","CKN_138","138","","","","","","6992","stimuli/tada.m4a","0","","","","","","","","","","",""
"html-button-response","64","257369","0.0-50.0","CKN_138","138","","","","","","551","","0","","","","","","","","","","",""
"html-button-response","65","258624","0.0-51.0","CKN_138","138","","","","","","1241","","0","brown","purple","[""brown"",""purple"",""high nameability""]","right-left","[""purple"",""brown""]","2","high nameability","11","right","trigger",""
"html-button-response","66","260261","0.0-52.0-0.0","CKN_138","138","","","","","","1621","<button class=""jspsych-btn""><img src=""stimuli/brown.png"" style=""width: 200px;height: 200px;""></button>","1","brown","purple","[""brown"",""purple"",""high nameability""]","right-left","[""purple"",""brown""]","2","high nameability","11","right","response","1"
"html-audio-button-response","67","260478","0.0-52.0-1.0","CKN_138","138","","","","","","null","stimuli/bleep.m4a","null","brown","purple","[""brown"",""purple"",""high nameability""]","right-left","[""purple"",""brown""]","2","high nameability","11","right","audio_feedback","1"
"html-button-response","68","261021","0.0-53.0","CKN_138","138","","","","","","null","<button class=""jspsych-btn""><img src=""stimuli/white_square.png"" style=""width: 200px;height: 200px;""></button>","null","brown","purple","[""brown"",""purple"",""high nameability""]","right-left","[""purple"",""brown""]","2","high nameability","11","right","iti",""
"html-button-response","69","262311","0.0-54.0","CKN_138","138","","","","","","1259","","0","lightred","turquoise","[""lightred"",""turquoise"",""low nameability""]","right-left","[""turquoise"",""lightred""]","2","low nameability","12","right","trigger",""
"html-button-response","70","263788","0.0-55.0-0.0","CKN_138","138","","","","","","1468","<button class=""jspsych-btn""><img src=""stimuli/lightred.png"" style=""width: 200px;height: 200px;""></button>","1","lightred","turquoise","[""lightred"",""turquoise"",""low nameability""]","right-left","[""turquoise"",""lightred""]","2","low nameability","12","right","response","1"
"html-audio-button-response","71","264006","0.0-55.0-1.0","CKN_138","138","","","","","","null","stimuli/bleep.m4a","null","lightred","turquoise","[""lightred"",""turquoise"",""low nameability""]","right-left","[""turquoise"",""lightred""]","2","low nameability","12","right","audio_feedback","1"
"html-button-response","72","264525","0.0-56.0","CKN_138","138","","","","","","null","<button class=""jspsych-btn""><img src=""stimuli/white_square.png"" style=""width: 200px;height: 200px;""></button>","null","lightred","turquoise","[""lightred"",""turquoise"",""low nameability""]","right-left","[""turquoise"",""lightred""]","2","low nameability","12","right","iti",""
"html-button-response","73","265599","0.0-57.0","CKN_138","138","","","","","","1062","","0","brown","yellow","[""brown"",""yellow"",""high nameability""]","right-left","[""yellow"",""brown""]","2","high nameability","13","right","trigger",""
"html-button-response","74","267647","0.0-58.0-0.0","CKN_138","138","","","","","","2039","<button class=""jspsych-btn""><img src=""stimuli/brown.png"" style=""width: 200px;height: 200px;""></button>","1","brown","yellow","[""brown"",""yellow"",""high nameability""]","right-left","[""yellow"",""brown""]","2","high nameability","13","right","response","1"
"html-audio-button-response","75","267851","0.0-58.0-1.0","CKN_138","138","","","","","","null","stimuli/bleep.m4a","null","brown","yellow","[""brown"",""yellow"",""high nameability""]","right-left","[""yellow"",""brown""]","2","high nameability","13","right","audio_feedback","1"
"html-button-response","76","268364","0.0-59.0","CKN_138","138","","","","","","null","<button class=""jspsych-btn""><img src=""stimuli/white_square.png"" style=""width: 200px;height: 200px;""></button>","null","brown","yellow","[""brown"",""yellow"",""high nameability""]","right-left","[""yellow"",""brown""]","2","high nameability","13","right","iti",""
"html-button-response","77","269360","0.0-60.0","CKN_138","138","","","","","","980","","0","red","orange","[""red"",""orange"",""high nameability""]","left-right","[""red"",""orange"",""high nameability""]","2","high nameability","14","left","trigger",""
"html-button-response","78","272547","0.0-61.0-0.0","CKN_138","138","","","","","","3179","<button class=""jspsych-btn""><img src=""stimuli/red.png"" style=""width: 200px;height: 200px;""></button>","0","red","orange","[""red"",""orange"",""high nameability""]","left-right","[""red"",""orange"",""high nameability""]","2","high nameability","14","left","response","1"
"html-audio-button-response","79","272757","0.0-61.0-1.0","CKN_138","138","","","","","","null","stimuli/bleep.m4a","null","red","orange","[""red"",""orange"",""high nameability""]","left-right","[""red"",""orange"",""high nameability""]","2","high nameability","14","left","audio_feedback","1"
"html-button-response","80","273266","0.0-62.0","CKN_138","138","","","","","","null","<button class=""jspsych-btn""><img src=""stimuli/white_square.png"" style=""width: 200px;height: 200px;""></button>","null","red","orange","[""red"",""orange"",""high nameability""]","left-right","[""red"",""orange"",""high nameability""]","2","high nameability","14","left","iti",""
"html-button-response","81","275579","0.0-63.0","CKN_138","138","","","","","","2299","","0","darkgreenblue","neonyellow","[""darkgreenblue"",""neonyellow"",""low nameability""]","left-right","[""darkgreenblue"",""neonyellow"",""low nameability""]","2","low nameability","15","left","trigger",""
"html-button-response","82","276950","0.0-64.0-0.0","CKN_138","138","","","","","","1359","<button class=""jspsych-btn""><img src=""stimuli/darkgreenblue.png"" style=""width: 200px;height: 200px;""></button>","0","darkgreenblue","neonyellow","[""darkgreenblue"",""neonyellow"",""low nameability""]","left-right","[""darkgreenblue"",""neonyellow"",""low nameability""]","2","low nameability","15","left","response","1"
"html-audio-button-response","83","277180","0.0-64.0-1.0","CKN_138","138","","","","","","null","stimuli/bleep.m4a","null","darkgreenblue","neonyellow","[""darkgreenblue"",""neonyellow"",""low nameability""]","left-right","[""darkgreenblue"",""neonyellow"",""low nameability""]","2","low nameability","15","left","audio_feedback","1"
"html-button-response","84","277696","0.0-65.0","CKN_138","138","","","","","","null","<button class=""jspsych-btn""><img src=""stimuli/white_square.png"" style=""width: 200px;height: 200px;""></button>","null","darkgreenblue","neonyellow","[""darkgreenblue"",""neonyellow"",""low nameability""]","left-right","[""darkgreenblue"",""neonyellow"",""low nameability""]","2","low nameability","15","left","iti",""
"html-button-response","85","278858","0.0-66.0","CKN_138","138","","","","","","1149","","0","yellow","blue","[""yellow"",""blue"",""high nameability""]","right-left","[""blue"",""yellow""]","2","high nameability","16","right","trigger",""
"html-button-response","86","280083","0.0-67.0-0.0","CKN_138","138","","","","","","1216","<button class=""jspsych-btn""><img src=""stimuli/yellow.png"" style=""width: 200px;height: 200px;""></button>","1","yellow","blue","[""yellow"",""blue"",""high nameability""]","right-left","[""blue"",""yellow""]","2","high nameability","16","right","response","1"
"html-audio-button-response","87","280295","0.0-67.0-1.0","CKN_138","138","","","","","","null","stimuli/bleep.m4a","null","yellow","blue","[""yellow"",""blue"",""high nameability""]","right-left","[""blue"",""yellow""]","2","high nameability","16","right","audio_feedback","1"
"html-button-response","88","280814","0.0-68.0","CKN_138","138","","","","","","null","<button class=""jspsych-btn""><img src=""stimuli/white_square.png"" style=""width: 200px;height: 200px;""></button>","null","yellow","blue","[""yellow"",""blue"",""high nameability""]","right-left","[""blue"",""yellow""]","2","high nameability","16","right","iti",""
"html-button-response","89","281844","0.0-69.0","CKN_138","138","","","","","","1016","","0","yellow","red","[""yellow"",""red"",""high nameability""]","right-left","[""red"",""yellow""]","2","high nameability","17","right","trigger",""
"html-button-response","90","285151","0.0-70.0-0.0","CKN_138","138","","","","","","3298","<button class=""jspsych-btn""><img src=""stimuli/yellow.png"" style=""width: 200px;height: 200px;""></button>","1","yellow","red","[""yellow"",""red"",""high nameability""]","right-left","[""red"",""yellow""]","2","high nameability","17","right","response","1"
"html-audio-button-response","91","285364","0.0-70.0-1.0","CKN_138","138","","","","","","null","stimuli/bleep.m4a","null","yellow","red","[""yellow"",""red"",""high nameability""]","right-left","[""red"",""yellow""]","2","high nameability","17","right","audio_feedback","1"
"html-button-response","92","285887","0.0-71.0","CKN_138","138","","","","","","null","<button class=""jspsych-btn""><img src=""stimuli/white_square.png"" style=""width: 200px;height: 200px;""></button>","null","yellow","red","[""yellow"",""red"",""high nameability""]","right-left","[""red"",""yellow""]","2","high nameability","17","right","iti",""
"html-button-response","93","286826","0.0-72.0","CKN_138","138","","","","","","915","","0","lightred","mustard","[""lightred"",""mustard"",""low nameability""]","left-right","[""lightred"",""mustard"",""low nameability""]","2","low nameability","18","left","trigger",""
"html-button-response","94","291487","0.0-73.0-0.0","CKN_138","138","","","","","","4654","<button class=""jspsych-btn""><img src=""stimuli/lightred.png"" style=""width: 200px;height: 200px;""></button>","0","lightred","mustard","[""lightred"",""mustard"",""low nameability""]","left-right","[""lightred"",""mustard"",""low nameability""]","2","low nameability","18","left","response","1"
"html-audio-button-response","95","291693","0.0-73.0-1.0","CKN_138","138","","","","","","null","stimuli/bleep.m4a","null","lightred","mustard","[""lightred"",""mustard"",""low nameability""]","left-right","[""lightred"",""mustard"",""low nameability""]","2","low nameability","18","left","audio_feedback","1"
"html-button-response","96","292216","0.0-74.0","CKN_138","138","","","","","","null","<button class=""jspsych-btn""><img src=""stimuli/white_square.png"" style=""width: 200px;height: 200px;""></button>","null","lightred","mustard","[""lightred"",""mustard"",""low nameability""]","left-right","[""lightred"",""mustard"",""low nameability""]","2","low nameability","18","left","iti",""
"html-button-response","97","293253","0.0-75.0","CKN_138","138","","","","","","1025","","0","brown","orange","[""brown"",""orange"",""high nameability""]","right-left","[""orange"",""brown""]","2","high nameability","19","right","trigger",""
"html-button-response","98","295456","0.0-76.0-0.0","CKN_138","138","","","","","","2195","<button class=""jspsych-btn""><img src=""stimuli/brown.png"" style=""width: 200px;height: 200px;""></button>","1","brown","orange","[""brown"",""orange"",""high nameability""]","right-left","[""orange"",""brown""]","2","high nameability","19","right","response","1"
"html-audio-button-response","99","295663","0.0-76.0-1.0","CKN_138","138","","","","","","null","stimuli/bleep.m4a","null","brown","orange","[""brown"",""orange"",""high nameability""]","right-left","[""orange"",""brown""]","2","high nameability","19","right","audio_feedback","1"
"html-button-response","100","296182","0.0-77.0","CKN_138","138","","","","","","null","<button class=""jspsych-btn""><img src=""stimuli/white_square.png"" style=""width: 200px;height: 200px;""></button>","null","brown","orange","[""brown"",""orange"",""high nameability""]","right-left","[""orange"",""brown""]","2","high nameability","19","right","iti",""
"html-button-response","101","297286","0.0-78.0","CKN_138","138","","","","","","1090","","0","purple","yellow","[""purple"",""yellow"",""high nameability""]","right-left","[""yellow"",""purple""]","2","high nameability","20","right","trigger",""
"html-button-response","102","298725","0.0-79.0-0.0","CKN_138","138","","","","","","1431","<button class=""jspsych-btn""><img src=""stimuli/purple.png"" style=""width: 200px;height: 200px;""></button>","1","purple","yellow","[""purple"",""yellow"",""high nameability""]","right-left","[""yellow"",""purple""]","2","high nameability","20","right","response","1"
"html-audio-button-response","103","298934","0.0-79.0-1.0","CKN_138","138","","","","","","null","stimuli/bleep.m4a","null","purple","yellow","[""purple"",""yellow"",""high nameability""]","right-left","[""yellow"",""purple""]","2","high nameability","20","right","audio_feedback","1"
"html-button-response","104","299454","0.0-80.0","CKN_138","138","","","","","","null","<button class=""jspsych-btn""><img src=""stimuli/white_square.png"" style=""width: 200px;height: 200px;""></button>","null","purple","yellow","[""purple"",""yellow"",""high nameability""]","right-left","[""yellow"",""purple""]","2","high nameability","20","right","iti",""
"pavlovia","105","299538","0.0-81.0","CKN_138","138","","","","","","","","","","","","","","","","","","",""
"pavlovia","106","299549","0.0-82.0","CKN_138","138","","","","","","","","","","","","","","","","","","",""
"html-audio-button-response","107","303735","0.0-83.0","CKN_138","138","","","","","","4283","stimuli/tada.m4a","0","","","","","","","","","","",""
"html-button-response","108","304226","0.0-84.0","CKN_138","138","","","","","","485","","0","","","","","","","","","","",""
"html-button-response","109","305508","0.0-85.0","CKN_138","138","","","","","","1277","","0","neonyellow","pink","[""neonyellow"",""pink"",""low nameability""]","left-right","[""neonyellow"",""pink"",""low nameability""]","3","low nameability","21","left","trigger",""
"html-button-response","110","307222","0.0-86.0-0.0","CKN_138","138","","","","","","1702","<button class=""jspsych-btn""><img src=""stimuli/neonyellow.png"" style=""width: 200px;height: 200px;""></button>","0","neonyellow","pink","[""neonyellow"",""pink"",""low nameability""]","left-right","[""neonyellow"",""pink"",""low nameability""]","3","low nameability","21","left","response","1"
"html-audio-button-response","111","307439","0.0-86.0-1.0","CKN_138","138","","","","","","null","stimuli/bleep.m4a","null","neonyellow","pink","[""neonyellow"",""pink"",""low nameability""]","left-right","[""neonyellow"",""pink"",""low nameability""]","3","low nameability","21","left","audio_feedback","1"
"html-button-response","112","307969","0.0-87.0","CKN_138","138","","","","","","null","<button class=""jspsych-btn""><img src=""stimuli/white_square.png"" style=""width: 200px;height: 200px;""></button>","null","neonyellow","pink","[""neonyellow"",""pink"",""low nameability""]","left-right","[""neonyellow"",""pink"",""low nameability""]","3","low nameability","21","left","iti",""
"html-button-response","113","309020","0.0-88.0","CKN_138","138","","","","","","1038","","0","lightred","darkgreenblue","[""lightred"",""darkgreenblue"",""low nameability""]","left-right","[""lightred"",""darkgreenblue"",""low nameability""]","3","low nameability","22","left","trigger",""
"html-button-response","114","310455","0.0-89.0-0.0","CKN_138","138","","","","","","1428","<button class=""jspsych-btn""><img src=""stimuli/lightred.png"" style=""width: 200px;height: 200px;""></button>","0","lightred","darkgreenblue","[""lightred"",""darkgreenblue"",""low nameability""]","left-right","[""lightred"",""darkgreenblue"",""low nameability""]","3","low nameability","22","left","response","1"
"html-audio-button-response","115","310662","0.0-89.0-1.0","CKN_138","138","","","","","","null","stimuli/bleep.m4a","null","lightred","darkgreenblue","[""lightred"",""darkgreenblue"",""low nameability""]","left-right","[""lightred"",""darkgreenblue"",""low nameability""]","3","low nameability","22","left","audio_feedback","1"
"html-button-response","116","311188","0.0-90.0","CKN_138","138","","","","","","null","<button class=""jspsych-btn""><img src=""stimuli/white_square.png"" style=""width: 200px;height: 200px;""></button>","null","lightred","darkgreenblue","[""lightred"",""darkgreenblue"",""low nameability""]","left-right","[""lightred"",""darkgreenblue"",""low nameability""]","3","low nameability","22","left","iti",""
"html-button-response","117","313231","0.0-91.0","CKN_138","138","","","","","","2010","","0","purple","orange","[""purple"",""orange"",""high nameability""]","right-left","[""orange"",""purple""]","3","high nameability","23","right","trigger",""
"html-button-response","118","315314","0.0-92.0-0.0","CKN_138","138","","","","","","2058","<button class=""jspsych-btn""><img src=""stimuli/purple.png"" style=""width: 200px;height: 200px;""></button>","1","purple","orange","[""purple"",""orange"",""high nameability""]","right-left","[""orange"",""purple""]","3","high nameability","23","right","response","1"
"html-audio-button-response","119","315542","0.0-92.0-1.0","CKN_138","138","","","","","","null","stimuli/bleep.m4a","null","purple","orange","[""purple"",""orange"",""high nameability""]","right-left","[""orange"",""purple""]","3","high nameability","23","right","audio_feedback","1"
"html-button-response","120","316082","0.0-93.0","CKN_138","138","","","","","","null","<button class=""jspsych-btn""><img src=""stimuli/white_square.png"" style=""width: 200px;height: 200px;""></button>","null","purple","orange","[""purple"",""orange"",""high nameability""]","right-left","[""orange"",""purple""]","3","high nameability","23","right","iti",""
"html-button-response","121","317146","0.0-94.0","CKN_138","138","","","","","","1040","","0","pink","neonyellow","[""pink"",""neonyellow"",""low nameability""]","right-left","[""neonyellow"",""pink""]","3","low nameability","24","right","trigger",""
"html-button-response","122","318677","0.0-95.0-0.0","CKN_138","138","","","","","","1517","<button class=""jspsych-btn""><img src=""stimuli/pink.png"" style=""width: 200px;height: 200px;""></button>","1","pink","neonyellow","[""pink"",""neonyellow"",""low nameability""]","right-left","[""neonyellow"",""pink""]","3","low nameability","24","right","response","1"
"html-audio-button-response","123","318902","0.0-95.0-1.0","CKN_138","138","","","","","","null","stimuli/bleep.m4a","null","pink","neonyellow","[""pink"",""neonyellow"",""low nameability""]","right-left","[""neonyellow"",""pink""]","3","low nameability","24","right","audio_feedback","1"
"html-button-response","124","319421","0.0-96.0","CKN_138","138","","","","","","null","<button class=""jspsych-btn""><img src=""stimuli/white_square.png"" style=""width: 200px;height: 200px;""></button>","null","pink","neonyellow","[""pink"",""neonyellow"",""low nameability""]","right-left","[""neonyellow"",""pink""]","3","low nameability","24","right","iti",""
"html-button-response","125","321367","0.0-97.0","CKN_138","138","","","","","","1932","","0","mustard","darkgreenblue","[""mustard"",""darkgreenblue"",""low nameability""]","left-right","[""mustard"",""darkgreenblue"",""low nameability""]","3","low nameability","25","left","trigger",""
"html-button-response","126","323608","0.0-98.0-0.0","CKN_138","138","","","","","","2228","<button class=""jspsych-btn""><img src=""stimuli/mustard.png"" style=""width: 200px;height: 200px;""></button>","0","mustard","darkgreenblue","[""mustard"",""darkgreenblue"",""low nameability""]","left-right","[""mustard"",""darkgreenblue"",""low nameability""]","3","low nameability","25","left","response","1"
"html-audio-button-response","127","323814","0.0-98.0-1.0","CKN_138","138","","","","","","null","stimuli/bleep.m4a","null","mustard","darkgreenblue","[""mustard"",""darkgreenblue"",""low nameability""]","left-right","[""mustard"",""darkgreenblue"",""low nameability""]","3","low nameability","25","left","audio_feedback","1"
"html-button-response","128","324346","0.0-99.0","CKN_138","138","","","","","","null","<button class=""jspsych-btn""><img src=""stimuli/white_square.png"" style=""width: 200px;height: 200px;""></button>","null","mustard","darkgreenblue","[""mustard"",""darkgreenblue"",""low nameability""]","left-right","[""mustard"",""darkgreenblue"",""low nameability""]","3","low nameability","25","left","iti",""
"html-button-response","129","325396","0.0-100.0","CKN_138","138","","","","","","1024","","0","blue","orange","[""blue"",""orange"",""high nameability""]","right-left","[""orange"",""blue""]","3","high nameability","26","right","trigger",""
"html-button-response","130","326859","0.0-101.0-0.0","CKN_138","138","","","","","","1455","<button class=""jspsych-btn""><img src=""stimuli/blue.png"" style=""width: 200px;height: 200px;""></button>","1","blue","orange","[""blue"",""orange"",""high nameability""]","right-left","[""orange"",""blue""]","3","high nameability","26","right","response","1"
"html-audio-button-response","131","327070","0.0-101.0-1.0","CKN_138","138","","","","","","null","stimuli/bleep.m4a","null","blue","orange","[""blue"",""orange"",""high nameability""]","right-left","[""orange"",""blue""]","3","high nameability","26","right","audio_feedback","1"
"html-button-response","132","327587","0.0-102.0","CKN_138","138","","","","","","null","<button class=""jspsych-btn""><img src=""stimuli/white_square.png"" style=""width: 200px;height: 200px;""></button>","null","blue","orange","[""blue"",""orange"",""high nameability""]","right-left","[""orange"",""blue""]","3","high nameability","26","right","iti",""
"html-button-response","133","330085","0.0-103.0","CKN_138","138","","","","","","2479","","0","turquoise","mustard","[""turquoise"",""mustard"",""low nameability""]","left-right","[""turquoise"",""mustard"",""low nameability""]","3","low nameability","27","left","trigger",""
"html-button-response","134","332209","0.0-104.0-0.0","CKN_138","138","","","","","","2117","<button class=""jspsych-btn""><img src=""stimuli/turquoise.png"" style=""width: 200px;height: 200px;""></button>","0","turquoise","mustard","[""turquoise"",""mustard"",""low nameability""]","left-right","[""turquoise"",""mustard"",""low nameability""]","3","low nameability","27","left","response","1"
"html-audio-button-response","135","332415","0.0-104.0-1.0","CKN_138","138","","","","","","null","stimuli/bleep.m4a","null","turquoise","mustard","[""turquoise"",""mustard"",""low nameability""]","left-right","[""turquoise"",""mustard"",""low nameability""]","3","low nameability","27","left","audio_feedback","1"
"html-button-response","136","332939","0.0-105.0","CKN_138","138","","","","","","null","<button class=""jspsych-btn""><img src=""stimuli/white_square.png"" style=""width: 200px;height: 200px;""></button>","null","turquoise","mustard","[""turquoise"",""mustard"",""low nameability""]","left-right","[""turquoise"",""mustard"",""low nameability""]","3","low nameability","27","left","iti",""
"html-button-response","137","335046","0.0-106.0","CKN_138","138","","","","","","2095","","0","brown","blue","[""brown"",""blue"",""high nameability""]","right-left","[""blue"",""brown""]","3","high nameability","28","right","trigger",""
"html-button-response","138","338257","0.0-107.0-0.0","CKN_138","138","","","","","","3201","<button class=""jspsych-btn""><img src=""stimuli/brown.png"" style=""width: 200px;height: 200px;""></button>","1","brown","blue","[""brown"",""blue"",""high nameability""]","right-left","[""blue"",""brown""]","3","high nameability","28","right","response","1"
"html-audio-button-response","139","338461","0.0-107.0-1.0","CKN_138","138","","","","","","null","stimuli/bleep.m4a","null","brown","blue","[""brown"",""blue"",""high nameability""]","right-left","[""blue"",""brown""]","3","high nameability","28","right","audio_feedback","1"
"html-button-response","140","338975","0.0-108.0","CKN_138","138","","","","","","null","<button class=""jspsych-btn""><img src=""stimuli/white_square.png"" style=""width: 200px;height: 200px;""></button>","null","brown","blue","[""brown"",""blue"",""high nameability""]","right-left","[""blue"",""brown""]","3","high nameability","28","right","iti",""
"html-button-response","141","339916","0.0-109.0","CKN_138","138","","","","","","919","","0","orange","brown","[""orange"",""brown"",""high nameability""]","left-right","[""orange"",""brown"",""high nameability""]","3","high nameability","29","left","trigger",""
"html-button-response","142","341311","0.0-110.0-0.0","CKN_138","138","","","","","","1386","<button class=""jspsych-btn""><img src=""stimuli/orange.png"" style=""width: 200px;height: 200px;""></button>","0","orange","brown","[""orange"",""brown"",""high nameability""]","left-right","[""orange"",""brown"",""high nameability""]","3","high nameability","29","left","response","1"
"html-audio-button-response","143","341521","0.0-110.0-1.0","CKN_138","138","","","","","","null","stimuli/bleep.m4a","null","orange","brown","[""orange"",""brown"",""high nameability""]","left-right","[""orange"",""brown"",""high nameability""]","3","high nameability","29","left","audio_feedback","1"
"html-button-response","144","342044","0.0-111.0","CKN_138","138","","","","","","null","<button class=""jspsych-btn""><img src=""stimuli/white_square.png"" style=""width: 200px;height: 200px;""></button>","null","orange","brown","[""orange"",""brown"",""high nameability""]","left-right","[""orange"",""brown"",""high nameability""]","3","high nameability","29","left","iti",""
"html-button-response","145","342916","0.0-112.0","CKN_138","138","","","","","","862","","0","darkgreenblue","lightred","[""darkgreenblue"",""lightred"",""low nameability""]","right-left","[""lightred"",""darkgreenblue""]","3","low nameability","30","right","trigger",""
"html-button-response","146","344332","0.0-113.0-0.0","CKN_138","138","","","","","","1407","<button class=""jspsych-btn""><img src=""stimuli/darkgreenblue.png"" style=""width: 200px;height: 200px;""></button>","1","darkgreenblue","lightred","[""darkgreenblue"",""lightred"",""low nameability""]","right-left","[""lightred"",""darkgreenblue""]","3","low nameability","30","right","response","1"
"html-audio-button-response","147","344550","0.0-113.0-1.0","CKN_138","138","","","","","","null","stimuli/bleep.m4a","null","darkgreenblue","lightred","[""darkgreenblue"",""lightred"",""low nameability""]","right-left","[""lightred"",""darkgreenblue""]","3","low nameability","30","right","audio_feedback","1"
"html-button-response","148","345082","0.0-114.0","CKN_138","138","","","","","","null","<button class=""jspsych-btn""><img src=""stimuli/white_square.png"" style=""width: 200px;height: 200px;""></button>","null","darkgreenblue","lightred","[""darkgreenblue"",""lightred"",""low nameability""]","right-left","[""lightred"",""darkgreenblue""]","3","low nameability","30","right","iti",""
"pavlovia","149","345202","0.0-115.0","CKN_138","138","","","","","","","","","","","","","","","","","","",""
"pavlovia","150","345214","0.0-116.0","CKN_138","138","","","","","","","","","","","","","","","","","","",""
"html-audio-button-response","151","350058","0.0-117.0","CKN_138","138","","","","","","4976","stimuli/tada.m4a","0","","","","","","","","","","",""
"html-button-response","152","350695","0.0-118.0","CKN_138","138","","","","","","631","","0","","","","","","","","","","",""
"html-button-response","153","352819","0.0-119.0","CKN_138","138","","","","","","2116","","0","red","purple","[""red"",""purple"",""high nameability""]","left-right","[""red"",""purple"",""high nameability""]","4","high nameability","31","left","trigger",""
"html-button-response","154","353988","0.0-120.0-0.0","CKN_138","138","","","","","","1158","<button class=""jspsych-btn""><img src=""stimuli/red.png"" style=""width: 200px;height: 200px;""></button>","0","red","purple","[""red"",""purple"",""high nameability""]","left-right","[""red"",""purple"",""high nameability""]","4","high nameability","31","left","response","1"
"html-audio-button-response","155","354195","0.0-120.0-1.0","CKN_138","138","","","","","","null","stimuli/bleep.m4a","null","red","purple","[""red"",""purple"",""high nameability""]","left-right","[""red"",""purple"",""high nameability""]","4","high nameability","31","left","audio_feedback","1"
"html-button-response","156","354715","0.0-121.0","CKN_138","138","","","","","","null","<button class=""jspsych-btn""><img src=""stimuli/white_square.png"" style=""width: 200px;height: 200px;""></button>","null","red","purple","[""red"",""purple"",""high nameability""]","left-right","[""red"",""purple"",""high nameability""]","4","high nameability","31","left","iti",""
"html-button-response","157","357564","0.0-122.0","CKN_138","138","","","","","","2837","","0","neonyellow","turquoise","[""neonyellow"",""turquoise"",""low nameability""]","right-left","[""turquoise"",""neonyellow""]","4","low nameability","32","right","trigger",""
"html-button-response","158","361376","0.0-123.0-0.0","CKN_138","138","","","","","","3800","<button class=""jspsych-btn""><img src=""stimuli/neonyellow.png"" style=""width: 200px;height: 200px;""></button>","1","neonyellow","turquoise","[""neonyellow"",""turquoise"",""low nameability""]","right-left","[""turquoise"",""neonyellow""]","4","low nameability","32","right","response","1"
"html-audio-button-response","159","361584","0.0-123.0-1.0","CKN_138","138","","","","","","null","stimuli/bleep.m4a","null","neonyellow","turquoise","[""neonyellow"",""turquoise"",""low nameability""]","right-left","[""turquoise"",""neonyellow""]","4","low nameability","32","right","audio_feedback","1"
"html-button-response","160","362100","0.0-124.0","CKN_138","138","","","","","","null","<button class=""jspsych-btn""><img src=""stimuli/white_square.png"" style=""width: 200px;height: 200px;""></button>","null","neonyellow","turquoise","[""neonyellow"",""turquoise"",""low nameability""]","right-left","[""turquoise"",""neonyellow""]","4","low nameability","32","right","iti",""
"html-button-response","161","363001","0.0-125.0","CKN_138","138","","","","","","885","","0","neonyellow","darkgreenblue","[""neonyellow"",""darkgreenblue"",""low nameability""]","right-left","[""darkgreenblue"",""neonyellow""]","4","low nameability","33","right","trigger",""
"html-button-response","162","364608","0.0-126.0-0.0","CKN_138","138","","","","","","1600","<button class=""jspsych-btn""><img src=""stimuli/neonyellow.png"" style=""width: 200px;height: 200px;""></button>","1","neonyellow","darkgreenblue","[""neonyellow"",""darkgreenblue"",""low nameability""]","right-left","[""darkgreenblue"",""neonyellow""]","4","low nameability","33","right","response","1"
"html-audio-button-response","163","364823","0.0-126.0-1.0","CKN_138","138","","","","","","null","stimuli/bleep.m4a","null","neonyellow","darkgreenblue","[""neonyellow"",""darkgreenblue"",""low nameability""]","right-left","[""darkgreenblue"",""neonyellow""]","4","low nameability","33","right","audio_feedback","1"
"html-button-response","164","365340","0.0-127.0","CKN_138","138","","","","","","null","<button class=""jspsych-btn""><img src=""stimuli/white_square.png"" style=""width: 200px;height: 200px;""></button>","null","neonyellow","darkgreenblue","[""neonyellow"",""darkgreenblue"",""low nameability""]","right-left","[""darkgreenblue"",""neonyellow""]","4","low nameability","33","right","iti",""
"html-button-response","165","365693","0.0-128.0","CKN_138","138","","","","","","338","","0","red","yellow","[""red"",""yellow"",""high nameability""]","left-right","[""red"",""yellow"",""high nameability""]","4","high nameability","34","left","trigger",""
"html-button-response","166","367997","0.0-129.0-0.0","CKN_138","138","","","","","","2296","<button class=""jspsych-btn""><img src=""stimuli/red.png"" style=""width: 200px;height: 200px;""></button>","0","red","yellow","[""red"",""yellow"",""high nameability""]","left-right","[""red"",""yellow"",""high nameability""]","4","high nameability","34","left","response","1"
"html-audio-button-response","167","368206","0.0-129.0-1.0","CKN_138","138","","","","","","null","stimuli/bleep.m4a","null","red","yellow","[""red"",""yellow"",""high nameability""]","left-right","[""red"",""yellow"",""high nameability""]","4","high nameability","34","left","audio_feedback","1"
"html-button-response","168","368734","0.0-130.0","CKN_138","138","","","","","","null","<button class=""jspsych-btn""><img src=""stimuli/white_square.png"" style=""width: 200px;height: 200px;""></button>","null","red","yellow","[""red"",""yellow"",""high nameability""]","left-right","[""red"",""yellow"",""high nameability""]","4","high nameability","34","left","iti",""
"html-button-response","169","369773","0.0-131.0","CKN_138","138","","","","","","1024","","0","pink","mustard","[""pink"",""mustard"",""low nameability""]","left-right","[""pink"",""mustard"",""low nameability""]","4","low nameability","35","left","trigger",""
"html-button-response","170","373109","0.0-132.0-0.0","CKN_138","138","","","","","","3330","<button class=""jspsych-btn""><img src=""stimuli/pink.png"" style=""width: 200px;height: 200px;""></button>","0","pink","mustard","[""pink"",""mustard"",""low nameability""]","left-right","[""pink"",""mustard"",""low nameability""]","4","low nameability","35","left","response","1"
"html-audio-button-response","171","373317","0.0-132.0-1.0","CKN_138","138","","","","","","null","stimuli/bleep.m4a","null","pink","mustard","[""pink"",""mustard"",""low nameability""]","left-right","[""pink"",""mustard"",""low nameability""]","4","low nameability","35","left","audio_feedback","1"
"html-button-response","172","373839","0.0-133.0","CKN_138","138","","","","","","null","<button class=""jspsych-btn""><img src=""stimuli/white_square.png"" style=""width: 200px;height: 200px;""></button>","null","pink","mustard","[""pink"",""mustard"",""low nameability""]","left-right","[""pink"",""mustard"",""low nameability""]","4","low nameability","35","left","iti",""
"html-button-response","173","374930","0.0-134.0","CKN_138","138","","","","","","1076","","0","red","blue","[""red"",""blue"",""high nameability""]","right-left","[""blue"",""red""]","4","high nameability","36","right","trigger",""
"html-button-response","174","376203","0.0-135.0-0.0","CKN_138","138","","","","","","1260","<button class=""jspsych-btn""><img src=""stimuli/red.png"" style=""width: 200px;height: 200px;""></button>","1","red","blue","[""red"",""blue"",""high nameability""]","right-left","[""blue"",""red""]","4","high nameability","36","right","response","1"
"html-audio-button-response","175","376413","0.0-135.0-1.0","CKN_138","138","","","","","","null","stimuli/bleep.m4a","null","red","blue","[""red"",""blue"",""high nameability""]","right-left","[""blue"",""red""]","4","high nameability","36","right","audio_feedback","1"
"html-button-response","176","376932","0.0-136.0","CKN_138","138","","","","","","null","<button class=""jspsych-btn""><img src=""stimuli/white_square.png"" style=""width: 200px;height: 200px;""></button>","null","red","blue","[""red"",""blue"",""high nameability""]","right-left","[""blue"",""red""]","4","high nameability","36","right","iti",""
"html-button-response","177","377851","0.0-137.0","CKN_138","138","","","","","","892","","0","mustard","turquoise","[""mustard"",""turquoise"",""low nameability""]","right-left","[""turquoise"",""mustard""]","4","low nameability","37","right","trigger",""
"html-button-response","178","379015","0.0-138.0-0.0","CKN_138","138","","","","","","1143","<button class=""jspsych-btn""><img src=""stimuli/mustard.png"" style=""width: 200px;height: 200px;""></button>","1","mustard","turquoise","[""mustard"",""turquoise"",""low nameability""]","right-left","[""turquoise"",""mustard""]","4","low nameability","37","right","response","1"
"html-audio-button-response","179","379242","0.0-138.0-1.0","CKN_138","138","","","","","","null","stimuli/bleep.m4a","null","mustard","turquoise","[""mustard"",""turquoise"",""low nameability""]","right-left","[""turquoise"",""mustard""]","4","low nameability","37","right","audio_feedback","1"
"html-button-response","180","379784","0.0-139.0","CKN_138","138","","","","","","null","<button class=""jspsych-btn""><img src=""stimuli/white_square.png"" style=""width: 200px;height: 200px;""></button>","null","mustard","turquoise","[""mustard"",""turquoise"",""low nameability""]","right-left","[""turquoise"",""mustard""]","4","low nameability","37","right","iti",""
"html-button-response","181","380740","0.0-140.0","CKN_138","138","","","","","","931","","0","turquoise","neonyellow","[""turquoise"",""neonyellow"",""low nameability""]","left-right","[""turquoise"",""neonyellow"",""low nameability""]","4","low nameability","38","left","trigger",""
"html-button-response","182","381900","0.0-141.0-0.0","CKN_138","138","","","","","","1143","<button class=""jspsych-btn""><img src=""stimuli/turquoise.png"" style=""width: 200px;height: 200px;""></button>","1","turquoise","neonyellow","[""turquoise"",""neonyellow"",""low nameability""]","left-right","[""turquoise"",""neonyellow"",""low nameability""]","4","low nameability","38","left","response","0"
"html-audio-button-response","183","382550","0.0-141.0-1.0","CKN_138","138","","","","","","null","stimuli/boing.m4a","null","turquoise","neonyellow","[""turquoise"",""neonyellow"",""low nameability""]","left-right","[""turquoise"",""neonyellow"",""low nameability""]","4","low nameability","38","left","audio_feedback","0"
"html-button-response","184","384231","0.0-141.1-0.1","CKN_138","138","","","","","","1632","<button class=""jspsych-btn""><img src=""stimuli/turquoise.png"" style=""width: 200px;height: 200px;""></button>","0","turquoise","neonyellow","[""turquoise"",""neonyellow"",""low nameability""]","left-right","[""turquoise"",""neonyellow"",""low nameability""]","4","low nameability","38","left","response","1"
"html-audio-button-response","185","384452","0.0-141.1-1.1","CKN_138","138","","","","","","null","stimuli/bleep.m4a","null","turquoise","neonyellow","[""turquoise"",""neonyellow"",""low nameability""]","left-right","[""turquoise"",""neonyellow"",""low nameability""]","4","low nameability","38","left","audio_feedback","1"
"html-button-response","186","384988","0.0-142.0","CKN_138","138","","","","","","null","<button class=""jspsych-btn""><img src=""stimuli/white_square.png"" style=""width: 200px;height: 200px;""></button>","null","turquoise","neonyellow","[""turquoise"",""neonyellow"",""low nameability""]","left-right","[""turquoise"",""neonyellow"",""low nameability""]","4","low nameability","38","left","iti",""
"html-button-response","187","386529","0.0-143.0","CKN_138","138","","","","","","1524","","0","lightred","neonyellow","[""lightred"",""neonyellow"",""low nameability""]","left-right","[""lightred"",""neonyellow"",""low nameability""]","4","low nameability","39","left","trigger",""
"html-button-response","188","390611","0.0-144.0-0.0","CKN_138","138","","","","","","4075","<button class=""jspsych-btn""><img src=""stimuli/lightred.png"" style=""width: 200px;height: 200px;""></button>","0","lightred","neonyellow","[""lightred"",""neonyellow"",""low nameability""]","left-right","[""lightred"",""neonyellow"",""low nameability""]","4","low nameability","39","left","response","1"
"html-audio-button-response","189","390822","0.0-144.0-1.0","CKN_138","138","","","","","","null","stimuli/bleep.m4a","null","lightred","neonyellow","[""lightred"",""neonyellow"",""low nameability""]","left-right","[""lightred"",""neonyellow"",""low nameability""]","4","low nameability","39","left","audio_feedback","1"
"html-button-response","190","391368","0.0-145.0","CKN_138","138","","","","","","null","<button class=""jspsych-btn""><img src=""stimuli/white_square.png"" style=""width: 200px;height: 200px;""></button>","null","lightred","neonyellow","[""lightred"",""neonyellow"",""low nameability""]","left-right","[""lightred"",""neonyellow"",""low nameability""]","4","low nameability","39","left","iti",""
"html-button-response","191","393435","0.0-146.0","CKN_138","138","","","","","","2051","","0","neonyellow","lightred","[""neonyellow"",""lightred"",""low nameability""]","right-left","[""lightred"",""neonyellow""]","4","low nameability","40","right","trigger",""
"html-button-response","192","395439","0.0-147.0-0.0","CKN_138","138","","","","","","1995","<button class=""jspsych-btn""><img src=""stimuli/neonyellow.png"" style=""width: 200px;height: 200px;""></button>","1","neonyellow","lightred","[""neonyellow"",""lightred"",""low nameability""]","right-left","[""lightred"",""neonyellow""]","4","low nameability","40","right","response","1"
"html-audio-button-response","193","395645","0.0-147.0-1.0","CKN_138","138","","","","","","null","stimuli/bleep.m4a","null","neonyellow","lightred","[""neonyellow"",""lightred"",""low nameability""]","right-left","[""lightred"",""neonyellow""]","4","low nameability","40","right","audio_feedback","1"
"html-button-response","194","396177","0.0-148.0","CKN_138","138","","","","","","null","<button class=""jspsych-btn""><img src=""stimuli/white_square.png"" style=""width: 200px;height: 200px;""></button>","null","neonyellow","lightred","[""neonyellow"",""lightred"",""low nameability""]","right-left","[""lightred"",""neonyellow""]","4","low nameability","40","right","iti",""
"pavlovia","195","396293","0.0-149.0","CKN_138","138","","","","","","","","","","","","","","","","","","",""
"pavlovia","196","396306","0.0-150.0","CKN_138","138","","","","","","","","","","","","","","","","","","",""
"html-audio-button-response","197","400367","0.0-151.0","CKN_138","138","","","","","","4189","stimuli/tada.m4a","0","","","","","","","","","","",""
"html-button-response","198","400919","0.0-152.0","CKN_138","138","","","","","","547","","0","","","","","","","","","","",""
"html-button-response","199","402696","0.0-153.0","CKN_138","138","","","","","","1772","","0","darkgreenblue","mustard","[""darkgreenblue"",""mustard"",""low nameability""]","left-right","[""darkgreenblue"",""mustard"",""low nameability""]","5","low nameability","41","left","trigger",""
"html-button-response","200","403799","0.0-154.0-0.0","CKN_138","138","","","","","","1092","<button class=""jspsych-btn""><img src=""stimuli/darkgreenblue.png"" style=""width: 200px;height: 200px;""></button>","0","darkgreenblue","mustard","[""darkgreenblue"",""mustard"",""low nameability""]","left-right","[""darkgreenblue"",""mustard"",""low nameability""]","5","low nameability","41","left","response","1"
"html-audio-button-response","201","404013","0.0-154.0-1.0","CKN_138","138","","","","","","null","stimuli/bleep.m4a","null","darkgreenblue","mustard","[""darkgreenblue"",""mustard"",""low nameability""]","left-right","[""darkgreenblue"",""mustard"",""low nameability""]","5","low nameability","41","left","audio_feedback","1"
"html-button-response","202","404544","0.0-155.0","CKN_138","138","","","","","","null","<button class=""jspsych-btn""><img src=""stimuli/white_square.png"" style=""width: 200px;height: 200px;""></button>","null","darkgreenblue","mustard","[""darkgreenblue"",""mustard"",""low nameability""]","left-right","[""darkgreenblue"",""mustard"",""low nameability""]","5","low nameability","41","left","iti",""
"html-button-response","203","405512","0.0-156.0","CKN_138","138","","","","","","953","","0","mustard","pink","[""mustard"",""pink"",""low nameability""]","left-right","[""mustard"",""pink"",""low nameability""]","5","low nameability","42","left","trigger",""
"html-button-response","204","406772","0.0-157.0-0.0","CKN_138","138","","","","","","1250","<button class=""jspsych-btn""><img src=""stimuli/mustard.png"" style=""width: 200px;height: 200px;""></button>","0","mustard","pink","[""mustard"",""pink"",""low nameability""]","left-right","[""mustard"",""pink"",""low nameability""]","5","low nameability","42","left","response","1"
"html-audio-button-response","205","406981","0.0-157.0-1.0","CKN_138","138","","","","","","null","stimuli/bleep.m4a","null","mustard","pink","[""mustard"",""pink"",""low nameability""]","left-right","[""mustard"",""pink"",""low nameability""]","5","low nameability","42","left","audio_feedback","1"
"html-button-response","206","407498","0.0-158.0","CKN_138","138","","","","","","null","<button class=""jspsych-btn""><img src=""stimuli/white_square.png"" style=""width: 200px;height: 200px;""></button>","null","mustard","pink","[""mustard"",""pink"",""low nameability""]","left-right","[""mustard"",""pink"",""low nameability""]","5","low nameability","42","left","iti",""
"html-button-response","207","408717","0.0-159.0","CKN_138","138","","","","","","1205","","0","orange","yellow","[""orange"",""yellow"",""high nameability""]","left-right","[""orange"",""yellow"",""high nameability""]","5","high nameability","43","left","trigger",""
"html-button-response","208","409759","0.0-160.0-0.0","CKN_138","138","","","","","","1034","<button class=""jspsych-btn""><img src=""stimuli/orange.png"" style=""width: 200px;height: 200px;""></button>","0","orange","yellow","[""orange"",""yellow"",""high nameability""]","left-right","[""orange"",""yellow"",""high nameability""]","5","high nameability","43","left","response","1"
"html-audio-button-response","209","409974","0.0-160.0-1.0","CKN_138","138","","","","","","null","stimuli/bleep.m4a","null","orange","yellow","[""orange"",""yellow"",""high nameability""]","left-right","[""orange"",""yellow"",""high nameability""]","5","high nameability","43","left","audio_feedback","1"
"html-button-response","210","410495","0.0-161.0","CKN_138","138","","","","","","null","<button class=""jspsych-btn""><img src=""stimuli/white_square.png"" style=""width: 200px;height: 200px;""></button>","null","orange","yellow","[""orange"",""yellow"",""high nameability""]","left-right","[""orange"",""yellow"",""high nameability""]","5","high nameability","43","left","iti",""
"html-button-response","211","410924","0.0-162.0","CKN_138","138","","","","","","408","","0","pink","turquoise","[""pink"",""turquoise"",""low nameability""]","left-right","[""pink"",""turquoise"",""low nameability""]","5","low nameability","44","left","trigger",""
"html-button-response","212","413110","0.0-163.0-0.0","CKN_138","138","","","","","","2173","<button class=""jspsych-btn""><img src=""stimuli/pink.png"" style=""width: 200px;height: 200px;""></button>","0","pink","turquoise","[""pink"",""turquoise"",""low nameability""]","left-right","[""pink"",""turquoise"",""low nameability""]","5","low nameability","44","left","response","1"
"html-audio-button-response","213","413318","0.0-163.0-1.0","CKN_138","138","","","","","","null","stimuli/bleep.m4a","null","pink","turquoise","[""pink"",""turquoise"",""low nameability""]","left-right","[""pink"",""turquoise"",""low nameability""]","5","low nameability","44","left","audio_feedback","1"
"html-button-response","214","413837","0.0-164.0","CKN_138","138","","","","","","null","<button class=""jspsych-btn""><img src=""stimuli/white_square.png"" style=""width: 200px;height: 200px;""></button>","null","pink","turquoise","[""pink"",""turquoise"",""low nameability""]","left-right","[""pink"",""turquoise"",""low nameability""]","5","low nameability","44","left","iti",""
"html-button-response","215","414171","0.0-165.0","CKN_138","138","","","","","","320","","0","darkgreenblue","pink","[""darkgreenblue"",""pink"",""low nameability""]","left-right","[""darkgreenblue"",""pink"",""low nameability""]","5","low nameability","45","left","trigger",""
"html-button-response","216","417331","0.0-166.0-0.0","CKN_138","138","","","","","","3153","<button class=""jspsych-btn""><img src=""stimuli/darkgreenblue.png"" style=""width: 200px;height: 200px;""></button>","0","darkgreenblue","pink","[""darkgreenblue"",""pink"",""low nameability""]","left-right","[""darkgreenblue"",""pink"",""low nameability""]","5","low nameability","45","left","response","1"
"html-audio-button-response","217","417534","0.0-166.0-1.0","CKN_138","138","","","","","","null","stimuli/bleep.m4a","null","darkgreenblue","pink","[""darkgreenblue"",""pink"",""low nameability""]","left-right","[""darkgreenblue"",""pink"",""low nameability""]","5","low nameability","45","left","audio_feedback","1"
"html-button-response","218","418043","0.0-167.0","CKN_138","138","","","","","","null","<button class=""jspsych-btn""><img src=""stimuli/white_square.png"" style=""width: 200px;height: 200px;""></button>","null","darkgreenblue","pink","[""darkgreenblue"",""pink"",""low nameability""]","left-right","[""darkgreenblue"",""pink"",""low nameability""]","5","low nameability","45","left","iti",""
"html-button-response","219","421034","0.0-168.0","CKN_138","138","","","","","","2976","","0","blue","purple","[""blue"",""purple"",""high nameability""]","left-right","[""blue"",""purple"",""high nameability""]","5","high nameability","46","left","trigger",""
"html-button-response","220","422209","0.0-169.0-0.0","CKN_138","138","","","","","","1167","<button class=""jspsych-btn""><img src=""stimuli/blue.png"" style=""width: 200px;height: 200px;""></button>","0","blue","purple","[""blue"",""purple"",""high nameability""]","left-right","[""blue"",""purple"",""high nameability""]","5","high nameability","46","left","response","1"
"html-audio-button-response","221","422414","0.0-169.0-1.0","CKN_138","138","","","","","","null","stimuli/bleep.m4a","null","blue","purple","[""blue"",""purple"",""high nameability""]","left-right","[""blue"",""purple"",""high nameability""]","5","high nameability","46","left","audio_feedback","1"
"html-button-response","222","422930","0.0-170.0","CKN_138","138","","","","","","null","<button class=""jspsych-btn""><img src=""stimuli/white_square.png"" style=""width: 200px;height: 200px;""></button>","null","blue","purple","[""blue"",""purple"",""high nameability""]","left-right","[""blue"",""purple"",""high nameability""]","5","high nameability","46","left","iti",""
"html-button-response","223","423757","0.0-171.0","CKN_138","138","","","","","","815","","0","brown","red","[""brown"",""red"",""high nameability""]","right-left","[""red"",""brown""]","5","high nameability","47","right","trigger",""
"html-button-response","224","425474","0.0-172.0-0.0","CKN_138","138","","","","","","1705","<button class=""jspsych-btn""><img src=""stimuli/brown.png"" style=""width: 200px;height: 200px;""></button>","1","brown","red","[""brown"",""red"",""high nameability""]","right-left","[""red"",""brown""]","5","high nameability","47","right","response","1"
"html-audio-button-response","225","425683","0.0-172.0-1.0","CKN_138","138","","","","","","null","stimuli/bleep.m4a","null","brown","red","[""brown"",""red"",""high nameability""]","right-left","[""red"",""brown""]","5","high nameability","47","right","audio_feedback","1"
"html-button-response","226","426204","0.0-173.0","CKN_138","138","","","","","","null","<button class=""jspsych-btn""><img src=""stimuli/white_square.png"" style=""width: 200px;height: 200px;""></button>","null","brown","red","[""brown"",""red"",""high nameability""]","right-left","[""red"",""brown""]","5","high nameability","47","right","iti",""
"html-button-response","227","427023","0.0-174.0","CKN_138","138","","","","","","806","","0","orange","purple","[""orange"",""purple"",""high nameability""]","right-left","[""purple"",""orange""]","5","high nameability","48","right","trigger",""
"html-button-response","228","428305","0.0-175.0-0.0","CKN_138","138","","","","","","1274","<button class=""jspsych-btn""><img src=""stimuli/orange.png"" style=""width: 200px;height: 200px;""></button>","1","orange","purple","[""orange"",""purple"",""high nameability""]","right-left","[""purple"",""orange""]","5","high nameability","48","right","response","1"
"html-audio-button-response","229","428510","0.0-175.0-1.0","CKN_138","138","","","","","","null","stimuli/bleep.m4a","null","orange","purple","[""orange"",""purple"",""high nameability""]","right-left","[""purple"",""orange""]","5","high nameability","48","right","audio_feedback","1"
"html-button-response","230","429024","0.0-176.0","CKN_138","138","","","","","","null","<button class=""jspsych-btn""><img src=""stimuli/white_square.png"" style=""width: 200px;height: 200px;""></button>","null","orange","purple","[""orange"",""purple"",""high nameability""]","right-left","[""purple"",""orange""]","5","high nameability","48","right","iti",""
"html-button-response","231","429797","0.0-177.0","CKN_138","138","","","","","","758","","0","orange","red","[""orange"",""red"",""high nameability""]","left-right","[""orange"",""red"",""high nameability""]","5","high nameability","49","left","trigger",""
"html-button-response","232","431232","0.0-178.0-0.0","CKN_138","138","","","","","","1428","<button class=""jspsych-btn""><img src=""stimuli/orange.png"" style=""width: 200px;height: 200px;""></button>","0","orange","red","[""orange"",""red"",""high nameability""]","left-right","[""orange"",""red"",""high nameability""]","5","high nameability","49","left","response","1"
"html-audio-button-response","233","431438","0.0-178.0-1.0","CKN_138","138","","","","","","null","stimuli/bleep.m4a","null","orange","red","[""orange"",""red"",""high nameability""]","left-right","[""orange"",""red"",""high nameability""]","5","high nameability","49","left","audio_feedback","1"
"html-button-response","234","431957","0.0-179.0","CKN_138","138","","","","","","null","<button class=""jspsych-btn""><img src=""stimuli/white_square.png"" style=""width: 200px;height: 200px;""></button>","null","orange","red","[""orange"",""red"",""high nameability""]","left-right","[""orange"",""red"",""high nameability""]","5","high nameability","49","left","iti",""
"html-button-response","235","432871","0.0-180.0","CKN_138","138","","","","","","900","","0","neonyellow","mustard","[""neonyellow"",""mustard"",""low nameability""]","left-right","[""neonyellow"",""mustard"",""low nameability""]","5","low nameability","50","left","trigger",""
"html-button-response","236","434195","0.0-181.0-0.0","CKN_138","138","","","","","","1316","<button class=""jspsych-btn""><img src=""stimuli/neonyellow.png"" style=""width: 200px;height: 200px;""></button>","0","neonyellow","mustard","[""neonyellow"",""mustard"",""low nameability""]","left-right","[""neonyellow"",""mustard"",""low nameability""]","5","low nameability","50","left","response","1"
"html-audio-button-response","237","434405","0.0-181.0-1.0","CKN_138","138","","","","","","null","stimuli/bleep.m4a","null","neonyellow","mustard","[""neonyellow"",""mustard"",""low nameability""]","left-right","[""neonyellow"",""mustard"",""low nameability""]","5","low nameability","50","left","audio_feedback","1"
"html-button-response","238","434923","0.0-182.0","CKN_138","138","","","","","","null","<button class=""jspsych-btn""><img src=""stimuli/white_square.png"" style=""width: 200px;height: 200px;""></button>","null","neonyellow","mustard","[""neonyellow"",""mustard"",""low nameability""]","left-right","[""neonyellow"",""mustard"",""low nameability""]","5","low nameability","50","left","iti",""
"pavlovia","239","435027","0.0-183.0","CKN_138","138","","","","","","","","","","","","","","","","","","",""
"pavlovia","240","435037","0.0-184.0","CKN_138","138","","","","","","","","","","","","","","","","","","",""
"html-audio-button-response","241","439434","0.0-185.0","CKN_138","138","","","","","","4512","stimuli/tada.m4a","0","","","","","","","","","","",""
"html-button-response","242","439909","0.0-186.0","CKN_138","138","","","","","","466","","0","","","","","","","","","","",""
"html-button-response","243","442471","0.0-187.0","CKN_138","138","","","","","","2548","","0","mustard","lightred","[""mustard"",""lightred"",""low nameability""]","left-right","[""mustard"",""lightred"",""low nameability""]","6","low nameability","51","left","trigger",""
"html-button-response","244","444764","0.0-188.0-0.0","CKN_138","138","","","","","","2269","<button class=""jspsych-btn""><img src=""stimuli/mustard.png"" style=""width: 200px;height: 200px;""></button>","0","mustard","lightred","[""mustard"",""lightred"",""low nameability""]","left-right","[""mustard"",""lightred"",""low nameability""]","6","low nameability","51","left","response","1"
"html-audio-button-response","245","445002","0.0-188.0-1.0","CKN_138","138","","","","","","null","stimuli/bleep.m4a","null","mustard","lightred","[""mustard"",""lightred"",""low nameability""]","left-right","[""mustard"",""lightred"",""low nameability""]","6","low nameability","51","left","audio_feedback","1"
"html-button-response","246","445539","0.0-189.0","CKN_138","138","","","","","","null","<button class=""jspsych-btn""><img src=""stimuli/white_square.png"" style=""width: 200px;height: 200px;""></button>","null","mustard","lightred","[""mustard"",""lightred"",""low nameability""]","left-right","[""mustard"",""lightred"",""low nameability""]","6","low nameability","51","left","iti",""
"html-button-response","247","446429","0.0-190.0","CKN_138","138","","","","","","866","","0","yellow","purple","[""yellow"",""purple"",""high nameability""]","right-left","[""purple"",""yellow""]","6","high nameability","52","right","trigger",""
"html-button-response","248","448057","0.0-191.0-0.0","CKN_138","138","","","","","","1609","<button class=""jspsych-btn""><img src=""stimuli/yellow.png"" style=""width: 200px;height: 200px;""></button>","1","yellow","purple","[""yellow"",""purple"",""high nameability""]","right-left","[""purple"",""yellow""]","6","high nameability","52","right","response","1"
"html-audio-button-response","249","448272","0.0-191.0-1.0","CKN_138","138","","","","","","null","stimuli/bleep.m4a","null","yellow","purple","[""yellow"",""purple"",""high nameability""]","right-left","[""purple"",""yellow""]","6","high nameability","52","right","audio_feedback","1"
"html-button-response","250","448788","0.0-192.0","CKN_138","138","","","","","","null","<button class=""jspsych-btn""><img src=""stimuli/white_square.png"" style=""width: 200px;height: 200px;""></button>","null","yellow","purple","[""yellow"",""purple"",""high nameability""]","right-left","[""purple"",""yellow""]","6","high nameability","52","right","iti",""
"html-button-response","251","453141","0.0-193.0","CKN_138","138","","","","","","4336","","0","orange","blue","[""orange"",""blue"",""high nameability""]","left-right","[""orange"",""blue"",""high nameability""]","6","high nameability","53","left","trigger",""
"html-button-response","252","454479","0.0-194.0-0.0","CKN_138","138","","","","","","1331","<button class=""jspsych-btn""><img src=""stimuli/orange.png"" style=""width: 200px;height: 200px;""></button>","0","orange","blue","[""orange"",""blue"",""high nameability""]","left-right","[""orange"",""blue"",""high nameability""]","6","high nameability","53","left","response","1"
"html-audio-button-response","253","454685","0.0-194.0-1.0","CKN_138","138","","","","","","null","stimuli/bleep.m4a","null","orange","blue","[""orange"",""blue"",""high nameability""]","left-right","[""orange"",""blue"",""high nameability""]","6","high nameability","53","left","audio_feedback","1"
"html-button-response","254","455208","0.0-195.0","CKN_138","138","","","","","","null","<button class=""jspsych-btn""><img src=""stimuli/white_square.png"" style=""width: 200px;height: 200px;""></button>","null","orange","blue","[""orange"",""blue"",""high nameability""]","left-right","[""orange"",""blue"",""high nameability""]","6","high nameability","53","left","iti",""
"html-button-response","255","457306","0.0-196.0","CKN_138","138","","","","","","2079","","0","turquoise","darkgreenblue","[""turquoise"",""darkgreenblue"",""low nameability""]","right-left","[""darkgreenblue"",""turquoise""]","6","low nameability","54","right","trigger",""
"html-button-response","256","458843","0.0-197.0-0.0","CKN_138","138","","","","","","1528","<button class=""jspsych-btn""><img src=""stimuli/turquoise.png"" style=""width: 200px;height: 200px;""></button>","1","turquoise","darkgreenblue","[""turquoise"",""darkgreenblue"",""low nameability""]","right-left","[""darkgreenblue"",""turquoise""]","6","low nameability","54","right","response","1"
"html-audio-button-response","257","459054","0.0-197.0-1.0","CKN_138","138","","","","","","null","stimuli/bleep.m4a","null","turquoise","darkgreenblue","[""turquoise"",""darkgreenblue"",""low nameability""]","right-left","[""darkgreenblue"",""turquoise""]","6","low nameability","54","right","audio_feedback","1"
"html-button-response","258","459578","0.0-198.0","CKN_138","138","","","","","","null","<button class=""jspsych-btn""><img src=""stimuli/white_square.png"" style=""width: 200px;height: 200px;""></button>","null","turquoise","darkgreenblue","[""turquoise"",""darkgreenblue"",""low nameability""]","right-left","[""darkgreenblue"",""turquoise""]","6","low nameability","54","right","iti",""
"html-button-response","259","460474","0.0-199.0","CKN_138","138","","","","","","882","","0","pink","darkgreenblue","[""pink"",""darkgreenblue"",""low nameability""]","left-right","[""pink"",""darkgreenblue"",""low nameability""]","6","low nameability","55","left","trigger",""
"html-button-response","260","462602","0.0-200.0-0.0","CKN_138","138","","","","","","2120","<button class=""jspsych-btn""><img src=""stimuli/pink.png"" style=""width: 200px;height: 200px;""></button>","0","pink","darkgreenblue","[""pink"",""darkgreenblue"",""low nameability""]","left-right","[""pink"",""darkgreenblue"",""low nameability""]","6","low nameability","55","left","response","1"
"html-audio-button-response","261","462811","0.0-200.0-1.0","CKN_138","138","","","","","","null","stimuli/bleep.m4a","null","pink","darkgreenblue","[""pink"",""darkgreenblue"",""low nameability""]","left-right","[""pink"",""darkgreenblue"",""low nameability""]","6","low nameability","55","left","audio_feedback","1"
"html-button-response","262","463332","0.0-201.0","CKN_138","138","","","","","","null","<button class=""jspsych-btn""><img src=""stimuli/white_square.png"" style=""width: 200px;height: 200px;""></button>","null","pink","darkgreenblue","[""pink"",""darkgreenblue"",""low nameability""]","left-right","[""pink"",""darkgreenblue"",""low nameability""]","6","low nameability","55","left","iti",""
"html-button-response","263","464242","0.0-202.0","CKN_138","138","","","","","","897","","0","blue","yellow","[""blue"",""yellow"",""high nameability""]","right-left","[""yellow"",""blue""]","6","high nameability","56","right","trigger",""
"html-button-response","264","465743","0.0-203.0-0.0","CKN_138","138","","","","","","1493","<button class=""jspsych-btn""><img src=""stimuli/blue.png"" style=""width: 200px;height: 200px;""></button>","1","blue","yellow","[""blue"",""yellow"",""high nameability""]","right-left","[""yellow"",""blue""]","6","high nameability","56","right","response","1"
"html-audio-button-response","265","465950","0.0-203.0-1.0","CKN_138","138","","","","","","null","stimuli/bleep.m4a","null","blue","yellow","[""blue"",""yellow"",""high nameability""]","right-left","[""yellow"",""blue""]","6","high nameability","56","right","audio_feedback","1"
"html-button-response","266","466468","0.0-204.0","CKN_138","138","","","","","","null","<button class=""jspsych-btn""><img src=""stimuli/white_square.png"" style=""width: 200px;height: 200px;""></button>","null","blue","yellow","[""blue"",""yellow"",""high nameability""]","right-left","[""yellow"",""blue""]","6","high nameability","56","right","iti",""
"html-button-response","267","467268","0.0-205.0","CKN_138","138","","","","","","782","","0","yellow","orange","[""yellow"",""orange"",""high nameability""]","right-left","[""orange"",""yellow""]","6","high nameability","57","right","trigger",""
"html-button-response","268","469489","0.0-206.0-0.0","CKN_138","138","","","","","","2213","<button class=""jspsych-btn""><img src=""stimuli/yellow.png"" style=""width: 200px;height: 200px;""></button>","1","yellow","orange","[""yellow"",""orange"",""high nameability""]","right-left","[""orange"",""yellow""]","6","high nameability","57","right","response","1"
"html-audio-button-response","269","469694","0.0-206.0-1.0","CKN_138","138","","","","","","null","stimuli/bleep.m4a","null","yellow","orange","[""yellow"",""orange"",""high nameability""]","right-left","[""orange"",""yellow""]","6","high nameability","57","right","audio_feedback","1"
"html-button-response","270","470209","0.0-207.0","CKN_138","138","","","","","","null","<button class=""jspsych-btn""><img src=""stimuli/white_square.png"" style=""width: 200px;height: 200px;""></button>","null","yellow","orange","[""yellow"",""orange"",""high nameability""]","right-left","[""orange"",""yellow""]","6","high nameability","57","right","iti",""
"html-button-response","271","471179","0.0-208.0","CKN_138","138","","","","","","964","","0","blue","red","[""blue"",""red"",""high nameability""]","left-right","[""blue"",""red"",""high nameability""]","6","high nameability","58","left","trigger",""
"html-button-response","272","473585","0.0-209.0-0.0","CKN_138","138","","","","","","2384","<button class=""jspsych-btn""><img src=""stimuli/blue.png"" style=""width: 200px;height: 200px;""></button>","0","blue","red","[""blue"",""red"",""high nameability""]","left-right","[""blue"",""red"",""high nameability""]","6","high nameability","58","left","response","1"
"html-audio-button-response","273","473803","0.0-209.0-1.0","CKN_138","138","","","","","","null","stimuli/bleep.m4a","null","blue","red","[""blue"",""red"",""high nameability""]","left-right","[""blue"",""red"",""high nameability""]","6","high nameability","58","left","audio_feedback","1"
"html-button-response","274","474330","0.0-210.0","CKN_138","138","","","","","","null","<button class=""jspsych-btn""><img src=""stimuli/white_square.png"" style=""width: 200px;height: 200px;""></button>","null","blue","red","[""blue"",""red"",""high nameability""]","left-right","[""blue"",""red"",""high nameability""]","6","high nameability","58","left","iti",""
"html-button-response","275","475438","0.0-211.0","CKN_138","138","","","","","","1093","","0","pink","lightred","[""pink"",""lightred"",""low nameability""]","right-left","[""lightred"",""pink""]","6","low nameability","59","right","trigger",""
"html-button-response","276","476859","0.0-212.0-0.0","CKN_138","138","","","","","","1413","<button class=""jspsych-btn""><img src=""stimuli/pink.png"" style=""width: 200px;height: 200px;""></button>","1","pink","lightred","[""pink"",""lightred"",""low nameability""]","right-left","[""lightred"",""pink""]","6","low nameability","59","right","response","1"
"html-audio-button-response","277","477083","0.0-212.0-1.0","CKN_138","138","","","","","","null","stimuli/bleep.m4a","null","pink","lightred","[""pink"",""lightred"",""low nameability""]","right-left","[""lightred"",""pink""]","6","low nameability","59","right","audio_feedback","1"
"html-button-response","278","477599","0.0-213.0","CKN_138","138","","","","","","null","<button class=""jspsych-btn""><img src=""stimuli/white_square.png"" style=""width: 200px;height: 200px;""></button>","null","pink","lightred","[""pink"",""lightred"",""low nameability""]","right-left","[""lightred"",""pink""]","6","low nameability","59","right","iti",""
"html-button-response","279","479713","0.0-214.0","CKN_138","138","","","","","","2098","","0","mustard","neonyellow","[""mustard"",""neonyellow"",""low nameability""]","left-right","[""mustard"",""neonyellow"",""low nameability""]","6","low nameability","60","left","trigger",""
"html-button-response","280","480825","0.0-215.0-0.0","CKN_138","138","","","","","","1104","<button class=""jspsych-btn""><img src=""stimuli/mustard.png"" style=""width: 200px;height: 200px;""></button>","0","mustard","neonyellow","[""mustard"",""neonyellow"",""low nameability""]","left-right","[""mustard"",""neonyellow"",""low nameability""]","6","low nameability","60","left","response","1"
"html-audio-button-response","281","481029","0.0-215.0-1.0","CKN_138","138","","","","","","null","stimuli/bleep.m4a","null","mustard","neonyellow","[""mustard"",""neonyellow"",""low nameability""]","left-right","[""mustard"",""neonyellow"",""low nameability""]","6","low nameability","60","left","audio_feedback","1"
"html-button-response","282","481552","0.0-216.0","CKN_138","138","","","","","","null","<button class=""jspsych-btn""><img src=""stimuli/white_square.png"" style=""width: 200px;height: 200px;""></button>","null","mustard","neonyellow","[""mustard"",""neonyellow"",""low nameability""]","left-right","[""mustard"",""neonyellow"",""low nameability""]","6","low nameability","60","left","iti",""
