"trial_type","trial_index","time_elapsed","internal_node_id","subject_id","seed","success","timeout","failed_images","failed_audio","failed_video","rt","stimulus","response","target","foil","choices","combination_order","choices_in_order","round","condition","trial_counter","target_location","trial_kind","correct"
"pavlovia","0","22","0.0-0.0","CAN_146","146","","","","","","","","","","","","","","","","","","",""
"preload","1","697","0.0-1.0","CAN_146","146","true","false","[]","[]","[]","","","","","","","","","","","","","",""
"fullscreen","2","594672","0.0-2.0","CAN_146","146","true","","","","","","","","","","","","","","","","","",""
"html-button-response","3","627710","0.0-3.0","CAN_146","146","","","","","","33006","","0","","","","","","","","","","",""
"html-button-response","4","631856","0.0-4.0","CAN_146","146","","","","","","4126","","0","star","square","[""square"",""star""]","left-right","[""square"",""star""]","1","practice","1","right","trigger",""
"html-button-response","5","636043","0.0-5.0-0.0","CAN_146","146","","","","","","4170","<button class=""jspsych-btn""><img src=""stimuli/star.png"" style=""width: 200px;height: 200px;""></button>","1","star","square","[""square"",""star""]","left-right","[""square"",""star""]","1","practice","1","right","response","1"
"html-audio-button-response","6","636258","0.0-5.0-1.0","CAN_146","146","","","","","","null","stimuli/bleep.m4a","null","star","square","[""square"",""star""]","left-right","[""square"",""star""]","1","practice","1","right","audio_feedback","1"
"html-button-response","7","636787","0.0-6.0","CAN_146","146","","","","","","null","<button class=""jspsych-btn""><img src=""stimuli/white_square.png"" style=""width: 200px;height: 200px;""></button>","null","star","square","[""square"",""star""]","left-right","[""square"",""star""]","1","practice","1","right","iti",""
"html-button-response","8","639091","0.0-7.0","CAN_146","146","","","","","","2284","","0","triangle","pentagram","[""triangle"",""pentagram""]","left-right","[""triangle"",""pentagram""]","1","practice","1","left","trigger",""
"html-button-response","9","641083","0.0-8.0-0.0","CAN_146","146","","","","","","1981","<button class=""jspsych-btn""><img src=""stimuli/triangle.png"" style=""width: 200px;height: 200px;""></button>","0","triangle","pentagram","[""triangle"",""pentagram""]","left-right","[""triangle"",""pentagram""]","1","practice","1","left","response","1"
"html-audio-button-response","10","641293","0.0-8.0-1.0","CAN_146","146","","","","","","null","stimuli/bleep.m4a","null","triangle","pentagram","[""triangle"",""pentagram""]","left-right","[""triangle"",""pentagram""]","1","practice","1","left","audio_feedback","1"
"html-button-response","11","641813","0.0-9.0","CAN_146","146","","","","","","null","<button class=""jspsych-btn""><img src=""stimuli/white_square.png"" style=""width: 200px;height: 200px;""></button>","null","triangle","pentagram","[""triangle"",""pentagram""]","left-right","[""triangle"",""pentagram""]","1","practice","1","left","iti",""
"html-button-response","12","642776","0.0-10.0","CAN_146","146","","","","","","938","","0","diamond","rectangle","[""rectangle"",""diamond""]","left-right","[""rectangle"",""diamond""]","1","practice","1","right","trigger",""
"html-button-response","13","644076","0.0-11.0-0.0","CAN_146","146","","","","","","1289","<button class=""jspsych-btn""><img src=""stimuli/diamond.png"" style=""width: 200px;height: 200px;""></button>","1","diamond","rectangle","[""rectangle"",""diamond""]","left-right","[""rectangle"",""diamond""]","1","practice","1","right","response","1"
"html-audio-button-response","14","644281","0.0-11.0-1.0","CAN_146","146","","","","","","null","stimuli/bleep.m4a","null","diamond","rectangle","[""rectangle"",""diamond""]","left-right","[""rectangle"",""diamond""]","1","practice","1","right","audio_feedback","1"
"html-button-response","15","644807","0.0-12.0","CAN_146","146","","","","","","null","<button class=""jspsych-btn""><img src=""stimuli/white_square.png"" style=""width: 200px;height: 200px;""></button>","null","diamond","rectangle","[""rectangle"",""diamond""]","left-right","[""rectangle"",""diamond""]","1","practice","1","right","iti",""
"html-button-response","16","645595","0.0-13.0","CAN_146","146","","","","","","768","","0","pentagram","star","[""pentagram"",""star""]","left-right","[""pentagram"",""star""]","1","practice","1","left","trigger",""
"html-button-response","17","646823","0.0-14.0-0.0","CAN_146","146","","","","","","1219","<button class=""jspsych-btn""><img src=""stimuli/pentagram.png"" style=""width: 200px;height: 200px;""></button>","0","pentagram","star","[""pentagram"",""star""]","left-right","[""pentagram"",""star""]","1","practice","1","left","response","1"
"html-audio-button-response","18","647032","0.0-14.0-1.0","CAN_146","146","","","","","","null","stimuli/bleep.m4a","null","pentagram","star","[""pentagram"",""star""]","left-right","[""pentagram"",""star""]","1","practice","1","left","audio_feedback","1"
"html-button-response","19","647553","0.0-15.0","CAN_146","146","","","","","","null","<button class=""jspsych-btn""><img src=""stimuli/white_square.png"" style=""width: 200px;height: 200px;""></button>","null","pentagram","star","[""pentagram"",""star""]","left-right","[""pentagram"",""star""]","1","practice","1","left","iti",""
"html-button-response","20","658632","0.0-16.0","CAN_146","146","","","","","","11062","","0","","","","","","","","","","",""
"html-button-response","21","660106","0.0-17.0","CAN_146","146","","","","","","1464","","0","yellow","blue","[""yellow"",""blue"",""high nameability""]","right-left","[""blue"",""yellow""]","1","high nameability","1","right","trigger",""
"html-button-response","22","661415","0.0-18.0-0.0","CAN_146","146","","","","","","1297","<button class=""jspsych-btn""><img src=""stimuli/yellow.png"" style=""width: 200px;height: 200px;""></button>","1","yellow","blue","[""yellow"",""blue"",""high nameability""]","right-left","[""blue"",""yellow""]","1","high nameability","1","right","response","1"
"html-audio-button-response","23","661616","0.0-18.0-1.0","CAN_146","146","","","","","","null","stimuli/bleep.m4a","null","yellow","blue","[""yellow"",""blue"",""high nameability""]","right-left","[""blue"",""yellow""]","1","high nameability","1","right","audio_feedback","1"
"html-button-response","24","662127","0.0-19.0","CAN_146","146","","","","","","null","<button class=""jspsych-btn""><img src=""stimuli/white_square.png"" style=""width: 200px;height: 200px;""></button>","null","yellow","blue","[""yellow"",""blue"",""high nameability""]","right-left","[""blue"",""yellow""]","1","high nameability","1","right","iti",""
"html-button-response","25","663049","0.0-20.0","CAN_146","146","","","","","","901","","0","blue","orange","[""blue"",""orange"",""high nameability""]","left-right","[""blue"",""orange"",""high nameability""]","1","high nameability","2","left","trigger",""
"html-button-response","26","664123","0.0-21.0-0.0","CAN_146","146","","","","","","1066","<button class=""jspsych-btn""><img src=""stimuli/blue.png"" style=""width: 200px;height: 200px;""></button>","0","blue","orange","[""blue"",""orange"",""high nameability""]","left-right","[""blue"",""orange"",""high nameability""]","1","high nameability","2","left","response","1"
"html-audio-button-response","27","664327","0.0-21.0-1.0","CAN_146","146","","","","","","null","stimuli/bleep.m4a","null","blue","orange","[""blue"",""orange"",""high nameability""]","left-right","[""blue"",""orange"",""high nameability""]","1","high nameability","2","left","audio_feedback","1"
"html-button-response","28","664851","0.0-22.0","CAN_146","146","","","","","","null","<button class=""jspsych-btn""><img src=""stimuli/white_square.png"" style=""width: 200px;height: 200px;""></button>","null","blue","orange","[""blue"",""orange"",""high nameability""]","left-right","[""blue"",""orange"",""high nameability""]","1","high nameability","2","left","iti",""
"html-button-response","29","665879","0.0-23.0","CAN_146","146","","","","","","1007","","0","pink","lightred","[""pink"",""lightred"",""low nameability""]","left-right","[""pink"",""lightred"",""low nameability""]","1","low nameability","3","left","trigger",""
"html-button-response","30","666962","0.0-24.0-0.0","CAN_146","146","","","","","","1074","<button class=""jspsych-btn""><img src=""stimuli/pink.png"" style=""width: 200px;height: 200px;""></button>","0","pink","lightred","[""pink"",""lightred"",""low nameability""]","left-right","[""pink"",""lightred"",""low nameability""]","1","low nameability","3","left","response","1"
"html-audio-button-response","31","667169","0.0-24.0-1.0","CAN_146","146","","","","","","null","stimuli/bleep.m4a","null","pink","lightred","[""pink"",""lightred"",""low nameability""]","left-right","[""pink"",""lightred"",""low nameability""]","1","low nameability","3","left","audio_feedback","1"
"html-button-response","32","667691","0.0-25.0","CAN_146","146","","","","","","null","<button class=""jspsych-btn""><img src=""stimuli/white_square.png"" style=""width: 200px;height: 200px;""></button>","null","pink","lightred","[""pink"",""lightred"",""low nameability""]","left-right","[""pink"",""lightred"",""low nameability""]","1","low nameability","3","left","iti",""
"html-button-response","33","668538","0.0-26.0","CAN_146","146","","","","","","823","","0","turquoise","lightred","[""turquoise"",""lightred"",""low nameability""]","left-right","[""turquoise"",""lightred"",""low nameability""]","1","low nameability","4","left","trigger",""
"html-button-response","34","669657","0.0-27.0-0.0","CAN_146","146","","","","","","1108","<button class=""jspsych-btn""><img src=""stimuli/turquoise.png"" style=""width: 200px;height: 200px;""></button>","0","turquoise","lightred","[""turquoise"",""lightred"",""low nameability""]","left-right","[""turquoise"",""lightred"",""low nameability""]","1","low nameability","4","left","response","1"
"html-audio-button-response","35","669862","0.0-27.0-1.0","CAN_146","146","","","","","","null","stimuli/bleep.m4a","null","turquoise","lightred","[""turquoise"",""lightred"",""low nameability""]","left-right","[""turquoise"",""lightred"",""low nameability""]","1","low nameability","4","left","audio_feedback","1"
"html-button-response","36","670380","0.0-28.0","CAN_146","146","","","","","","null","<button class=""jspsych-btn""><img src=""stimuli/white_square.png"" style=""width: 200px;height: 200px;""></button>","null","turquoise","lightred","[""turquoise"",""lightred"",""low nameability""]","left-right","[""turquoise"",""lightred"",""low nameability""]","1","low nameability","4","left","iti",""
"html-button-response","37","671321","0.0-29.0","CAN_146","146","","","","","","912","","0","red","orange","[""red"",""orange"",""high nameability""]","left-right","[""red"",""orange"",""high nameability""]","1","high nameability","5","left","trigger",""
"html-button-response","38","672416","0.0-30.0-0.0","CAN_146","146","","","","","","1084","<button class=""jspsych-btn""><img src=""stimuli/red.png"" style=""width: 200px;height: 200px;""></button>","0","red","orange","[""red"",""orange"",""high nameability""]","left-right","[""red"",""orange"",""high nameability""]","1","high nameability","5","left","response","1"
"html-audio-button-response","39","672621","0.0-30.0-1.0","CAN_146","146","","","","","","null","stimuli/bleep.m4a","null","red","orange","[""red"",""orange"",""high nameability""]","left-right","[""red"",""orange"",""high nameability""]","1","high nameability","5","left","audio_feedback","1"
"html-button-response","40","673144","0.0-31.0","CAN_146","146","","","","","","null","<button class=""jspsych-btn""><img src=""stimuli/white_square.png"" style=""width: 200px;height: 200px;""></button>","null","red","orange","[""red"",""orange"",""high nameability""]","left-right","[""red"",""orange"",""high nameability""]","1","high nameability","5","left","iti",""
"html-button-response","41","673954","0.0-32.0","CAN_146","146","","","","","","796","","0","turquoise","mustard","[""turquoise"",""mustard"",""low nameability""]","right-left","[""mustard"",""turquoise""]","1","low nameability","6","right","trigger",""
"html-button-response","42","675049","0.0-33.0-0.0","CAN_146","146","","","","","","1085","<button class=""jspsych-btn""><img src=""stimuli/turquoise.png"" style=""width: 200px;height: 200px;""></button>","1","turquoise","mustard","[""turquoise"",""mustard"",""low nameability""]","right-left","[""mustard"",""turquoise""]","1","low nameability","6","right","response","1"
"html-audio-button-response","43","675254","0.0-33.0-1.0","CAN_146","146","","","","","","null","stimuli/bleep.m4a","null","turquoise","mustard","[""turquoise"",""mustard"",""low nameability""]","right-left","[""mustard"",""turquoise""]","1","low nameability","6","right","audio_feedback","1"
"html-button-response","44","675774","0.0-34.0","CAN_146","146","","","","","","null","<button class=""jspsych-btn""><img src=""stimuli/white_square.png"" style=""width: 200px;height: 200px;""></button>","null","turquoise","mustard","[""turquoise"",""mustard"",""low nameability""]","right-left","[""mustard"",""turquoise""]","1","low nameability","6","right","iti",""
"html-button-response","45","676716","0.0-35.0","CAN_146","146","","","","","","923","","0","darkgreenblue","lightred","[""darkgreenblue"",""lightred"",""low nameability""]","left-right","[""darkgreenblue"",""lightred"",""low nameability""]","1","low nameability","7","left","trigger",""
"html-button-response","46","677802","0.0-36.0-0.0","CAN_146","146","","","","","","1076","<button class=""jspsych-btn""><img src=""stimuli/darkgreenblue.png"" style=""width: 200px;height: 200px;""></button>","0","darkgreenblue","lightred","[""darkgreenblue"",""lightred"",""low nameability""]","left-right","[""darkgreenblue"",""lightred"",""low nameability""]","1","low nameability","7","left","response","1"
"html-audio-button-response","47","678011","0.0-36.0-1.0","CAN_146","146","","","","","","null","stimuli/bleep.m4a","null","darkgreenblue","lightred","[""darkgreenblue"",""lightred"",""low nameability""]","left-right","[""darkgreenblue"",""lightred"",""low nameability""]","1","low nameability","7","left","audio_feedback","1"
"html-button-response","48","678531","0.0-37.0","CAN_146","146","","","","","","null","<button class=""jspsych-btn""><img src=""stimuli/white_square.png"" style=""width: 200px;height: 200px;""></button>","null","darkgreenblue","lightred","[""darkgreenblue"",""lightred"",""low nameability""]","left-right","[""darkgreenblue"",""lightred"",""low nameability""]","1","low nameability","7","left","iti",""
"html-button-response","49","679409","0.0-38.0","CAN_146","146","","","","","","849","","0","blue","brown","[""blue"",""brown"",""high nameability""]","left-right","[""blue"",""brown"",""high nameability""]","1","high nameability","8","left","trigger",""
"html-button-response","50","680445","0.0-39.0-0.0","CAN_146","146","","","","","","1028","<button class=""jspsych-btn""><img src=""stimuli/blue.png"" style=""width: 200px;height: 200px;""></button>","0","blue","brown","[""blue"",""brown"",""high nameability""]","left-right","[""blue"",""brown"",""high nameability""]","1","high nameability","8","left","response","1"
"html-audio-button-response","51","680651","0.0-39.0-1.0","CAN_146","146","","","","","","null","stimuli/bleep.m4a","null","blue","brown","[""blue"",""brown"",""high nameability""]","left-right","[""blue"",""brown"",""high nameability""]","1","high nameability","8","left","audio_feedback","1"
"html-button-response","52","681172","0.0-40.0","CAN_146","146","","","","","","null","<button class=""jspsych-btn""><img src=""stimuli/white_square.png"" style=""width: 200px;height: 200px;""></button>","null","blue","brown","[""blue"",""brown"",""high nameability""]","left-right","[""blue"",""brown"",""high nameability""]","1","high nameability","8","left","iti",""
"html-button-response","53","682058","0.0-41.0","CAN_146","146","","","","","","862","","0","purple","blue","[""purple"",""blue"",""high nameability""]","right-left","[""blue"",""purple""]","1","high nameability","9","right","trigger",""
"html-button-response","54","683021","0.0-42.0-0.0","CAN_146","146","","","","","","953","<button class=""jspsych-btn""><img src=""stimuli/purple.png"" style=""width: 200px;height: 200px;""></button>","1","purple","blue","[""purple"",""blue"",""high nameability""]","right-left","[""blue"",""purple""]","1","high nameability","9","right","response","1"
"html-audio-button-response","55","683231","0.0-42.0-1.0","CAN_146","146","","","","","","null","stimuli/bleep.m4a","null","purple","blue","[""purple"",""blue"",""high nameability""]","right-left","[""blue"",""purple""]","1","high nameability","9","right","audio_feedback","1"
"html-button-response","56","683746","0.0-43.0","CAN_146","146","","","","","","null","<button class=""jspsych-btn""><img src=""stimuli/white_square.png"" style=""width: 200px;height: 200px;""></button>","null","purple","blue","[""purple"",""blue"",""high nameability""]","right-left","[""blue"",""purple""]","1","high nameability","9","right","iti",""
"html-button-response","57","684593","0.0-44.0","CAN_146","146","","","","","","834","","0","lightred","mustard","[""lightred"",""mustard"",""low nameability""]","right-left","[""mustard"",""lightred""]","1","low nameability","10","right","trigger",""
"html-button-response","58","685712","0.0-45.0-0.0","CAN_146","146","","","","","","1112","<button class=""jspsych-btn""><img src=""stimuli/lightred.png"" style=""width: 200px;height: 200px;""></button>","1","lightred","mustard","[""lightred"",""mustard"",""low nameability""]","right-left","[""mustard"",""lightred""]","1","low nameability","10","right","response","1"
"html-audio-button-response","59","685914","0.0-45.0-1.0","CAN_146","146","","","","","","null","stimuli/bleep.m4a","null","lightred","mustard","[""lightred"",""mustard"",""low nameability""]","right-left","[""mustard"",""lightred""]","1","low nameability","10","right","audio_feedback","1"
"html-button-response","60","686431","0.0-46.0","CAN_146","146","","","","","","null","<button class=""jspsych-btn""><img src=""stimuli/white_square.png"" style=""width: 200px;height: 200px;""></button>","null","lightred","mustard","[""lightred"",""mustard"",""low nameability""]","right-left","[""mustard"",""lightred""]","1","low nameability","10","right","iti",""
"pavlovia","61","686515","0.0-47.0","CAN_146","146","","","","","","","","","","","","","","","","","","",""
"pavlovia","62","686533","0.0-48.0","CAN_146","146","","","","","","","","","","","","","","","","","","",""
"html-audio-button-response","63","690390","0.0-49.0","CAN_146","146","","","","","","3957","stimuli/tada.m4a","0","","","","","","","","","","",""
"html-button-response","64","692901","0.0-50.0","CAN_146","146","","","","","","2505","","0","","","","","","","","","","",""
"html-button-response","65","694427","0.0-51.0","CAN_146","146","","","","","","1518","","0","brown","orange","[""brown"",""orange"",""high nameability""]","right-left","[""orange"",""brown""]","2","high nameability","11","right","trigger",""
"html-button-response","66","695536","0.0-52.0-0.0","CAN_146","146","","","","","","1099","<button class=""jspsych-btn""><img src=""stimuli/brown.png"" style=""width: 200px;height: 200px;""></button>","1","brown","orange","[""brown"",""orange"",""high nameability""]","right-left","[""orange"",""brown""]","2","high nameability","11","right","response","1"
"html-audio-button-response","67","695742","0.0-52.0-1.0","CAN_146","146","","","","","","null","stimuli/bleep.m4a","null","brown","orange","[""brown"",""orange"",""high nameability""]","right-left","[""orange"",""brown""]","2","high nameability","11","right","audio_feedback","1"
"html-button-response","68","696262","0.0-53.0","CAN_146","146","","","","","","null","<button class=""jspsych-btn""><img src=""stimuli/white_square.png"" style=""width: 200px;height: 200px;""></button>","null","brown","orange","[""brown"",""orange"",""high nameability""]","right-left","[""orange"",""brown""]","2","high nameability","11","right","iti",""
"html-button-response","69","697072","0.0-54.0","CAN_146","146","","","","","","791","","0","yellow","orange","[""yellow"",""orange"",""high nameability""]","right-left","[""orange"",""yellow""]","2","high nameability","12","right","trigger",""
"html-button-response","70","698098","0.0-55.0-0.0","CAN_146","146","","","","","","1017","<button class=""jspsych-btn""><img src=""stimuli/yellow.png"" style=""width: 200px;height: 200px;""></button>","1","yellow","orange","[""yellow"",""orange"",""high nameability""]","right-left","[""orange"",""yellow""]","2","high nameability","12","right","response","1"
"html-audio-button-response","71","698307","0.0-55.0-1.0","CAN_146","146","","","","","","null","stimuli/bleep.m4a","null","yellow","orange","[""yellow"",""orange"",""high nameability""]","right-left","[""orange"",""yellow""]","2","high nameability","12","right","audio_feedback","1"
"html-button-response","72","698824","0.0-56.0","CAN_146","146","","","","","","null","<button class=""jspsych-btn""><img src=""stimuli/white_square.png"" style=""width: 200px;height: 200px;""></button>","null","yellow","orange","[""yellow"",""orange"",""high nameability""]","right-left","[""orange"",""yellow""]","2","high nameability","12","right","iti",""
"html-button-response","73","699532","0.0-57.0","CAN_146","146","","","","","","700","","0","brown","yellow","[""brown"",""yellow"",""high nameability""]","left-right","[""brown"",""yellow"",""high nameability""]","2","high nameability","13","left","trigger",""
"html-button-response","74","700634","0.0-58.0-0.0","CAN_146","146","","","","","","1093","<button class=""jspsych-btn""><img src=""stimuli/brown.png"" style=""width: 200px;height: 200px;""></button>","0","brown","yellow","[""brown"",""yellow"",""high nameability""]","left-right","[""brown"",""yellow"",""high nameability""]","2","high nameability","13","left","response","1"
"html-audio-button-response","75","700838","0.0-58.0-1.0","CAN_146","146","","","","","","null","stimuli/bleep.m4a","null","brown","yellow","[""brown"",""yellow"",""high nameability""]","left-right","[""brown"",""yellow"",""high nameability""]","2","high nameability","13","left","audio_feedback","1"
"html-button-response","76","701356","0.0-59.0","CAN_146","146","","","","","","null","<button class=""jspsych-btn""><img src=""stimuli/white_square.png"" style=""width: 200px;height: 200px;""></button>","null","brown","yellow","[""brown"",""yellow"",""high nameability""]","left-right","[""brown"",""yellow"",""high nameability""]","2","high nameability","13","left","iti",""
"html-button-response","77","702141","0.0-60.0","CAN_146","146","","","","","","767","","0","lightred","darkgreenblue","[""lightred"",""darkgreenblue"",""low nameability""]","right-left","[""darkgreenblue"",""lightred""]","2","low nameability","14","right","trigger",""
"html-button-response","78","703099","0.0-61.0-0.0","CAN_146","146","","","","","","951","<button class=""jspsych-btn""><img src=""stimuli/lightred.png"" style=""width: 200px;height: 200px;""></button>","1","lightred","darkgreenblue","[""lightred"",""darkgreenblue"",""low nameability""]","right-left","[""darkgreenblue"",""lightred""]","2","low nameability","14","right","response","1"
"html-audio-button-response","79","703303","0.0-61.0-1.0","CAN_146","146","","","","","","null","stimuli/bleep.m4a","null","lightred","darkgreenblue","[""lightred"",""darkgreenblue"",""low nameability""]","right-left","[""darkgreenblue"",""lightred""]","2","low nameability","14","right","audio_feedback","1"
"html-button-response","80","703827","0.0-62.0","CAN_146","146","","","","","","null","<button class=""jspsych-btn""><img src=""stimuli/white_square.png"" style=""width: 200px;height: 200px;""></button>","null","lightred","darkgreenblue","[""lightred"",""darkgreenblue"",""low nameability""]","right-left","[""darkgreenblue"",""lightred""]","2","low nameability","14","right","iti",""
"html-button-response","81","704635","0.0-63.0","CAN_146","146","","","","","","794","","0","neonyellow","pink","[""neonyellow"",""pink"",""low nameability""]","right-left","[""pink"",""neonyellow""]","2","low nameability","15","right","trigger",""
"html-button-response","82","705521","0.0-64.0-0.0","CAN_146","146","","","","","","877","<button class=""jspsych-btn""><img src=""stimuli/neonyellow.png"" style=""width: 200px;height: 200px;""></button>","1","neonyellow","pink","[""neonyellow"",""pink"",""low nameability""]","right-left","[""pink"",""neonyellow""]","2","low nameability","15","right","response","1"
"html-audio-button-response","83","705726","0.0-64.0-1.0","CAN_146","146","","","","","","null","stimuli/bleep.m4a","null","neonyellow","pink","[""neonyellow"",""pink"",""low nameability""]","right-left","[""pink"",""neonyellow""]","2","low nameability","15","right","audio_feedback","1"
"html-button-response","84","706244","0.0-65.0","CAN_146","146","","","","","","null","<button class=""jspsych-btn""><img src=""stimuli/white_square.png"" style=""width: 200px;height: 200px;""></button>","null","neonyellow","pink","[""neonyellow"",""pink"",""low nameability""]","right-left","[""pink"",""neonyellow""]","2","low nameability","15","right","iti",""
"html-button-response","85","707023","0.0-66.0","CAN_146","146","","","","","","751","","0","neonyellow","lightred","[""neonyellow"",""lightred"",""low nameability""]","left-right","[""neonyellow"",""lightred"",""low nameability""]","2","low nameability","16","left","trigger",""
"html-button-response","86","708105","0.0-67.0-0.0","CAN_146","146","","","","","","1074","<button class=""jspsych-btn""><img src=""stimuli/neonyellow.png"" style=""width: 200px;height: 200px;""></button>","0","neonyellow","lightred","[""neonyellow"",""lightred"",""low nameability""]","left-right","[""neonyellow"",""lightred"",""low nameability""]","2","low nameability","16","left","response","1"
"html-audio-button-response","87","708310","0.0-67.0-1.0","CAN_146","146","","","","","","null","stimuli/bleep.m4a","null","neonyellow","lightred","[""neonyellow"",""lightred"",""low nameability""]","left-right","[""neonyellow"",""lightred"",""low nameability""]","2","low nameability","16","left","audio_feedback","1"
"html-button-response","88","708829","0.0-68.0","CAN_146","146","","","","","","null","<button class=""jspsych-btn""><img src=""stimuli/white_square.png"" style=""width: 200px;height: 200px;""></button>","null","neonyellow","lightred","[""neonyellow"",""lightred"",""low nameability""]","left-right","[""neonyellow"",""lightred"",""low nameability""]","2","low nameability","16","left","iti",""
"html-button-response","89","709707","0.0-69.0","CAN_146","146","","","","","","857","","0","blue","purple","[""blue"",""purple"",""high nameability""]","left-right","[""blue"",""purple"",""high nameability""]","2","high nameability","17","left","trigger",""
"html-button-response","90","710745","0.0-70.0-0.0","CAN_146","146","","","","","","1030","<button class=""jspsych-btn""><img src=""stimuli/blue.png"" style=""width: 200px;height: 200px;""></button>","0","blue","purple","[""blue"",""purple"",""high nameability""]","left-right","[""blue"",""purple"",""high nameability""]","2","high nameability","17","left","response","1"
"html-audio-button-response","91","710946","0.0-70.0-1.0","CAN_146","146","","","","","","null","stimuli/bleep.m4a","null","blue","purple","[""blue"",""purple"",""high nameability""]","left-right","[""blue"",""purple"",""high nameability""]","2","high nameability","17","left","audio_feedback","1"
"html-button-response","92","711470","0.0-71.0","CAN_146","146","","","","","","null","<button class=""jspsych-btn""><img src=""stimuli/white_square.png"" style=""width: 200px;height: 200px;""></button>","null","blue","purple","[""blue"",""purple"",""high nameability""]","left-right","[""blue"",""purple"",""high nameability""]","2","high nameability","17","left","iti",""
"html-button-response","93","712113","0.0-72.0","CAN_146","146","","","","","","621","","0","purple","yellow","[""purple"",""yellow"",""high nameability""]","left-right","[""purple"",""yellow"",""high nameability""]","2","high nameability","18","left","trigger",""
"html-button-response","94","713094","0.0-73.0-0.0","CAN_146","146","","","","","","974","<button class=""jspsych-btn""><img src=""stimuli/purple.png"" style=""width: 200px;height: 200px;""></button>","0","purple","yellow","[""purple"",""yellow"",""high nameability""]","left-right","[""purple"",""yellow"",""high nameability""]","2","high nameability","18","left","response","1"
"html-audio-button-response","95","713298","0.0-73.0-1.0","CAN_146","146","","","","","","null","stimuli/bleep.m4a","null","purple","yellow","[""purple"",""yellow"",""high nameability""]","left-right","[""purple"",""yellow"",""high nameability""]","2","high nameability","18","left","audio_feedback","1"
"html-button-response","96","713817","0.0-74.0","CAN_146","146","","","","","","null","<button class=""jspsych-btn""><img src=""stimuli/white_square.png"" style=""width: 200px;height: 200px;""></button>","null","purple","yellow","[""purple"",""yellow"",""high nameability""]","left-right","[""purple"",""yellow"",""high nameability""]","2","high nameability","18","left","iti",""
"html-button-response","97","714633","0.0-75.0","CAN_146","146","","","","","","796","","0","yellow","red","[""yellow"",""red"",""high nameability""]","right-left","[""red"",""yellow""]","2","high nameability","19","right","trigger",""
"html-button-response","98","715498","0.0-76.0-0.0","CAN_146","146","","","","","","855","<button class=""jspsych-btn""><img src=""stimuli/yellow.png"" style=""width: 200px;height: 200px;""></button>","1","yellow","red","[""yellow"",""red"",""high nameability""]","right-left","[""red"",""yellow""]","2","high nameability","19","right","response","1"
"html-audio-button-response","99","715702","0.0-76.0-1.0","CAN_146","146","","","","","","null","stimuli/bleep.m4a","null","yellow","red","[""yellow"",""red"",""high nameability""]","right-left","[""red"",""yellow""]","2","high nameability","19","right","audio_feedback","1"
"html-button-response","100","716222","0.0-77.0","CAN_146","146","","","","","","null","<button class=""jspsych-btn""><img src=""stimuli/white_square.png"" style=""width: 200px;height: 200px;""></button>","null","yellow","red","[""yellow"",""red"",""high nameability""]","right-left","[""red"",""yellow""]","2","high nameability","19","right","iti",""
"html-button-response","101","716982","0.0-78.0","CAN_146","146","","","","","","744","","0","lightred","neonyellow","[""lightred"",""neonyellow"",""low nameability""]","left-right","[""lightred"",""neonyellow"",""low nameability""]","2","low nameability","20","left","trigger",""
"html-button-response","102","717912","0.0-79.0-0.0","CAN_146","146","","","","","","922","<button class=""jspsych-btn""><img src=""stimuli/lightred.png"" style=""width: 200px;height: 200px;""></button>","0","lightred","neonyellow","[""lightred"",""neonyellow"",""low nameability""]","left-right","[""lightred"",""neonyellow"",""low nameability""]","2","low nameability","20","left","response","1"
"html-audio-button-response","103","718113","0.0-79.0-1.0","CAN_146","146","","","","","","null","stimuli/bleep.m4a","null","lightred","neonyellow","[""lightred"",""neonyellow"",""low nameability""]","left-right","[""lightred"",""neonyellow"",""low nameability""]","2","low nameability","20","left","audio_feedback","1"
"html-button-response","104","718633","0.0-80.0","CAN_146","146","","","","","","null","<button class=""jspsych-btn""><img src=""stimuli/white_square.png"" style=""width: 200px;height: 200px;""></button>","null","lightred","neonyellow","[""lightred"",""neonyellow"",""low nameability""]","left-right","[""lightred"",""neonyellow"",""low nameability""]","2","low nameability","20","left","iti",""
"pavlovia","105","718682","0.0-81.0","CAN_146","146","","","","","","","","","","","","","","","","","","",""
"pavlovia","106","718691","0.0-82.0","CAN_146","146","","","","","","","","","","","","","","","","","","",""
"html-audio-button-response","107","720981","0.0-83.0","CAN_146","146","","","","","","2339","stimuli/tada.m4a","0","","","","","","","","","","",""
"html-button-response","108","722109","0.0-84.0","CAN_146","146","","","","","","1119","","0","","","","","","","","","","",""
"html-button-response","109","723160","0.0-85.0","CAN_146","146","","","","","","1044","","0","orange","purple","[""orange"",""purple"",""high nameability""]","left-right","[""orange"",""purple"",""high nameability""]","3","high nameability","21","left","trigger",""
"html-button-response","110","724162","0.0-86.0-0.0","CAN_146","146","","","","","","991","<button class=""jspsych-btn""><img src=""stimuli/orange.png"" style=""width: 200px;height: 200px;""></button>","0","orange","purple","[""orange"",""purple"",""high nameability""]","left-right","[""orange"",""purple"",""high nameability""]","3","high nameability","21","left","response","1"
"html-audio-button-response","111","724372","0.0-86.0-1.0","CAN_146","146","","","","","","null","stimuli/bleep.m4a","null","orange","purple","[""orange"",""purple"",""high nameability""]","left-right","[""orange"",""purple"",""high nameability""]","3","high nameability","21","left","audio_feedback","1"
"html-button-response","112","724884","0.0-87.0","CAN_146","146","","","","","","null","<button class=""jspsych-btn""><img src=""stimuli/white_square.png"" style=""width: 200px;height: 200px;""></button>","null","orange","purple","[""orange"",""purple"",""high nameability""]","left-right","[""orange"",""purple"",""high nameability""]","3","high nameability","21","left","iti",""
"html-button-response","113","725618","0.0-88.0","CAN_146","146","","","","","","718","","0","orange","red","[""orange"",""red"",""high nameability""]","right-left","[""red"",""orange""]","3","high nameability","22","right","trigger",""
"html-button-response","114","726459","0.0-89.0-0.0","CAN_146","146","","","","","","833","<button class=""jspsych-btn""><img src=""stimuli/orange.png"" style=""width: 200px;height: 200px;""></button>","1","orange","red","[""orange"",""red"",""high nameability""]","right-left","[""red"",""orange""]","3","high nameability","22","right","response","1"
"html-audio-button-response","115","726663","0.0-89.0-1.0","CAN_146","146","","","","","","null","stimuli/bleep.m4a","null","orange","red","[""orange"",""red"",""high nameability""]","right-left","[""red"",""orange""]","3","high nameability","22","right","audio_feedback","1"
"html-button-response","116","727180","0.0-90.0","CAN_146","146","","","","","","null","<button class=""jspsych-btn""><img src=""stimuli/white_square.png"" style=""width: 200px;height: 200px;""></button>","null","orange","red","[""orange"",""red"",""high nameability""]","right-left","[""red"",""orange""]","3","high nameability","22","right","iti",""
"html-button-response","117","727868","0.0-91.0","CAN_146","146","","","","","","669","","0","orange","brown","[""orange"",""brown"",""high nameability""]","right-left","[""brown"",""orange""]","3","high nameability","23","right","trigger",""
"html-button-response","118","728860","0.0-92.0-0.0","CAN_146","146","","","","","","985","<button class=""jspsych-btn""><img src=""stimuli/orange.png"" style=""width: 200px;height: 200px;""></button>","1","orange","brown","[""orange"",""brown"",""high nameability""]","right-left","[""brown"",""orange""]","3","high nameability","23","right","response","1"
"html-audio-button-response","119","729066","0.0-92.0-1.0","CAN_146","146","","","","","","null","stimuli/bleep.m4a","null","orange","brown","[""orange"",""brown"",""high nameability""]","right-left","[""brown"",""orange""]","3","high nameability","23","right","audio_feedback","1"
"html-button-response","120","729584","0.0-93.0","CAN_146","146","","","","","","null","<button class=""jspsych-btn""><img src=""stimuli/white_square.png"" style=""width: 200px;height: 200px;""></button>","null","orange","brown","[""orange"",""brown"",""high nameability""]","right-left","[""brown"",""orange""]","3","high nameability","23","right","iti",""
"html-button-response","121","730109","0.0-94.0","CAN_146","146","","","","","","511","","0","yellow","purple","[""yellow"",""purple"",""high nameability""]","right-left","[""purple"",""yellow""]","3","high nameability","24","right","trigger",""
"html-button-response","122","731039","0.0-95.0-0.0","CAN_146","146","","","","","","923","<button class=""jspsych-btn""><img src=""stimuli/yellow.png"" style=""width: 200px;height: 200px;""></button>","1","yellow","purple","[""yellow"",""purple"",""high nameability""]","right-left","[""purple"",""yellow""]","3","high nameability","24","right","response","1"
"html-audio-button-response","123","731242","0.0-95.0-1.0","CAN_146","146","","","","","","null","stimuli/bleep.m4a","null","yellow","purple","[""yellow"",""purple"",""high nameability""]","right-left","[""purple"",""yellow""]","3","high nameability","24","right","audio_feedback","1"
"html-button-response","124","731758","0.0-96.0","CAN_146","146","","","","","","null","<button class=""jspsych-btn""><img src=""stimuli/white_square.png"" style=""width: 200px;height: 200px;""></button>","null","yellow","purple","[""yellow"",""purple"",""high nameability""]","right-left","[""purple"",""yellow""]","3","high nameability","24","right","iti",""
"html-button-response","125","732389","0.0-97.0","CAN_146","146","","","","","","615","","0","mustard","turquoise","[""mustard"",""turquoise"",""low nameability""]","right-left","[""turquoise"",""mustard""]","3","low nameability","25","right","trigger",""
"html-button-response","126","733379","0.0-98.0-0.0","CAN_146","146","","","","","","982","<button class=""jspsych-btn""><img src=""stimuli/mustard.png"" style=""width: 200px;height: 200px;""></button>","1","mustard","turquoise","[""mustard"",""turquoise"",""low nameability""]","right-left","[""turquoise"",""mustard""]","3","low nameability","25","right","response","1"
"html-audio-button-response","127","733585","0.0-98.0-1.0","CAN_146","146","","","","","","null","stimuli/bleep.m4a","null","mustard","turquoise","[""mustard"",""turquoise"",""low nameability""]","right-left","[""turquoise"",""mustard""]","3","low nameability","25","right","audio_feedback","1"
"html-button-response","128","734100","0.0-99.0","CAN_146","146","","","","","","null","<button class=""jspsych-btn""><img src=""stimuli/white_square.png"" style=""width: 200px;height: 200px;""></button>","null","mustard","turquoise","[""mustard"",""turquoise"",""low nameability""]","right-left","[""turquoise"",""mustard""]","3","low nameability","25","right","iti",""
"html-button-response","129","734622","0.0-100.0","CAN_146","146","","","","","","503","","0","pink","mustard","[""pink"",""mustard"",""low nameability""]","right-left","[""mustard"",""pink""]","3","low nameability","26","right","trigger",""
"html-button-response","130","735630","0.0-101.0-0.0","CAN_146","146","","","","","","1000","<button class=""jspsych-btn""><img src=""stimuli/pink.png"" style=""width: 200px;height: 200px;""></button>","1","pink","mustard","[""pink"",""mustard"",""low nameability""]","right-left","[""mustard"",""pink""]","3","low nameability","26","right","response","1"
"html-audio-button-response","131","735833","0.0-101.0-1.0","CAN_146","146","","","","","","null","stimuli/bleep.m4a","null","pink","mustard","[""pink"",""mustard"",""low nameability""]","right-left","[""mustard"",""pink""]","3","low nameability","26","right","audio_feedback","1"
"html-button-response","132","736356","0.0-102.0","CAN_146","146","","","","","","null","<button class=""jspsych-btn""><img src=""stimuli/white_square.png"" style=""width: 200px;height: 200px;""></button>","null","pink","mustard","[""pink"",""mustard"",""low nameability""]","right-left","[""mustard"",""pink""]","3","low nameability","26","right","iti",""
"html-button-response","133","736950","0.0-103.0","CAN_146","146","","","","","","575","","0","red","purple","[""red"",""purple"",""high nameability""]","left-right","[""red"",""purple"",""high nameability""]","3","high nameability","27","left","trigger",""
"html-button-response","134","737938","0.0-104.0-0.0","CAN_146","146","","","","","","981","<button class=""jspsych-btn""><img src=""stimuli/red.png"" style=""width: 200px;height: 200px;""></button>","0","red","purple","[""red"",""purple"",""high nameability""]","left-right","[""red"",""purple"",""high nameability""]","3","high nameability","27","left","response","1"
"html-audio-button-response","135","738145","0.0-104.0-1.0","CAN_146","146","","","","","","null","stimuli/bleep.m4a","null","red","purple","[""red"",""purple"",""high nameability""]","left-right","[""red"",""purple"",""high nameability""]","3","high nameability","27","left","audio_feedback","1"
"html-button-response","136","738664","0.0-105.0","CAN_146","146","","","","","","null","<button class=""jspsych-btn""><img src=""stimuli/white_square.png"" style=""width: 200px;height: 200px;""></button>","null","red","purple","[""red"",""purple"",""high nameability""]","left-right","[""red"",""purple"",""high nameability""]","3","high nameability","27","left","iti",""
"html-button-response","137","739216","0.0-106.0","CAN_146","146","","","","","","530","","0","pink","turquoise","[""pink"",""turquoise"",""low nameability""]","left-right","[""pink"",""turquoise"",""low nameability""]","3","low nameability","28","left","trigger",""
"html-button-response","138","740211","0.0-107.0-0.0","CAN_146","146","","","","","","988","<button class=""jspsych-btn""><img src=""stimuli/pink.png"" style=""width: 200px;height: 200px;""></button>","0","pink","turquoise","[""pink"",""turquoise"",""low nameability""]","left-right","[""pink"",""turquoise"",""low nameability""]","3","low nameability","28","left","response","1"
"html-audio-button-response","139","740415","0.0-107.0-1.0","CAN_146","146","","","","","","null","stimuli/bleep.m4a","null","pink","turquoise","[""pink"",""turquoise"",""low nameability""]","left-right","[""pink"",""turquoise"",""low nameability""]","3","low nameability","28","left","audio_feedback","1"
"html-button-response","140","740935","0.0-108.0","CAN_146","146","","","","","","null","<button class=""jspsych-btn""><img src=""stimuli/white_square.png"" style=""width: 200px;height: 200px;""></button>","null","pink","turquoise","[""pink"",""turquoise"",""low nameability""]","left-right","[""pink"",""turquoise"",""low nameability""]","3","low nameability","28","left","iti",""
"html-button-response","141","741551","0.0-109.0","CAN_146","146","","","","","","591","","0","red","blue","[""red"",""blue"",""high nameability""]","right-left","[""blue"",""red""]","3","high nameability","29","right","trigger",""
"html-button-response","142","742448","0.0-110.0-0.0","CAN_146","146","","","","","","889","<button class=""jspsych-btn""><img src=""stimuli/red.png"" style=""width: 200px;height: 200px;""></button>","1","red","blue","[""red"",""blue"",""high nameability""]","right-left","[""blue"",""red""]","3","high nameability","29","right","response","1"
"html-audio-button-response","143","742655","0.0-110.0-1.0","CAN_146","146","","","","","","null","stimuli/bleep.m4a","null","red","blue","[""red"",""blue"",""high nameability""]","right-left","[""blue"",""red""]","3","high nameability","29","right","audio_feedback","1"
"html-button-response","144","743179","0.0-111.0","CAN_146","146","","","","","","null","<button class=""jspsych-btn""><img src=""stimuli/white_square.png"" style=""width: 200px;height: 200px;""></button>","null","red","blue","[""red"",""blue"",""high nameability""]","right-left","[""blue"",""red""]","3","high nameability","29","right","iti",""
"html-button-response","145","743703","0.0-112.0","CAN_146","146","","","","","","504","","0","red","yellow","[""red"",""yellow"",""high nameability""]","left-right","[""red"",""yellow"",""high nameability""]","3","high nameability","30","left","trigger",""
"html-button-response","146","744721","0.0-113.0-0.0","CAN_146","146","","","","","","1010","<button class=""jspsych-btn""><img src=""stimuli/red.png"" style=""width: 200px;height: 200px;""></button>","0","red","yellow","[""red"",""yellow"",""high nameability""]","left-right","[""red"",""yellow"",""high nameability""]","3","high nameability","30","left","response","1"
"html-audio-button-response","147","744926","0.0-113.0-1.0","CAN_146","146","","","","","","null","stimuli/bleep.m4a","null","red","yellow","[""red"",""yellow"",""high nameability""]","left-right","[""red"",""yellow"",""high nameability""]","3","high nameability","30","left","audio_feedback","1"
"html-button-response","148","745446","0.0-114.0","CAN_146","146","","","","","","null","<button class=""jspsych-btn""><img src=""stimuli/white_square.png"" style=""width: 200px;height: 200px;""></button>","null","red","yellow","[""red"",""yellow"",""high nameability""]","left-right","[""red"",""yellow"",""high nameability""]","3","high nameability","30","left","iti",""
"pavlovia","149","745501","0.0-115.0","CAN_146","146","","","","","","","","","","","","","","","","","","",""
"pavlovia","150","745511","0.0-116.0","CAN_146","146","","","","","","","","","","","","","","","","","","",""
"html-audio-button-response","151","747458","0.0-117.0","CAN_146","146","","","","","","2016","stimuli/tada.m4a","0","","","","","","","","","","",""
"html-button-response","152","748649","0.0-118.0","CAN_146","146","","","","","","1185","","0","","","","","","","","","","",""
"html-button-response","153","749521","0.0-119.0","CAN_146","146","","","","","","864","","0","turquoise","neonyellow","[""turquoise"",""neonyellow"",""low nameability""]","left-right","[""turquoise"",""neonyellow"",""low nameability""]","4","low nameability","31","left","trigger",""
"html-button-response","154","750474","0.0-120.0-0.0","CAN_146","146","","","","","","944","<button class=""jspsych-btn""><img src=""stimuli/turquoise.png"" style=""width: 200px;height: 200px;""></button>","0","turquoise","neonyellow","[""turquoise"",""neonyellow"",""low nameability""]","left-right","[""turquoise"",""neonyellow"",""low nameability""]","4","low nameability","31","left","response","1"
"html-audio-button-response","155","750679","0.0-120.0-1.0","CAN_146","146","","","","","","null","stimuli/bleep.m4a","null","turquoise","neonyellow","[""turquoise"",""neonyellow"",""low nameability""]","left-right","[""turquoise"",""neonyellow"",""low nameability""]","4","low nameability","31","left","audio_feedback","1"
"html-button-response","156","751198","0.0-121.0","CAN_146","146","","","","","","null","<button class=""jspsych-btn""><img src=""stimuli/white_square.png"" style=""width: 200px;height: 200px;""></button>","null","turquoise","neonyellow","[""turquoise"",""neonyellow"",""low nameability""]","left-right","[""turquoise"",""neonyellow"",""low nameability""]","4","low nameability","31","left","iti",""
"html-button-response","157","751986","0.0-122.0","CAN_146","146","","","","","","770","","0","red","brown","[""red"",""brown"",""high nameability""]","left-right","[""red"",""brown"",""high nameability""]","4","high nameability","32","left","trigger",""
"html-button-response","158","752773","0.0-123.0-0.0","CAN_146","146","","","","","","779","<button class=""jspsych-btn""><img src=""stimuli/red.png"" style=""width: 200px;height: 200px;""></button>","0","red","brown","[""red"",""brown"",""high nameability""]","left-right","[""red"",""brown"",""high nameability""]","4","high nameability","32","left","response","1"
"html-audio-button-response","159","752977","0.0-123.0-1.0","CAN_146","146","","","","","","null","stimuli/bleep.m4a","null","red","brown","[""red"",""brown"",""high nameability""]","left-right","[""red"",""brown"",""high nameability""]","4","high nameability","32","left","audio_feedback","1"
"html-button-response","160","753498","0.0-124.0","CAN_146","146","","","","","","null","<button class=""jspsych-btn""><img src=""stimuli/white_square.png"" style=""width: 200px;height: 200px;""></button>","null","red","brown","[""red"",""brown"",""high nameability""]","left-right","[""red"",""brown"",""high nameability""]","4","high nameability","32","left","iti",""
"html-button-response","161","754127","0.0-125.0","CAN_146","146","","","","","","603","","0","mustard","lightred","[""mustard"",""lightred"",""low nameability""]","left-right","[""mustard"",""lightred"",""low nameability""]","4","low nameability","33","left","trigger",""
"html-button-response","162","754989","0.0-126.0-0.0","CAN_146","146","","","","","","853","<button class=""jspsych-btn""><img src=""stimuli/mustard.png"" style=""width: 200px;height: 200px;""></button>","0","mustard","lightred","[""mustard"",""lightred"",""low nameability""]","left-right","[""mustard"",""lightred"",""low nameability""]","4","low nameability","33","left","response","1"
"html-audio-button-response","163","755195","0.0-126.0-1.0","CAN_146","146","","","","","","null","stimuli/bleep.m4a","null","mustard","lightred","[""mustard"",""lightred"",""low nameability""]","left-right","[""mustard"",""lightred"",""low nameability""]","4","low nameability","33","left","audio_feedback","1"
"html-button-response","164","755714","0.0-127.0","CAN_146","146","","","","","","null","<button class=""jspsych-btn""><img src=""stimuli/white_square.png"" style=""width: 200px;height: 200px;""></button>","null","mustard","lightred","[""mustard"",""lightred"",""low nameability""]","left-right","[""mustard"",""lightred"",""low nameability""]","4","low nameability","33","left","iti",""
"html-button-response","165","756436","0.0-128.0","CAN_146","146","","","","","","703","","0","pink","darkgreenblue","[""pink"",""darkgreenblue"",""low nameability""]","left-right","[""pink"",""darkgreenblue"",""low nameability""]","4","low nameability","34","left","trigger",""
"html-button-response","166","757286","0.0-129.0-0.0","CAN_146","146","","","","","","842","<button class=""jspsych-btn""><img src=""stimuli/pink.png"" style=""width: 200px;height: 200px;""></button>","0","pink","darkgreenblue","[""pink"",""darkgreenblue"",""low nameability""]","left-right","[""pink"",""darkgreenblue"",""low nameability""]","4","low nameability","34","left","response","1"
"html-audio-button-response","167","757490","0.0-129.0-1.0","CAN_146","146","","","","","","null","stimuli/bleep.m4a","null","pink","darkgreenblue","[""pink"",""darkgreenblue"",""low nameability""]","left-right","[""pink"",""darkgreenblue"",""low nameability""]","4","low nameability","34","left","audio_feedback","1"
"html-button-response","168","758013","0.0-130.0","CAN_146","146","","","","","","null","<button class=""jspsych-btn""><img src=""stimuli/white_square.png"" style=""width: 200px;height: 200px;""></button>","null","pink","darkgreenblue","[""pink"",""darkgreenblue"",""low nameability""]","left-right","[""pink"",""darkgreenblue"",""low nameability""]","4","low nameability","34","left","iti",""
"html-button-response","169","758636","0.0-131.0","CAN_146","146","","","","","","598","","0","purple","orange","[""purple"",""orange"",""high nameability""]","left-right","[""purple"",""orange"",""high nameability""]","4","high nameability","35","left","trigger",""
"html-button-response","170","759592","0.0-132.0-0.0","CAN_146","146","","","","","","948","<button class=""jspsych-btn""><img src=""stimuli/purple.png"" style=""width: 200px;height: 200px;""></button>","0","purple","orange","[""purple"",""orange"",""high nameability""]","left-right","[""purple"",""orange"",""high nameability""]","4","high nameability","35","left","response","1"
"html-audio-button-response","171","759795","0.0-132.0-1.0","CAN_146","146","","","","","","null","stimuli/bleep.m4a","null","purple","orange","[""purple"",""orange"",""high nameability""]","left-right","[""purple"",""orange"",""high nameability""]","4","high nameability","35","left","audio_feedback","1"
"html-button-response","172","760314","0.0-133.0","CAN_146","146","","","","","","null","<button class=""jspsych-btn""><img src=""stimuli/white_square.png"" style=""width: 200px;height: 200px;""></button>","null","purple","orange","[""purple"",""orange"",""high nameability""]","left-right","[""purple"",""orange"",""high nameability""]","4","high nameability","35","left","iti",""
"html-button-response","173","760835","0.0-134.0","CAN_146","146","","","","","","501","","0","orange","blue","[""orange"",""blue"",""high nameability""]","left-right","[""orange"",""blue"",""high nameability""]","4","high nameability","36","left","trigger",""
"html-button-response","174","761643","0.0-135.0-0.0","CAN_146","146","","","","","","802","<button class=""jspsych-btn""><img src=""stimuli/orange.png"" style=""width: 200px;height: 200px;""></button>","0","orange","blue","[""orange"",""blue"",""high nameability""]","left-right","[""orange"",""blue"",""high nameability""]","4","high nameability","36","left","response","1"
"html-audio-button-response","175","761854","0.0-135.0-1.0","CAN_146","146","","","","","","null","stimuli/bleep.m4a","null","orange","blue","[""orange"",""blue"",""high nameability""]","left-right","[""orange"",""blue"",""high nameability""]","4","high nameability","36","left","audio_feedback","1"
"html-button-response","176","762370","0.0-136.0","CAN_146","146","","","","","","null","<button class=""jspsych-btn""><img src=""stimuli/white_square.png"" style=""width: 200px;height: 200px;""></button>","null","orange","blue","[""orange"",""blue"",""high nameability""]","left-right","[""orange"",""blue"",""high nameability""]","4","high nameability","36","left","iti",""
"html-button-response","177","762914","0.0-137.0","CAN_146","146","","","","","","514","","0","lightred","turquoise","[""lightred"",""turquoise"",""low nameability""]","right-left","[""turquoise"",""lightred""]","4","low nameability","37","right","trigger",""
"html-button-response","178","763870","0.0-138.0-0.0","CAN_146","146","","","","","","946","<button class=""jspsych-btn""><img src=""stimuli/lightred.png"" style=""width: 200px;height: 200px;""></button>","1","lightred","turquoise","[""lightred"",""turquoise"",""low nameability""]","right-left","[""turquoise"",""lightred""]","4","low nameability","37","right","response","1"
"html-audio-button-response","179","764073","0.0-138.0-1.0","CAN_146","146","","","","","","null","stimuli/bleep.m4a","null","lightred","turquoise","[""lightred"",""turquoise"",""low nameability""]","right-left","[""turquoise"",""lightred""]","4","low nameability","37","right","audio_feedback","1"
"html-button-response","180","764589","0.0-139.0","CAN_146","146","","","","","","null","<button class=""jspsych-btn""><img src=""stimuli/white_square.png"" style=""width: 200px;height: 200px;""></button>","null","lightred","turquoise","[""lightred"",""turquoise"",""low nameability""]","right-left","[""turquoise"",""lightred""]","4","low nameability","37","right","iti",""
"html-button-response","181","765119","0.0-140.0","CAN_146","146","","","","","","504","","0","purple","red","[""purple"",""red"",""high nameability""]","right-left","[""red"",""purple""]","4","high nameability","38","right","trigger",""
"html-button-response","182","765910","0.0-141.0-0.0","CAN_146","146","","","","","","775","<button class=""jspsych-btn""><img src=""stimuli/purple.png"" style=""width: 200px;height: 200px;""></button>","1","purple","red","[""purple"",""red"",""high nameability""]","right-left","[""red"",""purple""]","4","high nameability","38","right","response","1"
"html-audio-button-response","183","766119","0.0-141.0-1.0","CAN_146","146","","","","","","null","stimuli/bleep.m4a","null","purple","red","[""purple"",""red"",""high nameability""]","right-left","[""red"",""purple""]","4","high nameability","38","right","audio_feedback","1"
"html-button-response","184","766642","0.0-142.0","CAN_146","146","","","","","","null","<button class=""jspsych-btn""><img src=""stimuli/white_square.png"" style=""width: 200px;height: 200px;""></button>","null","purple","red","[""purple"",""red"",""high nameability""]","right-left","[""red"",""purple""]","4","high nameability","38","right","iti",""
"html-button-response","185","767179","0.0-143.0","CAN_146","146","","","","","","517","","0","brown","red","[""brown"",""red"",""high nameability""]","right-left","[""red"",""brown""]","4","high nameability","39","right","trigger",""
"html-button-response","186","767984","0.0-144.0-0.0","CAN_146","146","","","","","","795","<button class=""jspsych-btn""><img src=""stimuli/brown.png"" style=""width: 200px;height: 200px;""></button>","1","brown","red","[""brown"",""red"",""high nameability""]","right-left","[""red"",""brown""]","4","high nameability","39","right","response","1"
"html-audio-button-response","187","768188","0.0-144.0-1.0","CAN_146","146","","","","","","null","stimuli/bleep.m4a","null","brown","red","[""brown"",""red"",""high nameability""]","right-left","[""red"",""brown""]","4","high nameability","39","right","audio_feedback","1"
"html-button-response","188","768710","0.0-145.0","CAN_146","146","","","","","","null","<button class=""jspsych-btn""><img src=""stimuli/white_square.png"" style=""width: 200px;height: 200px;""></button>","null","brown","red","[""brown"",""red"",""high nameability""]","right-left","[""red"",""brown""]","4","high nameability","39","right","iti",""
"html-button-response","189","769289","0.0-146.0","CAN_146","146","","","","","","555","","0","yellow","brown","[""yellow"",""brown"",""high nameability""]","left-right","[""yellow"",""brown"",""high nameability""]","4","high nameability","40","left","trigger",""
"html-button-response","190","770071","0.0-147.0-0.0","CAN_146","146","","","","","","772","<button class=""jspsych-btn""><img src=""stimuli/yellow.png"" style=""width: 200px;height: 200px;""></button>","0","yellow","brown","[""yellow"",""brown"",""high nameability""]","left-right","[""yellow"",""brown"",""high nameability""]","4","high nameability","40","left","response","1"
"html-audio-button-response","191","770278","0.0-147.0-1.0","CAN_146","146","","","","","","null","stimuli/bleep.m4a","null","yellow","brown","[""yellow"",""brown"",""high nameability""]","left-right","[""yellow"",""brown"",""high nameability""]","4","high nameability","40","left","audio_feedback","1"
"html-button-response","192","770798","0.0-148.0","CAN_146","146","","","","","","null","<button class=""jspsych-btn""><img src=""stimuli/white_square.png"" style=""width: 200px;height: 200px;""></button>","null","yellow","brown","[""yellow"",""brown"",""high nameability""]","left-right","[""yellow"",""brown"",""high nameability""]","4","high nameability","40","left","iti",""
"pavlovia","193","770863","0.0-149.0","CAN_146","146","","","","","","","","","","","","","","","","","","",""
"pavlovia","194","770874","0.0-150.0","CAN_146","146","","","","","","","","","","","","","","","","","","",""
"html-audio-button-response","195","773939","0.0-151.0","CAN_146","146","","","","","","3139","stimuli/tada.m4a","0","","","","","","","","","","",""
"html-button-response","196","774907","0.0-152.0","CAN_146","146","","","","","","960","","0","","","","","","","","","","",""
"html-button-response","197","775678","0.0-153.0","CAN_146","146","","","","","","760","","0","pink","neonyellow","[""pink"",""neonyellow"",""low nameability""]","left-right","[""pink"",""neonyellow"",""low nameability""]","5","low nameability","41","left","trigger",""
"html-button-response","198","776516","0.0-154.0-0.0","CAN_146","146","","","","","","830","<button class=""jspsych-btn""><img src=""stimuli/pink.png"" style=""width: 200px;height: 200px;""></button>","0","pink","neonyellow","[""pink"",""neonyellow"",""low nameability""]","left-right","[""pink"",""neonyellow"",""low nameability""]","5","low nameability","41","left","response","1"
"html-audio-button-response","199","776722","0.0-154.0-1.0","CAN_146","146","","","","","","null","stimuli/bleep.m4a","null","pink","neonyellow","[""pink"",""neonyellow"",""low nameability""]","left-right","[""pink"",""neonyellow"",""low nameability""]","5","low nameability","41","left","audio_feedback","1"
"html-button-response","200","777239","0.0-155.0","CAN_146","146","","","","","","null","<button class=""jspsych-btn""><img src=""stimuli/white_square.png"" style=""width: 200px;height: 200px;""></button>","null","pink","neonyellow","[""pink"",""neonyellow"",""low nameability""]","left-right","[""pink"",""neonyellow"",""low nameability""]","5","low nameability","41","left","iti",""
"html-button-response","201","777784","0.0-156.0","CAN_146","146","","","","","","523","","0","brown","purple","[""brown"",""purple"",""high nameability""]","right-left","[""purple"",""brown""]","5","high nameability","42","right","trigger",""
"html-button-response","202","778754","0.0-157.0-0.0","CAN_146","146","","","","","","962","<button class=""jspsych-btn""><img src=""stimuli/brown.png"" style=""width: 200px;height: 200px;""></button>","1","brown","purple","[""brown"",""purple"",""high nameability""]","right-left","[""purple"",""brown""]","5","high nameability","42","right","response","1"
"html-audio-button-response","203","778960","0.0-157.0-1.0","CAN_146","146","","","","","","null","stimuli/bleep.m4a","null","brown","purple","[""brown"",""purple"",""high nameability""]","right-left","[""purple"",""brown""]","5","high nameability","42","right","audio_feedback","1"
"html-button-response","204","779483","0.0-158.0","CAN_146","146","","","","","","null","<button class=""jspsych-btn""><img src=""stimuli/white_square.png"" style=""width: 200px;height: 200px;""></button>","null","brown","purple","[""brown"",""purple"",""high nameability""]","right-left","[""purple"",""brown""]","5","high nameability","42","right","iti",""
"html-button-response","205","780004","0.0-159.0","CAN_146","146","","","","","","500","","0","blue","yellow","[""blue"",""yellow"",""high nameability""]","right-left","[""yellow"",""blue""]","5","high nameability","43","right","trigger",""
"html-button-response","206","780711","0.0-160.0-0.0","CAN_146","146","","","","","","700","<button class=""jspsych-btn""><img src=""stimuli/blue.png"" style=""width: 200px;height: 200px;""></button>","1","blue","yellow","[""blue"",""yellow"",""high nameability""]","right-left","[""yellow"",""blue""]","5","high nameability","43","right","response","1"
"html-audio-button-response","207","780912","0.0-160.0-1.0","CAN_146","146","","","","","","null","stimuli/bleep.m4a","null","blue","yellow","[""blue"",""yellow"",""high nameability""]","right-left","[""yellow"",""blue""]","5","high nameability","43","right","audio_feedback","1"
"html-button-response","208","781429","0.0-161.0","CAN_146","146","","","","","","null","<button class=""jspsych-btn""><img src=""stimuli/white_square.png"" style=""width: 200px;height: 200px;""></button>","null","blue","yellow","[""blue"",""yellow"",""high nameability""]","right-left","[""yellow"",""blue""]","5","high nameability","43","right","iti",""
"html-button-response","209","782237","0.0-162.0","CAN_146","146","","","","","","790","","0","mustard","darkgreenblue","[""mustard"",""darkgreenblue"",""low nameability""]","left-right","[""mustard"",""darkgreenblue"",""low nameability""]","5","low nameability","44","left","trigger",""
"html-button-response","210","783000","0.0-163.0-0.0","CAN_146","146","","","","","","756","<button class=""jspsych-btn""><img src=""stimuli/mustard.png"" style=""width: 200px;height: 200px;""></button>","0","mustard","darkgreenblue","[""mustard"",""darkgreenblue"",""low nameability""]","left-right","[""mustard"",""darkgreenblue"",""low nameability""]","5","low nameability","44","left","response","1"
"html-audio-button-response","211","783206","0.0-163.0-1.0","CAN_146","146","","","","","","null","stimuli/bleep.m4a","null","mustard","darkgreenblue","[""mustard"",""darkgreenblue"",""low nameability""]","left-right","[""mustard"",""darkgreenblue"",""low nameability""]","5","low nameability","44","left","audio_feedback","1"
"html-button-response","212","783723","0.0-164.0","CAN_146","146","","","","","","null","<button class=""jspsych-btn""><img src=""stimuli/white_square.png"" style=""width: 200px;height: 200px;""></button>","null","mustard","darkgreenblue","[""mustard"",""darkgreenblue"",""low nameability""]","left-right","[""mustard"",""darkgreenblue"",""low nameability""]","5","low nameability","44","left","iti",""
"html-button-response","213","784543","0.0-165.0","CAN_146","146","","","","","","803","","0","darkgreenblue","neonyellow","[""darkgreenblue"",""neonyellow"",""low nameability""]","right-left","[""neonyellow"",""darkgreenblue""]","5","low nameability","45","right","trigger",""
"html-button-response","214","785419","0.0-166.0-0.0","CAN_146","146","","","","","","869","<button class=""jspsych-btn""><img src=""stimuli/darkgreenblue.png"" style=""width: 200px;height: 200px;""></button>","1","darkgreenblue","neonyellow","[""darkgreenblue"",""neonyellow"",""low nameability""]","right-left","[""neonyellow"",""darkgreenblue""]","5","low nameability","45","right","response","1"
"html-audio-button-response","215","785621","0.0-166.0-1.0","CAN_146","146","","","","","","null","stimuli/bleep.m4a","null","darkgreenblue","neonyellow","[""darkgreenblue"",""neonyellow"",""low nameability""]","right-left","[""neonyellow"",""darkgreenblue""]","5","low nameability","45","right","audio_feedback","1"
"html-button-response","216","786140","0.0-167.0","CAN_146","146","","","","","","null","<button class=""jspsych-btn""><img src=""stimuli/white_square.png"" style=""width: 200px;height: 200px;""></button>","null","darkgreenblue","neonyellow","[""darkgreenblue"",""neonyellow"",""low nameability""]","right-left","[""neonyellow"",""darkgreenblue""]","5","low nameability","45","right","iti",""
"html-button-response","217","786678","0.0-168.0","CAN_146","146","","","","","","519","","0","darkgreenblue","pink","[""darkgreenblue"",""pink"",""low nameability""]","left-right","[""darkgreenblue"",""pink"",""low nameability""]","5","low nameability","46","left","trigger",""
"html-button-response","218","787610","0.0-169.0-0.0","CAN_146","146","","","","","","926","<button class=""jspsych-btn""><img src=""stimuli/darkgreenblue.png"" style=""width: 200px;height: 200px;""></button>","0","darkgreenblue","pink","[""darkgreenblue"",""pink"",""low nameability""]","left-right","[""darkgreenblue"",""pink"",""low nameability""]","5","low nameability","46","left","response","1"
"html-audio-button-response","219","787815","0.0-169.0-1.0","CAN_146","146","","","","","","null","stimuli/bleep.m4a","null","darkgreenblue","pink","[""darkgreenblue"",""pink"",""low nameability""]","left-right","[""darkgreenblue"",""pink"",""low nameability""]","5","low nameability","46","left","audio_feedback","1"
"html-button-response","220","788338","0.0-170.0","CAN_146","146","","","","","","null","<button class=""jspsych-btn""><img src=""stimuli/white_square.png"" style=""width: 200px;height: 200px;""></button>","null","darkgreenblue","pink","[""darkgreenblue"",""pink"",""low nameability""]","left-right","[""darkgreenblue"",""pink"",""low nameability""]","5","low nameability","46","left","iti",""
"html-button-response","221","789010","0.0-171.0","CAN_146","146","","","","","","657","","0","turquoise","darkgreenblue","[""turquoise"",""darkgreenblue"",""low nameability""]","right-left","[""darkgreenblue"",""turquoise""]","5","low nameability","47","right","trigger",""
"html-button-response","222","789756","0.0-172.0-0.0","CAN_146","146","","","","","","737","<button class=""jspsych-btn""><img src=""stimuli/turquoise.png"" style=""width: 200px;height: 200px;""></button>","1","turquoise","darkgreenblue","[""turquoise"",""darkgreenblue"",""low nameability""]","right-left","[""darkgreenblue"",""turquoise""]","5","low nameability","47","right","response","1"
"html-audio-button-response","223","789959","0.0-172.0-1.0","CAN_146","146","","","","","","null","stimuli/bleep.m4a","null","turquoise","darkgreenblue","[""turquoise"",""darkgreenblue"",""low nameability""]","right-left","[""darkgreenblue"",""turquoise""]","5","low nameability","47","right","audio_feedback","1"
"html-button-response","224","790473","0.0-173.0","CAN_146","146","","","","","","null","<button class=""jspsych-btn""><img src=""stimuli/white_square.png"" style=""width: 200px;height: 200px;""></button>","null","turquoise","darkgreenblue","[""turquoise"",""darkgreenblue"",""low nameability""]","right-left","[""darkgreenblue"",""turquoise""]","5","low nameability","47","right","iti",""
"html-button-response","225","791051","0.0-174.0","CAN_146","146","","","","","","565","","0","neonyellow","mustard","[""neonyellow"",""mustard"",""low nameability""]","left-right","[""neonyellow"",""mustard"",""low nameability""]","5","low nameability","48","left","trigger",""
"html-button-response","226","791822","0.0-175.0-0.0","CAN_146","146","","","","","","764","<button class=""jspsych-btn""><img src=""stimuli/neonyellow.png"" style=""width: 200px;height: 200px;""></button>","0","neonyellow","mustard","[""neonyellow"",""mustard"",""low nameability""]","left-right","[""neonyellow"",""mustard"",""low nameability""]","5","low nameability","48","left","response","1"
"html-audio-button-response","227","792026","0.0-175.0-1.0","CAN_146","146","","","","","","null","stimuli/bleep.m4a","null","neonyellow","mustard","[""neonyellow"",""mustard"",""low nameability""]","left-right","[""neonyellow"",""mustard"",""low nameability""]","5","low nameability","48","left","audio_feedback","1"
"html-button-response","228","792544","0.0-176.0","CAN_146","146","","","","","","null","<button class=""jspsych-btn""><img src=""stimuli/white_square.png"" style=""width: 200px;height: 200px;""></button>","null","neonyellow","mustard","[""neonyellow"",""mustard"",""low nameability""]","left-right","[""neonyellow"",""mustard"",""low nameability""]","5","low nameability","48","left","iti",""
"html-button-response","229","793276","0.0-177.0","CAN_146","146","","","","","","715","","0","purple","brown","[""purple"",""brown"",""high nameability""]","right-left","[""brown"",""purple""]","5","high nameability","49","right","trigger",""
"html-button-response","230","793948","0.0-178.0-0.0","CAN_146","146","","","","","","663","<button class=""jspsych-btn""><img src=""stimuli/purple.png"" style=""width: 200px;height: 200px;""></button>","1","purple","brown","[""purple"",""brown"",""high nameability""]","right-left","[""brown"",""purple""]","5","high nameability","49","right","response","1"
"html-audio-button-response","231","794149","0.0-178.0-1.0","CAN_146","146","","","","","","null","stimuli/bleep.m4a","null","purple","brown","[""purple"",""brown"",""high nameability""]","right-left","[""brown"",""purple""]","5","high nameability","49","right","audio_feedback","1"
"html-button-response","232","794667","0.0-179.0","CAN_146","146","","","","","","null","<button class=""jspsych-btn""><img src=""stimuli/white_square.png"" style=""width: 200px;height: 200px;""></button>","null","purple","brown","[""purple"",""brown"",""high nameability""]","right-left","[""brown"",""purple""]","5","high nameability","49","right","iti",""
"html-button-response","233","795398","0.0-180.0","CAN_146","146","","","","","","710","","0","mustard","pink","[""mustard"",""pink"",""low nameability""]","left-right","[""mustard"",""pink"",""low nameability""]","5","low nameability","50","left","trigger",""
"html-button-response","234","796088","0.0-181.0-0.0","CAN_146","146","","","","","","681","<button class=""jspsych-btn""><img src=""stimuli/mustard.png"" style=""width: 200px;height: 200px;""></button>","0","mustard","pink","[""mustard"",""pink"",""low nameability""]","left-right","[""mustard"",""pink"",""low nameability""]","5","low nameability","50","left","response","1"
"html-audio-button-response","235","796290","0.0-181.0-1.0","CAN_146","146","","","","","","null","stimuli/bleep.m4a","null","mustard","pink","[""mustard"",""pink"",""low nameability""]","left-right","[""mustard"",""pink"",""low nameability""]","5","low nameability","50","left","audio_feedback","1"
"html-button-response","236","796810","0.0-182.0","CAN_146","146","","","","","","null","<button class=""jspsych-btn""><img src=""stimuli/white_square.png"" style=""width: 200px;height: 200px;""></button>","null","mustard","pink","[""mustard"",""pink"",""low nameability""]","left-right","[""mustard"",""pink"",""low nameability""]","5","low nameability","50","left","iti",""
"pavlovia","237","796857","0.0-183.0","CAN_146","146","","","","","","","","","","","","","","","","","","",""
"pavlovia","238","796864","0.0-184.0","CAN_146","146","","","","","","","","","","","","","","","","","","",""
"html-audio-button-response","239","798636","0.0-185.0","CAN_146","146","","","","","","1829","stimuli/tada.m4a","0","","","","","","","","","","",""
"html-button-response","240","799373","0.0-186.0","CAN_146","146","","","","","","731","","0","","","","","","","","","","",""
"html-button-response","241","800072","0.0-187.0","CAN_146","146","","","","","","693","","0","darkgreenblue","turquoise","[""darkgreenblue"",""turquoise"",""low nameability""]","right-left","[""turquoise"",""darkgreenblue""]","6","low nameability","51","right","trigger",""
"html-button-response","242","800800","0.0-188.0-0.0","CAN_146","146","","","","","","721","<button class=""jspsych-btn""><img src=""stimuli/darkgreenblue.png"" style=""width: 200px;height: 200px;""></button>","1","darkgreenblue","turquoise","[""darkgreenblue"",""turquoise"",""low nameability""]","right-left","[""turquoise"",""darkgreenblue""]","6","low nameability","51","right","response","1"
"html-audio-button-response","243","801001","0.0-188.0-1.0","CAN_146","146","","","","","","null","stimuli/bleep.m4a","null","darkgreenblue","turquoise","[""darkgreenblue"",""turquoise"",""low nameability""]","right-left","[""turquoise"",""darkgreenblue""]","6","low nameability","51","right","audio_feedback","1"
"html-button-response","244","801519","0.0-189.0","CAN_146","146","","","","","","null","<button class=""jspsych-btn""><img src=""stimuli/white_square.png"" style=""width: 200px;height: 200px;""></button>","null","darkgreenblue","turquoise","[""darkgreenblue"",""turquoise"",""low nameability""]","right-left","[""turquoise"",""darkgreenblue""]","6","low nameability","51","right","iti",""
"html-button-response","245","802193","0.0-190.0","CAN_146","146","","","","","","654","","0","neonyellow","darkgreenblue","[""neonyellow"",""darkgreenblue"",""low nameability""]","right-left","[""darkgreenblue"",""neonyellow""]","6","low nameability","52","right","trigger",""
"html-button-response","246","802949","0.0-191.0-0.0","CAN_146","146","","","","","","749","<button class=""jspsych-btn""><img src=""stimuli/neonyellow.png"" style=""width: 200px;height: 200px;""></button>","1","neonyellow","darkgreenblue","[""neonyellow"",""darkgreenblue"",""low nameability""]","right-left","[""darkgreenblue"",""neonyellow""]","6","low nameability","52","right","response","1"
"html-audio-button-response","247","803150","0.0-191.0-1.0","CAN_146","146","","","","","","null","stimuli/bleep.m4a","null","neonyellow","darkgreenblue","[""neonyellow"",""darkgreenblue"",""low nameability""]","right-left","[""darkgreenblue"",""neonyellow""]","6","low nameability","52","right","audio_feedback","1"
"html-button-response","248","803671","0.0-192.0","CAN_146","146","","","","","","null","<button class=""jspsych-btn""><img src=""stimuli/white_square.png"" style=""width: 200px;height: 200px;""></button>","null","neonyellow","darkgreenblue","[""neonyellow"",""darkgreenblue"",""low nameability""]","right-left","[""darkgreenblue"",""neonyellow""]","6","low nameability","52","right","iti",""
"html-button-response","249","804458","0.0-193.0","CAN_146","146","","","","","","766","","0","darkgreenblue","mustard","[""darkgreenblue"",""mustard"",""low nameability""]","right-left","[""mustard"",""darkgreenblue""]","6","low nameability","53","right","trigger",""
"html-button-response","250","805165","0.0-194.0-0.0","CAN_146","146","","","","","","698","<button class=""jspsych-btn""><img src=""stimuli/darkgreenblue.png"" style=""width: 200px;height: 200px;""></button>","1","darkgreenblue","mustard","[""darkgreenblue"",""mustard"",""low nameability""]","right-left","[""mustard"",""darkgreenblue""]","6","low nameability","53","right","response","1"
"html-audio-button-response","251","805368","0.0-194.0-1.0","CAN_146","146","","","","","","null","stimuli/bleep.m4a","null","darkgreenblue","mustard","[""darkgreenblue"",""mustard"",""low nameability""]","right-left","[""mustard"",""darkgreenblue""]","6","low nameability","53","right","audio_feedback","1"
"html-button-response","252","805886","0.0-195.0","CAN_146","146","","","","","","null","<button class=""jspsych-btn""><img src=""stimuli/white_square.png"" style=""width: 200px;height: 200px;""></button>","null","darkgreenblue","mustard","[""darkgreenblue"",""mustard"",""low nameability""]","right-left","[""mustard"",""darkgreenblue""]","6","low nameability","53","right","iti",""
"html-button-response","253","806521","0.0-196.0","CAN_146","146","","","","","","617","","0","orange","yellow","[""orange"",""yellow"",""high nameability""]","right-left","[""yellow"",""orange""]","6","high nameability","54","right","trigger",""
"html-button-response","254","807324","0.0-197.0-0.0","CAN_146","146","","","","","","795","<button class=""jspsych-btn""><img src=""stimuli/orange.png"" style=""width: 200px;height: 200px;""></button>","1","orange","yellow","[""orange"",""yellow"",""high nameability""]","right-left","[""yellow"",""orange""]","6","high nameability","54","right","response","1"
"html-audio-button-response","255","807530","0.0-197.0-1.0","CAN_146","146","","","","","","null","stimuli/bleep.m4a","null","orange","yellow","[""orange"",""yellow"",""high nameability""]","right-left","[""yellow"",""orange""]","6","high nameability","54","right","audio_feedback","1"
"html-button-response","256","808047","0.0-198.0","CAN_146","146","","","","","","null","<button class=""jspsych-btn""><img src=""stimuli/white_square.png"" style=""width: 200px;height: 200px;""></button>","null","orange","yellow","[""orange"",""yellow"",""high nameability""]","right-left","[""yellow"",""orange""]","6","high nameability","54","right","iti",""
"html-button-response","257","808675","0.0-199.0","CAN_146","146","","","","","","612","","0","neonyellow","turquoise","[""neonyellow"",""turquoise"",""low nameability""]","left-right","[""neonyellow"",""turquoise"",""low nameability""]","6","low nameability","55","left","trigger",""
"html-button-response","258","809460","0.0-200.0-0.0","CAN_146","146","","","","","","776","<button class=""jspsych-btn""><img src=""stimuli/neonyellow.png"" style=""width: 200px;height: 200px;""></button>","0","neonyellow","turquoise","[""neonyellow"",""turquoise"",""low nameability""]","left-right","[""neonyellow"",""turquoise"",""low nameability""]","6","low nameability","55","left","response","1"
"html-audio-button-response","259","809667","0.0-200.0-1.0","CAN_146","146","","","","","","null","stimuli/bleep.m4a","null","neonyellow","turquoise","[""neonyellow"",""turquoise"",""low nameability""]","left-right","[""neonyellow"",""turquoise"",""low nameability""]","6","low nameability","55","left","audio_feedback","1"
"html-button-response","260","810183","0.0-201.0","CAN_146","146","","","","","","null","<button class=""jspsych-btn""><img src=""stimuli/white_square.png"" style=""width: 200px;height: 200px;""></button>","null","neonyellow","turquoise","[""neonyellow"",""turquoise"",""low nameability""]","left-right","[""neonyellow"",""turquoise"",""low nameability""]","6","low nameability","55","left","iti",""
"html-button-response","261","810879","0.0-202.0","CAN_146","146","","","","","","671","","0","mustard","neonyellow","[""mustard"",""neonyellow"",""low nameability""]","right-left","[""neonyellow"",""mustard""]","6","low nameability","56","right","trigger",""
"html-button-response","262","811735","0.0-203.0-0.0","CAN_146","146","","","","","","846","<button class=""jspsych-btn""><img src=""stimuli/mustard.png"" style=""width: 200px;height: 200px;""></button>","1","mustard","neonyellow","[""mustard"",""neonyellow"",""low nameability""]","right-left","[""neonyellow"",""mustard""]","6","low nameability","56","right","response","1"
"html-audio-button-response","263","811937","0.0-203.0-1.0","CAN_146","146","","","","","","null","stimuli/bleep.m4a","null","mustard","neonyellow","[""mustard"",""neonyellow"",""low nameability""]","right-left","[""neonyellow"",""mustard""]","6","low nameability","56","right","audio_feedback","1"
"html-button-response","264","812455","0.0-204.0","CAN_146","146","","","","","","null","<button class=""jspsych-btn""><img src=""stimuli/white_square.png"" style=""width: 200px;height: 200px;""></button>","null","mustard","neonyellow","[""mustard"",""neonyellow"",""low nameability""]","right-left","[""neonyellow"",""mustard""]","6","low nameability","56","right","iti",""
"html-button-response","265","812989","0.0-205.0","CAN_146","146","","","","","","518","","0","brown","blue","[""brown"",""blue"",""high nameability""]","right-left","[""blue"",""brown""]","6","high nameability","57","right","trigger",""
"html-button-response","266","813772","0.0-206.0-0.0","CAN_146","146","","","","","","777","<button class=""jspsych-btn""><img src=""stimuli/brown.png"" style=""width: 200px;height: 200px;""></button>","1","brown","blue","[""brown"",""blue"",""high nameability""]","right-left","[""blue"",""brown""]","6","high nameability","57","right","response","1"
"html-audio-button-response","267","813972","0.0-206.0-1.0","CAN_146","146","","","","","","null","stimuli/bleep.m4a","null","brown","blue","[""brown"",""blue"",""high nameability""]","right-left","[""blue"",""brown""]","6","high nameability","57","right","audio_feedback","1"
"html-button-response","268","814484","0.0-207.0","CAN_146","146","","","","","","null","<button class=""jspsych-btn""><img src=""stimuli/white_square.png"" style=""width: 200px;height: 200px;""></button>","null","brown","blue","[""brown"",""blue"",""high nameability""]","right-left","[""blue"",""brown""]","6","high nameability","57","right","iti",""
"html-button-response","269","815127","0.0-208.0","CAN_146","146","","","","","","622","","0","turquoise","pink","[""turquoise"",""pink"",""low nameability""]","left-right","[""turquoise"",""pink"",""low nameability""]","6","low nameability","58","left","trigger",""
"html-button-response","270","815950","0.0-209.0-0.0","CAN_146","146","","","","","","816","<button class=""jspsych-btn""><img src=""stimuli/turquoise.png"" style=""width: 200px;height: 200px;""></button>","0","turquoise","pink","[""turquoise"",""pink"",""low nameability""]","left-right","[""turquoise"",""pink"",""low nameability""]","6","low nameability","58","left","response","1"
"html-audio-button-response","271","816154","0.0-209.0-1.0","CAN_146","146","","","","","","null","stimuli/bleep.m4a","null","turquoise","pink","[""turquoise"",""pink"",""low nameability""]","left-right","[""turquoise"",""pink"",""low nameability""]","6","low nameability","58","left","audio_feedback","1"
"html-button-response","272","816670","0.0-210.0","CAN_146","146","","","","","","null","<button class=""jspsych-btn""><img src=""stimuli/white_square.png"" style=""width: 200px;height: 200px;""></button>","null","turquoise","pink","[""turquoise"",""pink"",""low nameability""]","left-right","[""turquoise"",""pink"",""low nameability""]","6","low nameability","58","left","iti",""
"html-button-response","273","817303","0.0-211.0","CAN_146","146","","","","","","610","","0","blue","red","[""blue"",""red"",""high nameability""]","left-right","[""blue"",""red"",""high nameability""]","6","high nameability","59","left","trigger",""
"html-button-response","274","818052","0.0-212.0-0.0","CAN_146","146","","","","","","741","<button class=""jspsych-btn""><img src=""stimuli/blue.png"" style=""width: 200px;height: 200px;""></button>","0","blue","red","[""blue"",""red"",""high nameability""]","left-right","[""blue"",""red"",""high nameability""]","6","high nameability","59","left","response","1"
"html-audio-button-response","275","818260","0.0-212.0-1.0","CAN_146","146","","","","","","null","stimuli/bleep.m4a","null","blue","red","[""blue"",""red"",""high nameability""]","left-right","[""blue"",""red"",""high nameability""]","6","high nameability","59","left","audio_feedback","1"
"html-button-response","276","818782","0.0-213.0","CAN_146","146","","","","","","null","<button class=""jspsych-btn""><img src=""stimuli/white_square.png"" style=""width: 200px;height: 200px;""></button>","null","blue","red","[""blue"",""red"",""high nameability""]","left-right","[""blue"",""red"",""high nameability""]","6","high nameability","59","left","iti",""
"html-button-response","277","819340","0.0-214.0","CAN_146","146","","","","","","540","","0","lightred","pink","[""lightred"",""pink"",""low nameability""]","right-left","[""pink"",""lightred""]","6","low nameability","60","right","trigger",""
"html-button-response","278","820183","0.0-215.0-0.0","CAN_146","146","","","","","","836","<button class=""jspsych-btn""><img src=""stimuli/lightred.png"" style=""width: 200px;height: 200px;""></button>","1","lightred","pink","[""lightred"",""pink"",""low nameability""]","right-left","[""pink"",""lightred""]","6","low nameability","60","right","response","1"
"html-audio-button-response","279","820386","0.0-215.0-1.0","CAN_146","146","","","","","","null","stimuli/bleep.m4a","null","lightred","pink","[""lightred"",""pink"",""low nameability""]","right-left","[""pink"",""lightred""]","6","low nameability","60","right","audio_feedback","1"
"html-button-response","280","820908","0.0-216.0","CAN_146","146","","","","","","null","<button class=""jspsych-btn""><img src=""stimuli/white_square.png"" style=""width: 200px;height: 200px;""></button>","null","lightred","pink","[""lightred"",""pink"",""low nameability""]","right-left","[""pink"",""lightred""]","6","low nameability","60","right","iti",""
