"trial_type","trial_index","time_elapsed","internal_node_id","subject_id","seed","success","timeout","failed_images","failed_audio","failed_video","rt","stimulus","response","target","foil","choices","combination_order","choices_in_order","round","condition","trial_counter","target_location","trial_kind","correct"
"pavlovia","0","23","0.0-0.0","CAN_105","105","","","","","","","","","","","","","","","","","","",""
"preload","1","827","0.0-1.0","CAN_105","105","true","false","[]","[]","[]","","","","","","","","","","","","","",""
"fullscreen","2","110911","0.0-2.0","CAN_105","105","true","","","","","","","","","","","","","","","","","",""
"html-button-response","3","147898","0.0-3.0","CAN_105","105","","","","","","36961","","0","","","","","","","","","","",""
"html-button-response","4","151967","0.0-4.0","CAN_105","105","","","","","","4051","","0","star","square","[""square"",""star""]","left-right","[""square"",""star""]","1","practice","1","right","trigger",""
"html-button-response","5","155758","0.0-5.0-0.0","CAN_105","105","","","","","","3776","<button class=""jspsych-btn""><img src=""stimuli/star.png"" style=""width: 200px;height: 200px;""></button>","1","star","square","[""square"",""star""]","left-right","[""square"",""star""]","1","practice","1","right","response","1"
"html-audio-button-response","6","155972","0.0-5.0-1.0","CAN_105","105","","","","","","null","stimuli/bleep.m4a","null","star","square","[""square"",""star""]","left-right","[""square"",""star""]","1","practice","1","right","audio_feedback","1"
"html-button-response","7","156518","0.0-6.0","CAN_105","105","","","","","","null","<button class=""jspsych-btn""><img src=""stimuli/white_square.png"" style=""width: 200px;height: 200px;""></button>","null","star","square","[""square"",""star""]","left-right","[""square"",""star""]","1","practice","1","right","iti",""
"html-button-response","8","159759","0.0-7.0","CAN_105","105","","","","","","3221","","0","triangle","pentagram","[""triangle"",""pentagram""]","left-right","[""triangle"",""pentagram""]","1","practice","1","left","trigger",""
"html-button-response","9","161157","0.0-8.0-0.0","CAN_105","105","","","","","","1390","<button class=""jspsych-btn""><img src=""stimuli/triangle.png"" style=""width: 200px;height: 200px;""></button>","0","triangle","pentagram","[""triangle"",""pentagram""]","left-right","[""triangle"",""pentagram""]","1","practice","1","left","response","1"
"html-audio-button-response","10","161368","0.0-8.0-1.0","CAN_105","105","","","","","","null","stimuli/bleep.m4a","null","triangle","pentagram","[""triangle"",""pentagram""]","left-right","[""triangle"",""pentagram""]","1","practice","1","left","audio_feedback","1"
"html-button-response","11","161895","0.0-9.0","CAN_105","105","","","","","","null","<button class=""jspsych-btn""><img src=""stimuli/white_square.png"" style=""width: 200px;height: 200px;""></button>","null","triangle","pentagram","[""triangle"",""pentagram""]","left-right","[""triangle"",""pentagram""]","1","practice","1","left","iti",""
"html-button-response","12","162490","0.0-10.0","CAN_105","105","","","","","","575","","0","diamond","rectangle","[""rectangle"",""diamond""]","left-right","[""rectangle"",""diamond""]","1","practice","1","right","trigger",""
"html-button-response","13","163231","0.0-11.0-0.0","CAN_105","105","","","","","","733","<button class=""jspsych-btn""><img src=""stimuli/diamond.png"" style=""width: 200px;height: 200px;""></button>","1","diamond","rectangle","[""rectangle"",""diamond""]","left-right","[""rectangle"",""diamond""]","1","practice","1","right","response","1"
"html-audio-button-response","14","163439","0.0-11.0-1.0","CAN_105","105","","","","","","null","stimuli/bleep.m4a","null","diamond","rectangle","[""rectangle"",""diamond""]","left-right","[""rectangle"",""diamond""]","1","practice","1","right","audio_feedback","1"
"html-button-response","15","163960","0.0-12.0","CAN_105","105","","","","","","null","<button class=""jspsych-btn""><img src=""stimuli/white_square.png"" style=""width: 200px;height: 200px;""></button>","null","diamond","rectangle","[""rectangle"",""diamond""]","left-right","[""rectangle"",""diamond""]","1","practice","1","right","iti",""
"html-button-response","16","164378","0.0-13.0","CAN_105","105","","","","","","405","","0","pentagram","star","[""pentagram"",""star""]","left-right","[""pentagram"",""star""]","1","practice","1","left","trigger",""
"html-button-response","17","165174","0.0-14.0-0.0","CAN_105","105","","","","","","787","<button class=""jspsych-btn""><img src=""stimuli/pentagram.png"" style=""width: 200px;height: 200px;""></button>","0","pentagram","star","[""pentagram"",""star""]","left-right","[""pentagram"",""star""]","1","practice","1","left","response","1"
"html-audio-button-response","18","165379","0.0-14.0-1.0","CAN_105","105","","","","","","null","stimuli/bleep.m4a","null","pentagram","star","[""pentagram"",""star""]","left-right","[""pentagram"",""star""]","1","practice","1","left","audio_feedback","1"
"html-button-response","19","165900","0.0-15.0","CAN_105","105","","","","","","null","<button class=""jspsych-btn""><img src=""stimuli/white_square.png"" style=""width: 200px;height: 200px;""></button>","null","pentagram","star","[""pentagram"",""star""]","left-right","[""pentagram"",""star""]","1","practice","1","left","iti",""
"html-button-response","20","171648","0.0-16.0","CAN_105","105","","","","","","5725","","0","","","","","","","","","","",""
"html-button-response","21","172332","0.0-17.0","CAN_105","105","","","","","","673","","0","turquoise","lightred","[""turquoise"",""lightred"",""low nameability""]","left-right","[""turquoise"",""lightred"",""low nameability""]","1","low nameability","1","left","trigger",""
"html-button-response","22","173052","0.0-18.0-0.0","CAN_105","105","","","","","","707","<button class=""jspsych-btn""><img src=""stimuli/turquoise.png"" style=""width: 200px;height: 200px;""></button>","0","turquoise","lightred","[""turquoise"",""lightred"",""low nameability""]","left-right","[""turquoise"",""lightred"",""low nameability""]","1","low nameability","1","left","response","1"
"html-audio-button-response","23","173256","0.0-18.0-1.0","CAN_105","105","","","","","","null","stimuli/bleep.m4a","null","turquoise","lightred","[""turquoise"",""lightred"",""low nameability""]","left-right","[""turquoise"",""lightred"",""low nameability""]","1","low nameability","1","left","audio_feedback","1"
"html-button-response","24","173779","0.0-19.0","CAN_105","105","","","","","","null","<button class=""jspsych-btn""><img src=""stimuli/white_square.png"" style=""width: 200px;height: 200px;""></button>","null","turquoise","lightred","[""turquoise"",""lightred"",""low nameability""]","left-right","[""turquoise"",""lightred"",""low nameability""]","1","low nameability","1","left","iti",""
"html-button-response","25","174225","0.0-20.0","CAN_105","105","","","","","","429","","0","turquoise","neonyellow","[""turquoise"",""neonyellow"",""low nameability""]","right-left","[""neonyellow"",""turquoise""]","1","low nameability","2","right","trigger",""
"html-button-response","26","175075","0.0-21.0-0.0","CAN_105","105","","","","","","842","<button class=""jspsych-btn""><img src=""stimuli/turquoise.png"" style=""width: 200px;height: 200px;""></button>","1","turquoise","neonyellow","[""turquoise"",""neonyellow"",""low nameability""]","right-left","[""neonyellow"",""turquoise""]","1","low nameability","2","right","response","1"
"html-audio-button-response","27","175279","0.0-21.0-1.0","CAN_105","105","","","","","","null","stimuli/bleep.m4a","null","turquoise","neonyellow","[""turquoise"",""neonyellow"",""low nameability""]","right-left","[""neonyellow"",""turquoise""]","1","low nameability","2","right","audio_feedback","1"
"html-button-response","28","175803","0.0-22.0","CAN_105","105","","","","","","null","<button class=""jspsych-btn""><img src=""stimuli/white_square.png"" style=""width: 200px;height: 200px;""></button>","null","turquoise","neonyellow","[""turquoise"",""neonyellow"",""low nameability""]","right-left","[""neonyellow"",""turquoise""]","1","low nameability","2","right","iti",""
"html-button-response","29","176378","0.0-23.0","CAN_105","105","","","","","","555","","0","brown","red","[""brown"",""red"",""high nameability""]","left-right","[""brown"",""red"",""high nameability""]","1","high nameability","3","left","trigger",""
"html-button-response","30","177080","0.0-24.0-0.0","CAN_105","105","","","","","","696","<button class=""jspsych-btn""><img src=""stimuli/brown.png"" style=""width: 200px;height: 200px;""></button>","0","brown","red","[""brown"",""red"",""high nameability""]","left-right","[""brown"",""red"",""high nameability""]","1","high nameability","3","left","response","1"
"html-audio-button-response","31","177289","0.0-24.0-1.0","CAN_105","105","","","","","","null","stimuli/bleep.m4a","null","brown","red","[""brown"",""red"",""high nameability""]","left-right","[""brown"",""red"",""high nameability""]","1","high nameability","3","left","audio_feedback","1"
"html-button-response","32","177809","0.0-25.0","CAN_105","105","","","","","","null","<button class=""jspsych-btn""><img src=""stimuli/white_square.png"" style=""width: 200px;height: 200px;""></button>","null","brown","red","[""brown"",""red"",""high nameability""]","left-right","[""brown"",""red"",""high nameability""]","1","high nameability","3","left","iti",""
"html-button-response","33","178351","0.0-26.0","CAN_105","105","","","","","","516","","0","lightred","darkgreenblue","[""lightred"",""darkgreenblue"",""low nameability""]","right-left","[""darkgreenblue"",""lightred""]","1","low nameability","4","right","trigger",""
"html-button-response","34","179189","0.0-27.0-0.0","CAN_105","105","","","","","","830","<button class=""jspsych-btn""><img src=""stimuli/lightred.png"" style=""width: 200px;height: 200px;""></button>","1","lightred","darkgreenblue","[""lightred"",""darkgreenblue"",""low nameability""]","right-left","[""darkgreenblue"",""lightred""]","1","low nameability","4","right","response","1"
"html-audio-button-response","35","179397","0.0-27.0-1.0","CAN_105","105","","","","","","null","stimuli/bleep.m4a","null","lightred","darkgreenblue","[""lightred"",""darkgreenblue"",""low nameability""]","right-left","[""darkgreenblue"",""lightred""]","1","low nameability","4","right","audio_feedback","1"
"html-button-response","36","179921","0.0-28.0","CAN_105","105","","","","","","null","<button class=""jspsych-btn""><img src=""stimuli/white_square.png"" style=""width: 200px;height: 200px;""></button>","null","lightred","darkgreenblue","[""lightred"",""darkgreenblue"",""low nameability""]","right-left","[""darkgreenblue"",""lightred""]","1","low nameability","4","right","iti",""
"html-button-response","37","180396","0.0-29.0","CAN_105","105","","","","","","456","","0","orange","blue","[""orange"",""blue"",""high nameability""]","left-right","[""orange"",""blue"",""high nameability""]","1","high nameability","5","left","trigger",""
"html-button-response","38","181087","0.0-30.0-0.0","CAN_105","105","","","","","","683","<button class=""jspsych-btn""><img src=""stimuli/orange.png"" style=""width: 200px;height: 200px;""></button>","0","orange","blue","[""orange"",""blue"",""high nameability""]","left-right","[""orange"",""blue"",""high nameability""]","1","high nameability","5","left","response","1"
"html-audio-button-response","39","181295","0.0-30.0-1.0","CAN_105","105","","","","","","null","stimuli/bleep.m4a","null","orange","blue","[""orange"",""blue"",""high nameability""]","left-right","[""orange"",""blue"",""high nameability""]","1","high nameability","5","left","audio_feedback","1"
"html-button-response","40","181815","0.0-31.0","CAN_105","105","","","","","","null","<button class=""jspsych-btn""><img src=""stimuli/white_square.png"" style=""width: 200px;height: 200px;""></button>","null","orange","blue","[""orange"",""blue"",""high nameability""]","left-right","[""orange"",""blue"",""high nameability""]","1","high nameability","5","left","iti",""
"html-button-response","41","182379","0.0-32.0","CAN_105","105","","","","","","541","","0","orange","red","[""orange"",""red"",""high nameability""]","right-left","[""red"",""orange""]","1","high nameability","6","right","trigger",""
"html-button-response","42","183121","0.0-33.0-0.0","CAN_105","105","","","","","","735","<button class=""jspsych-btn""><img src=""stimuli/orange.png"" style=""width: 200px;height: 200px;""></button>","1","orange","red","[""orange"",""red"",""high nameability""]","right-left","[""red"",""orange""]","1","high nameability","6","right","response","1"
"html-audio-button-response","43","183323","0.0-33.0-1.0","CAN_105","105","","","","","","null","stimuli/bleep.m4a","null","orange","red","[""orange"",""red"",""high nameability""]","right-left","[""red"",""orange""]","1","high nameability","6","right","audio_feedback","1"
"html-button-response","44","183843","0.0-34.0","CAN_105","105","","","","","","null","<button class=""jspsych-btn""><img src=""stimuli/white_square.png"" style=""width: 200px;height: 200px;""></button>","null","orange","red","[""orange"",""red"",""high nameability""]","right-left","[""red"",""orange""]","1","high nameability","6","right","iti",""
"html-button-response","45","184323","0.0-35.0","CAN_105","105","","","","","","461","","0","blue","brown","[""blue"",""brown"",""high nameability""]","left-right","[""blue"",""brown"",""high nameability""]","1","high nameability","7","left","trigger",""
"html-button-response","46","184930","0.0-36.0-0.0","CAN_105","105","","","","","","599","<button class=""jspsych-btn""><img src=""stimuli/blue.png"" style=""width: 200px;height: 200px;""></button>","0","blue","brown","[""blue"",""brown"",""high nameability""]","left-right","[""blue"",""brown"",""high nameability""]","1","high nameability","7","left","response","1"
"html-audio-button-response","47","185140","0.0-36.0-1.0","CAN_105","105","","","","","","null","stimuli/bleep.m4a","null","blue","brown","[""blue"",""brown"",""high nameability""]","left-right","[""blue"",""brown"",""high nameability""]","1","high nameability","7","left","audio_feedback","1"
"html-button-response","48","185660","0.0-37.0","CAN_105","105","","","","","","null","<button class=""jspsych-btn""><img src=""stimuli/white_square.png"" style=""width: 200px;height: 200px;""></button>","null","blue","brown","[""blue"",""brown"",""high nameability""]","left-right","[""blue"",""brown"",""high nameability""]","1","high nameability","7","left","iti",""
"html-button-response","49","186175","0.0-38.0","CAN_105","105","","","","","","497","","0","lightred","turquoise","[""lightred"",""turquoise"",""low nameability""]","right-left","[""turquoise"",""lightred""]","1","low nameability","8","right","trigger",""
"html-button-response","50","186880","0.0-39.0-0.0","CAN_105","105","","","","","","698","<button class=""jspsych-btn""><img src=""stimuli/lightred.png"" style=""width: 200px;height: 200px;""></button>","1","lightred","turquoise","[""lightred"",""turquoise"",""low nameability""]","right-left","[""turquoise"",""lightred""]","1","low nameability","8","right","response","1"
"html-audio-button-response","51","187084","0.0-39.0-1.0","CAN_105","105","","","","","","null","stimuli/bleep.m4a","null","lightred","turquoise","[""lightred"",""turquoise"",""low nameability""]","right-left","[""turquoise"",""lightred""]","1","low nameability","8","right","audio_feedback","1"
"html-button-response","52","187604","0.0-40.0","CAN_105","105","","","","","","null","<button class=""jspsych-btn""><img src=""stimuli/white_square.png"" style=""width: 200px;height: 200px;""></button>","null","lightred","turquoise","[""lightred"",""turquoise"",""low nameability""]","right-left","[""turquoise"",""lightred""]","1","low nameability","8","right","iti",""
"html-button-response","53","188095","0.0-41.0","CAN_105","105","","","","","","466","","0","neonyellow","darkgreenblue","[""neonyellow"",""darkgreenblue"",""low nameability""]","left-right","[""neonyellow"",""darkgreenblue"",""low nameability""]","1","low nameability","9","left","trigger",""
"html-button-response","54","188729","0.0-42.0-0.0","CAN_105","105","","","","","","623","<button class=""jspsych-btn""><img src=""stimuli/neonyellow.png"" style=""width: 200px;height: 200px;""></button>","0","neonyellow","darkgreenblue","[""neonyellow"",""darkgreenblue"",""low nameability""]","left-right","[""neonyellow"",""darkgreenblue"",""low nameability""]","1","low nameability","9","left","response","1"
"html-audio-button-response","55","188934","0.0-42.0-1.0","CAN_105","105","","","","","","null","stimuli/bleep.m4a","null","neonyellow","darkgreenblue","[""neonyellow"",""darkgreenblue"",""low nameability""]","left-right","[""neonyellow"",""darkgreenblue"",""low nameability""]","1","low nameability","9","left","audio_feedback","1"
"html-button-response","56","189458","0.0-43.0","CAN_105","105","","","","","","null","<button class=""jspsych-btn""><img src=""stimuli/white_square.png"" style=""width: 200px;height: 200px;""></button>","null","neonyellow","darkgreenblue","[""neonyellow"",""darkgreenblue"",""low nameability""]","left-right","[""neonyellow"",""darkgreenblue"",""low nameability""]","1","low nameability","9","left","iti",""
"html-button-response","57","189991","0.0-44.0","CAN_105","105","","","","","","517","","0","neonyellow","mustard","[""neonyellow"",""mustard"",""low nameability""]","left-right","[""neonyellow"",""mustard"",""low nameability""]","1","low nameability","10","left","trigger",""
"html-button-response","58","190691","0.0-45.0-0.0","CAN_105","105","","","","","","692","<button class=""jspsych-btn""><img src=""stimuli/neonyellow.png"" style=""width: 200px;height: 200px;""></button>","0","neonyellow","mustard","[""neonyellow"",""mustard"",""low nameability""]","left-right","[""neonyellow"",""mustard"",""low nameability""]","1","low nameability","10","left","response","1"
"html-audio-button-response","59","190897","0.0-45.0-1.0","CAN_105","105","","","","","","null","stimuli/bleep.m4a","null","neonyellow","mustard","[""neonyellow"",""mustard"",""low nameability""]","left-right","[""neonyellow"",""mustard"",""low nameability""]","1","low nameability","10","left","audio_feedback","1"
"html-button-response","60","191418","0.0-46.0","CAN_105","105","","","","","","null","<button class=""jspsych-btn""><img src=""stimuli/white_square.png"" style=""width: 200px;height: 200px;""></button>","null","neonyellow","mustard","[""neonyellow"",""mustard"",""low nameability""]","left-right","[""neonyellow"",""mustard"",""low nameability""]","1","low nameability","10","left","iti",""
"pavlovia","61","191535","0.0-47.0","CAN_105","105","","","","","","","","","","","","","","","","","","",""
"pavlovia","62","191553","0.0-48.0","CAN_105","105","","","","","","","","","","","","","","","","","","",""
"html-audio-button-response","63","194289","0.0-49.0","CAN_105","105","","","","","","2877","stimuli/tada.m4a","0","","","","","","","","","","",""
"html-button-response","64","195003","0.0-50.0","CAN_105","105","","","","","","707","","0","","","","","","","","","","",""
"html-button-response","65","195632","0.0-51.0","CAN_105","105","","","","","","623","","0","turquoise","pink","[""turquoise"",""pink"",""low nameability""]","right-left","[""pink"",""turquoise""]","2","low nameability","11","right","trigger",""
"html-button-response","66","196302","0.0-52.0-0.0","CAN_105","105","","","","","","663","<button class=""jspsych-btn""><img src=""stimuli/turquoise.png"" style=""width: 200px;height: 200px;""></button>","1","turquoise","pink","[""turquoise"",""pink"",""low nameability""]","right-left","[""pink"",""turquoise""]","2","low nameability","11","right","response","1"
"html-audio-button-response","67","196502","0.0-52.0-1.0","CAN_105","105","","","","","","null","stimuli/bleep.m4a","null","turquoise","pink","[""turquoise"",""pink"",""low nameability""]","right-left","[""pink"",""turquoise""]","2","low nameability","11","right","audio_feedback","1"
"html-button-response","68","197024","0.0-53.0","CAN_105","105","","","","","","null","<button class=""jspsych-btn""><img src=""stimuli/white_square.png"" style=""width: 200px;height: 200px;""></button>","null","turquoise","pink","[""turquoise"",""pink"",""low nameability""]","right-left","[""pink"",""turquoise""]","2","low nameability","11","right","iti",""
"html-button-response","69","197443","0.0-54.0","CAN_105","105","","","","","","404","","0","pink","lightred","[""pink"",""lightred"",""low nameability""]","right-left","[""lightred"",""pink""]","2","low nameability","12","right","trigger",""
"html-button-response","70","198132","0.0-55.0-0.0","CAN_105","105","","","","","","681","<button class=""jspsych-btn""><img src=""stimuli/pink.png"" style=""width: 200px;height: 200px;""></button>","1","pink","lightred","[""pink"",""lightred"",""low nameability""]","right-left","[""lightred"",""pink""]","2","low nameability","12","right","response","1"
"html-audio-button-response","71","198336","0.0-55.0-1.0","CAN_105","105","","","","","","null","stimuli/bleep.m4a","null","pink","lightred","[""pink"",""lightred"",""low nameability""]","right-left","[""lightred"",""pink""]","2","low nameability","12","right","audio_feedback","1"
"html-button-response","72","198860","0.0-56.0","CAN_105","105","","","","","","null","<button class=""jspsych-btn""><img src=""stimuli/white_square.png"" style=""width: 200px;height: 200px;""></button>","null","pink","lightred","[""pink"",""lightred"",""low nameability""]","right-left","[""lightred"",""pink""]","2","low nameability","12","right","iti",""
"html-button-response","73","199426","0.0-57.0","CAN_105","105","","","","","","550","","0","darkgreenblue","lightred","[""darkgreenblue"",""lightred"",""low nameability""]","right-left","[""lightred"",""darkgreenblue""]","2","low nameability","13","right","trigger",""
"html-button-response","74","200081","0.0-58.0-0.0","CAN_105","105","","","","","","647","<button class=""jspsych-btn""><img src=""stimuli/darkgreenblue.png"" style=""width: 200px;height: 200px;""></button>","1","darkgreenblue","lightred","[""darkgreenblue"",""lightred"",""low nameability""]","right-left","[""lightred"",""darkgreenblue""]","2","low nameability","13","right","response","1"
"html-audio-button-response","75","200291","0.0-58.0-1.0","CAN_105","105","","","","","","null","stimuli/bleep.m4a","null","darkgreenblue","lightred","[""darkgreenblue"",""lightred"",""low nameability""]","right-left","[""lightred"",""darkgreenblue""]","2","low nameability","13","right","audio_feedback","1"
"html-button-response","76","200811","0.0-59.0","CAN_105","105","","","","","","null","<button class=""jspsych-btn""><img src=""stimuli/white_square.png"" style=""width: 200px;height: 200px;""></button>","null","darkgreenblue","lightred","[""darkgreenblue"",""lightred"",""low nameability""]","right-left","[""lightred"",""darkgreenblue""]","2","low nameability","13","right","iti",""
"html-button-response","77","201396","0.0-60.0","CAN_105","105","","","","","","565","","0","darkgreenblue","neonyellow","[""darkgreenblue"",""neonyellow"",""low nameability""]","left-right","[""darkgreenblue"",""neonyellow"",""low nameability""]","2","low nameability","14","left","trigger",""
"html-button-response","78","202112","0.0-61.0-0.0","CAN_105","105","","","","","","709","<button class=""jspsych-btn""><img src=""stimuli/darkgreenblue.png"" style=""width: 200px;height: 200px;""></button>","0","darkgreenblue","neonyellow","[""darkgreenblue"",""neonyellow"",""low nameability""]","left-right","[""darkgreenblue"",""neonyellow"",""low nameability""]","2","low nameability","14","left","response","1"
"html-audio-button-response","79","202314","0.0-61.0-1.0","CAN_105","105","","","","","","null","stimuli/bleep.m4a","null","darkgreenblue","neonyellow","[""darkgreenblue"",""neonyellow"",""low nameability""]","left-right","[""darkgreenblue"",""neonyellow"",""low nameability""]","2","low nameability","14","left","audio_feedback","1"
"html-button-response","80","202837","0.0-62.0","CAN_105","105","","","","","","null","<button class=""jspsych-btn""><img src=""stimuli/white_square.png"" style=""width: 200px;height: 200px;""></button>","null","darkgreenblue","neonyellow","[""darkgreenblue"",""neonyellow"",""low nameability""]","left-right","[""darkgreenblue"",""neonyellow"",""low nameability""]","2","low nameability","14","left","iti",""
"html-button-response","81","203460","0.0-63.0","CAN_105","105","","","","","","600","","0","red","yellow","[""red"",""yellow"",""high nameability""]","left-right","[""red"",""yellow"",""high nameability""]","2","high nameability","15","left","trigger",""
"html-button-response","82","204217","0.0-64.0-0.0","CAN_105","105","","","","","","750","<button class=""jspsych-btn""><img src=""stimuli/red.png"" style=""width: 200px;height: 200px;""></button>","0","red","yellow","[""red"",""yellow"",""high nameability""]","left-right","[""red"",""yellow"",""high nameability""]","2","high nameability","15","left","response","1"
"html-audio-button-response","83","204425","0.0-64.0-1.0","CAN_105","105","","","","","","null","stimuli/bleep.m4a","null","red","yellow","[""red"",""yellow"",""high nameability""]","left-right","[""red"",""yellow"",""high nameability""]","2","high nameability","15","left","audio_feedback","1"
"html-button-response","84","204942","0.0-65.0","CAN_105","105","","","","","","null","<button class=""jspsych-btn""><img src=""stimuli/white_square.png"" style=""width: 200px;height: 200px;""></button>","null","red","yellow","[""red"",""yellow"",""high nameability""]","left-right","[""red"",""yellow"",""high nameability""]","2","high nameability","15","left","iti",""
"html-button-response","85","205546","0.0-66.0","CAN_105","105","","","","","","579","","0","red","purple","[""red"",""purple"",""high nameability""]","right-left","[""purple"",""red""]","2","high nameability","16","right","trigger",""
"html-button-response","86","206229","0.0-67.0-0.0","CAN_105","105","","","","","","675","<button class=""jspsych-btn""><img src=""stimuli/red.png"" style=""width: 200px;height: 200px;""></button>","1","red","purple","[""red"",""purple"",""high nameability""]","right-left","[""purple"",""red""]","2","high nameability","16","right","response","1"
"html-audio-button-response","87","206434","0.0-67.0-1.0","CAN_105","105","","","","","","null","stimuli/bleep.m4a","null","red","purple","[""red"",""purple"",""high nameability""]","right-left","[""purple"",""red""]","2","high nameability","16","right","audio_feedback","1"
"html-button-response","88","206953","0.0-68.0","CAN_105","105","","","","","","null","<button class=""jspsych-btn""><img src=""stimuli/white_square.png"" style=""width: 200px;height: 200px;""></button>","null","red","purple","[""red"",""purple"",""high nameability""]","right-left","[""purple"",""red""]","2","high nameability","16","right","iti",""
"html-button-response","89","207556","0.0-69.0","CAN_105","105","","","","","","583","","0","blue","yellow","[""blue"",""yellow"",""high nameability""]","right-left","[""yellow"",""blue""]","2","high nameability","17","right","trigger",""
"html-button-response","90","208284","0.0-70.0-0.0","CAN_105","105","","","","","","720","<button class=""jspsych-btn""><img src=""stimuli/blue.png"" style=""width: 200px;height: 200px;""></button>","1","blue","yellow","[""blue"",""yellow"",""high nameability""]","right-left","[""yellow"",""blue""]","2","high nameability","17","right","response","1"
"html-audio-button-response","91","208490","0.0-70.0-1.0","CAN_105","105","","","","","","null","stimuli/bleep.m4a","null","blue","yellow","[""blue"",""yellow"",""high nameability""]","right-left","[""yellow"",""blue""]","2","high nameability","17","right","audio_feedback","1"
"html-button-response","92","209011","0.0-71.0","CAN_105","105","","","","","","null","<button class=""jspsych-btn""><img src=""stimuli/white_square.png"" style=""width: 200px;height: 200px;""></button>","null","blue","yellow","[""blue"",""yellow"",""high nameability""]","right-left","[""yellow"",""blue""]","2","high nameability","17","right","iti",""
"html-button-response","93","209577","0.0-72.0","CAN_105","105","","","","","","540","","0","turquoise","darkgreenblue","[""turquoise"",""darkgreenblue"",""low nameability""]","right-left","[""darkgreenblue"",""turquoise""]","2","low nameability","18","right","trigger",""
"html-button-response","94","210210","0.0-73.0-0.0","CAN_105","105","","","","","","624","<button class=""jspsych-btn""><img src=""stimuli/turquoise.png"" style=""width: 200px;height: 200px;""></button>","1","turquoise","darkgreenblue","[""turquoise"",""darkgreenblue"",""low nameability""]","right-left","[""darkgreenblue"",""turquoise""]","2","low nameability","18","right","response","1"
"html-audio-button-response","95","210417","0.0-73.0-1.0","CAN_105","105","","","","","","null","stimuli/bleep.m4a","null","turquoise","darkgreenblue","[""turquoise"",""darkgreenblue"",""low nameability""]","right-left","[""darkgreenblue"",""turquoise""]","2","low nameability","18","right","audio_feedback","1"
"html-button-response","96","210946","0.0-74.0","CAN_105","105","","","","","","null","<button class=""jspsych-btn""><img src=""stimuli/white_square.png"" style=""width: 200px;height: 200px;""></button>","null","turquoise","darkgreenblue","[""turquoise"",""darkgreenblue"",""low nameability""]","right-left","[""darkgreenblue"",""turquoise""]","2","low nameability","18","right","iti",""
"html-button-response","97","211587","0.0-75.0","CAN_105","105","","","","","","621","","0","yellow","orange","[""yellow"",""orange"",""high nameability""]","left-right","[""yellow"",""orange"",""high nameability""]","2","high nameability","19","left","trigger",""
"html-button-response","98","212349","0.0-76.0-0.0","CAN_105","105","","","","","","756","<button class=""jspsych-btn""><img src=""stimuli/yellow.png"" style=""width: 200px;height: 200px;""></button>","0","yellow","orange","[""yellow"",""orange"",""high nameability""]","left-right","[""yellow"",""orange"",""high nameability""]","2","high nameability","19","left","response","1"
"html-audio-button-response","99","212554","0.0-76.0-1.0","CAN_105","105","","","","","","null","stimuli/bleep.m4a","null","yellow","orange","[""yellow"",""orange"",""high nameability""]","left-right","[""yellow"",""orange"",""high nameability""]","2","high nameability","19","left","audio_feedback","1"
"html-button-response","100","213072","0.0-77.0","CAN_105","105","","","","","","null","<button class=""jspsych-btn""><img src=""stimuli/white_square.png"" style=""width: 200px;height: 200px;""></button>","null","yellow","orange","[""yellow"",""orange"",""high nameability""]","left-right","[""yellow"",""orange"",""high nameability""]","2","high nameability","19","left","iti",""
"html-button-response","101","213572","0.0-78.0","CAN_105","105","","","","","","477","","0","brown","purple","[""brown"",""purple"",""high nameability""]","left-right","[""brown"",""purple"",""high nameability""]","2","high nameability","20","left","trigger",""
"html-button-response","102","214383","0.0-79.0-0.0","CAN_105","105","","","","","","800","<button class=""jspsych-btn""><img src=""stimuli/brown.png"" style=""width: 200px;height: 200px;""></button>","0","brown","purple","[""brown"",""purple"",""high nameability""]","left-right","[""brown"",""purple"",""high nameability""]","2","high nameability","20","left","response","1"
"html-audio-button-response","103","214584","0.0-79.0-1.0","CAN_105","105","","","","","","null","stimuli/bleep.m4a","null","brown","purple","[""brown"",""purple"",""high nameability""]","left-right","[""brown"",""purple"",""high nameability""]","2","high nameability","20","left","audio_feedback","1"
"html-button-response","104","215104","0.0-80.0","CAN_105","105","","","","","","null","<button class=""jspsych-btn""><img src=""stimuli/white_square.png"" style=""width: 200px;height: 200px;""></button>","null","brown","purple","[""brown"",""purple"",""high nameability""]","left-right","[""brown"",""purple"",""high nameability""]","2","high nameability","20","left","iti",""
"pavlovia","105","215193","0.0-81.0","CAN_105","105","","","","","","","","","","","","","","","","","","",""
"pavlovia","106","215202","0.0-82.0","CAN_105","105","","","","","","","","","","","","","","","","","","",""
"html-audio-button-response","107","217204","0.0-83.0","CAN_105","105","","","","","","2101","stimuli/tada.m4a","0","","","","","","","","","","",""
"html-button-response","108","217890","0.0-84.0","CAN_105","105","","","","","","680","","0","","","","","","","","","","",""
"html-button-response","109","220008","0.0-85.0","CAN_105","105","","","","","","2111","","0","mustard","lightred","[""mustard"",""lightred"",""low nameability""]","right-left","[""lightred"",""mustard""]","3","low nameability","21","right","trigger",""
"html-button-response","110","220733","0.0-86.0-0.0","CAN_105","105","","","","","","720","<button class=""jspsych-btn""><img src=""stimuli/mustard.png"" style=""width: 200px;height: 200px;""></button>","1","mustard","lightred","[""mustard"",""lightred"",""low nameability""]","right-left","[""lightred"",""mustard""]","3","low nameability","21","right","response","1"
"html-audio-button-response","111","220939","0.0-86.0-1.0","CAN_105","105","","","","","","null","stimuli/bleep.m4a","null","mustard","lightred","[""mustard"",""lightred"",""low nameability""]","right-left","[""lightred"",""mustard""]","3","low nameability","21","right","audio_feedback","1"
"html-button-response","112","221455","0.0-87.0","CAN_105","105","","","","","","null","<button class=""jspsych-btn""><img src=""stimuli/white_square.png"" style=""width: 200px;height: 200px;""></button>","null","mustard","lightred","[""mustard"",""lightred"",""low nameability""]","right-left","[""lightred"",""mustard""]","3","low nameability","21","right","iti",""
"html-button-response","113","221973","0.0-88.0","CAN_105","105","","","","","","492","","0","blue","red","[""blue"",""red"",""high nameability""]","right-left","[""red"",""blue""]","3","high nameability","22","right","trigger",""
"html-button-response","114","222611","0.0-89.0-0.0","CAN_105","105","","","","","","630","<button class=""jspsych-btn""><img src=""stimuli/blue.png"" style=""width: 200px;height: 200px;""></button>","1","blue","red","[""blue"",""red"",""high nameability""]","right-left","[""red"",""blue""]","3","high nameability","22","right","response","1"
"html-audio-button-response","115","222815","0.0-89.0-1.0","CAN_105","105","","","","","","null","stimuli/bleep.m4a","null","blue","red","[""blue"",""red"",""high nameability""]","right-left","[""red"",""blue""]","3","high nameability","22","right","audio_feedback","1"
"html-button-response","116","223331","0.0-90.0","CAN_105","105","","","","","","null","<button class=""jspsych-btn""><img src=""stimuli/white_square.png"" style=""width: 200px;height: 200px;""></button>","null","blue","red","[""blue"",""red"",""high nameability""]","right-left","[""red"",""blue""]","3","high nameability","22","right","iti",""
"html-button-response","117","223813","0.0-91.0","CAN_105","105","","","","","","461","","0","red","orange","[""red"",""orange"",""high nameability""]","left-right","[""red"",""orange"",""high nameability""]","3","high nameability","23","left","trigger",""
"html-button-response","118","224478","0.0-92.0-0.0","CAN_105","105","","","","","","655","<button class=""jspsych-btn""><img src=""stimuli/red.png"" style=""width: 200px;height: 200px;""></button>","0","red","orange","[""red"",""orange"",""high nameability""]","left-right","[""red"",""orange"",""high nameability""]","3","high nameability","23","left","response","1"
"html-audio-button-response","119","224683","0.0-92.0-1.0","CAN_105","105","","","","","","null","stimuli/bleep.m4a","null","red","orange","[""red"",""orange"",""high nameability""]","left-right","[""red"",""orange"",""high nameability""]","3","high nameability","23","left","audio_feedback","1"
"html-button-response","120","225202","0.0-93.0","CAN_105","105","","","","","","null","<button class=""jspsych-btn""><img src=""stimuli/white_square.png"" style=""width: 200px;height: 200px;""></button>","null","red","orange","[""red"",""orange"",""high nameability""]","left-right","[""red"",""orange"",""high nameability""]","3","high nameability","23","left","iti",""
"html-button-response","121","225679","0.0-94.0","CAN_105","105","","","","","","456","","0","pink","mustard","[""pink"",""mustard"",""low nameability""]","right-left","[""mustard"",""pink""]","3","low nameability","24","right","trigger",""
"html-button-response","122","226418","0.0-95.0-0.0","CAN_105","105","","","","","","730","<button class=""jspsych-btn""><img src=""stimuli/pink.png"" style=""width: 200px;height: 200px;""></button>","1","pink","mustard","[""pink"",""mustard"",""low nameability""]","right-left","[""mustard"",""pink""]","3","low nameability","24","right","response","1"
"html-audio-button-response","123","226622","0.0-95.0-1.0","CAN_105","105","","","","","","null","stimuli/bleep.m4a","null","pink","mustard","[""pink"",""mustard"",""low nameability""]","right-left","[""mustard"",""pink""]","3","low nameability","24","right","audio_feedback","1"
"html-button-response","124","227146","0.0-96.0","CAN_105","105","","","","","","null","<button class=""jspsych-btn""><img src=""stimuli/white_square.png"" style=""width: 200px;height: 200px;""></button>","null","pink","mustard","[""pink"",""mustard"",""low nameability""]","right-left","[""mustard"",""pink""]","3","low nameability","24","right","iti",""
"html-button-response","125","227632","0.0-97.0","CAN_105","105","","","","","","459","","0","darkgreenblue","mustard","[""darkgreenblue"",""mustard"",""low nameability""]","left-right","[""darkgreenblue"",""mustard"",""low nameability""]","3","low nameability","25","left","trigger",""
"html-button-response","126","228353","0.0-98.0-0.0","CAN_105","105","","","","","","714","<button class=""jspsych-btn""><img src=""stimuli/darkgreenblue.png"" style=""width: 200px;height: 200px;""></button>","0","darkgreenblue","mustard","[""darkgreenblue"",""mustard"",""low nameability""]","left-right","[""darkgreenblue"",""mustard"",""low nameability""]","3","low nameability","25","left","response","1"
"html-audio-button-response","127","228553","0.0-98.0-1.0","CAN_105","105","","","","","","null","stimuli/bleep.m4a","null","darkgreenblue","mustard","[""darkgreenblue"",""mustard"",""low nameability""]","left-right","[""darkgreenblue"",""mustard"",""low nameability""]","3","low nameability","25","left","audio_feedback","1"
"html-button-response","128","229066","0.0-99.0","CAN_105","105","","","","","","null","<button class=""jspsych-btn""><img src=""stimuli/white_square.png"" style=""width: 200px;height: 200px;""></button>","null","darkgreenblue","mustard","[""darkgreenblue"",""mustard"",""low nameability""]","left-right","[""darkgreenblue"",""mustard"",""low nameability""]","3","low nameability","25","left","iti",""
"html-button-response","129","229627","0.0-100.0","CAN_105","105","","","","","","536","","0","lightred","neonyellow","[""lightred"",""neonyellow"",""low nameability""]","right-left","[""neonyellow"",""lightred""]","3","low nameability","26","right","trigger",""
"html-button-response","130","230495","0.0-101.0-0.0","CAN_105","105","","","","","","859","<button class=""jspsych-btn""><img src=""stimuli/lightred.png"" style=""width: 200px;height: 200px;""></button>","1","lightred","neonyellow","[""lightred"",""neonyellow"",""low nameability""]","right-left","[""neonyellow"",""lightred""]","3","low nameability","26","right","response","1"
"html-audio-button-response","131","230695","0.0-101.0-1.0","CAN_105","105","","","","","","null","stimuli/bleep.m4a","null","lightred","neonyellow","[""lightred"",""neonyellow"",""low nameability""]","right-left","[""neonyellow"",""lightred""]","3","low nameability","26","right","audio_feedback","1"
"html-button-response","132","231212","0.0-102.0","CAN_105","105","","","","","","null","<button class=""jspsych-btn""><img src=""stimuli/white_square.png"" style=""width: 200px;height: 200px;""></button>","null","lightred","neonyellow","[""lightred"",""neonyellow"",""low nameability""]","right-left","[""neonyellow"",""lightred""]","3","low nameability","26","right","iti",""
"html-button-response","133","231687","0.0-103.0","CAN_105","105","","","","","","457","","0","brown","blue","[""brown"",""blue"",""high nameability""]","left-right","[""brown"",""blue"",""high nameability""]","3","high nameability","27","left","trigger",""
"html-button-response","134","232365","0.0-104.0-0.0","CAN_105","105","","","","","","670","<button class=""jspsych-btn""><img src=""stimuli/brown.png"" style=""width: 200px;height: 200px;""></button>","0","brown","blue","[""brown"",""blue"",""high nameability""]","left-right","[""brown"",""blue"",""high nameability""]","3","high nameability","27","left","response","1"
"html-audio-button-response","135","232566","0.0-104.0-1.0","CAN_105","105","","","","","","null","stimuli/bleep.m4a","null","brown","blue","[""brown"",""blue"",""high nameability""]","left-right","[""brown"",""blue"",""high nameability""]","3","high nameability","27","left","audio_feedback","1"
"html-button-response","136","233089","0.0-105.0","CAN_105","105","","","","","","null","<button class=""jspsych-btn""><img src=""stimuli/white_square.png"" style=""width: 200px;height: 200px;""></button>","null","brown","blue","[""brown"",""blue"",""high nameability""]","left-right","[""brown"",""blue"",""high nameability""]","3","high nameability","27","left","iti",""
"html-button-response","137","233539","0.0-106.0","CAN_105","105","","","","","","425","","0","neonyellow","turquoise","[""neonyellow"",""turquoise"",""low nameability""]","left-right","[""neonyellow"",""turquoise"",""low nameability""]","3","low nameability","28","left","trigger",""
"html-button-response","138","234183","0.0-107.0-0.0","CAN_105","105","","","","","","638","<button class=""jspsych-btn""><img src=""stimuli/neonyellow.png"" style=""width: 200px;height: 200px;""></button>","0","neonyellow","turquoise","[""neonyellow"",""turquoise"",""low nameability""]","left-right","[""neonyellow"",""turquoise"",""low nameability""]","3","low nameability","28","left","response","1"
"html-audio-button-response","139","234388","0.0-107.0-1.0","CAN_105","105","","","","","","null","stimuli/bleep.m4a","null","neonyellow","turquoise","[""neonyellow"",""turquoise"",""low nameability""]","left-right","[""neonyellow"",""turquoise"",""low nameability""]","3","low nameability","28","left","audio_feedback","1"
"html-button-response","140","234906","0.0-108.0","CAN_105","105","","","","","","null","<button class=""jspsych-btn""><img src=""stimuli/white_square.png"" style=""width: 200px;height: 200px;""></button>","null","neonyellow","turquoise","[""neonyellow"",""turquoise"",""low nameability""]","left-right","[""neonyellow"",""turquoise"",""low nameability""]","3","low nameability","28","left","iti",""
"html-button-response","141","235397","0.0-109.0","CAN_105","105","","","","","","466","","0","purple","orange","[""purple"",""orange"",""high nameability""]","left-right","[""purple"",""orange"",""high nameability""]","3","high nameability","29","left","trigger",""
"html-button-response","142","235974","0.0-110.0-0.0","CAN_105","105","","","","","","570","<button class=""jspsych-btn""><img src=""stimuli/purple.png"" style=""width: 200px;height: 200px;""></button>","0","purple","orange","[""purple"",""orange"",""high nameability""]","left-right","[""purple"",""orange"",""high nameability""]","3","high nameability","29","left","response","1"
"html-audio-button-response","143","236178","0.0-110.0-1.0","CAN_105","105","","","","","","null","stimuli/bleep.m4a","null","purple","orange","[""purple"",""orange"",""high nameability""]","left-right","[""purple"",""orange"",""high nameability""]","3","high nameability","29","left","audio_feedback","1"
"html-button-response","144","236697","0.0-111.0","CAN_105","105","","","","","","null","<button class=""jspsych-btn""><img src=""stimuli/white_square.png"" style=""width: 200px;height: 200px;""></button>","null","purple","orange","[""purple"",""orange"",""high nameability""]","left-right","[""purple"",""orange"",""high nameability""]","3","high nameability","29","left","iti",""
"html-button-response","145","237152","0.0-112.0","CAN_105","105","","","","","","436","","0","yellow","blue","[""yellow"",""blue"",""high nameability""]","left-right","[""yellow"",""blue"",""high nameability""]","3","high nameability","30","left","trigger",""
"html-button-response","146","237770","0.0-113.0-0.0","CAN_105","105","","","","","","609","<button class=""jspsych-btn""><img src=""stimuli/yellow.png"" style=""width: 200px;height: 200px;""></button>","0","yellow","blue","[""yellow"",""blue"",""high nameability""]","left-right","[""yellow"",""blue"",""high nameability""]","3","high nameability","30","left","response","1"
"html-audio-button-response","147","237973","0.0-113.0-1.0","CAN_105","105","","","","","","null","stimuli/bleep.m4a","null","yellow","blue","[""yellow"",""blue"",""high nameability""]","left-right","[""yellow"",""blue"",""high nameability""]","3","high nameability","30","left","audio_feedback","1"
"html-button-response","148","238495","0.0-114.0","CAN_105","105","","","","","","null","<button class=""jspsych-btn""><img src=""stimuli/white_square.png"" style=""width: 200px;height: 200px;""></button>","null","yellow","blue","[""yellow"",""blue"",""high nameability""]","left-right","[""yellow"",""blue"",""high nameability""]","3","high nameability","30","left","iti",""
"pavlovia","149","238568","0.0-115.0","CAN_105","105","","","","","","","","","","","","","","","","","","",""
"pavlovia","150","238576","0.0-116.0","CAN_105","105","","","","","","","","","","","","","","","","","","",""
"html-audio-button-response","151","240489","0.0-117.0","CAN_105","105","","","","","","1997","stimuli/tada.m4a","0","","","","","","","","","","",""
"html-button-response","152","241282","0.0-118.0","CAN_105","105","","","","","","787","","0","","","","","","","","","","",""
"html-button-response","153","241957","0.0-119.0","CAN_105","105","","","","","","667","","0","pink","darkgreenblue","[""pink"",""darkgreenblue"",""low nameability""]","right-left","[""darkgreenblue"",""pink""]","4","low nameability","31","right","trigger",""
"html-button-response","154","242850","0.0-120.0-0.0","CAN_105","105","","","","","","882","<button class=""jspsych-btn""><img src=""stimuli/pink.png"" style=""width: 200px;height: 200px;""></button>","1","pink","darkgreenblue","[""pink"",""darkgreenblue"",""low nameability""]","right-left","[""darkgreenblue"",""pink""]","4","low nameability","31","right","response","1"
"html-audio-button-response","155","243056","0.0-120.0-1.0","CAN_105","105","","","","","","null","stimuli/bleep.m4a","null","pink","darkgreenblue","[""pink"",""darkgreenblue"",""low nameability""]","right-left","[""darkgreenblue"",""pink""]","4","low nameability","31","right","audio_feedback","1"
"html-button-response","156","243579","0.0-121.0","CAN_105","105","","","","","","null","<button class=""jspsych-btn""><img src=""stimuli/white_square.png"" style=""width: 200px;height: 200px;""></button>","null","pink","darkgreenblue","[""pink"",""darkgreenblue"",""low nameability""]","right-left","[""darkgreenblue"",""pink""]","4","low nameability","31","right","iti",""
"html-button-response","157","243647","0.0-122.0","CAN_105","105","","","","","","60","","0","blue","orange","[""blue"",""orange"",""high nameability""]","left-right","[""blue"",""orange"",""high nameability""]","4","high nameability","32","left","trigger",""
"html-button-response","158","244387","0.0-123.0-0.0","CAN_105","105","","","","","","734","<button class=""jspsych-btn""><img src=""stimuli/blue.png"" style=""width: 200px;height: 200px;""></button>","0","blue","orange","[""blue"",""orange"",""high nameability""]","left-right","[""blue"",""orange"",""high nameability""]","4","high nameability","32","left","response","1"
"html-audio-button-response","159","244595","0.0-123.0-1.0","CAN_105","105","","","","","","null","stimuli/bleep.m4a","null","blue","orange","[""blue"",""orange"",""high nameability""]","left-right","[""blue"",""orange"",""high nameability""]","4","high nameability","32","left","audio_feedback","1"
"html-button-response","160","245114","0.0-124.0","CAN_105","105","","","","","","null","<button class=""jspsych-btn""><img src=""stimuli/white_square.png"" style=""width: 200px;height: 200px;""></button>","null","blue","orange","[""blue"",""orange"",""high nameability""]","left-right","[""blue"",""orange"",""high nameability""]","4","high nameability","32","left","iti",""
"html-button-response","161","245490","0.0-125.0","CAN_105","105","","","","","","355","","0","red","blue","[""red"",""blue"",""high nameability""]","right-left","[""blue"",""red""]","4","high nameability","33","right","trigger",""
"html-button-response","162","246156","0.0-126.0-0.0","CAN_105","105","","","","","","655","<button class=""jspsych-btn""><img src=""stimuli/red.png"" style=""width: 200px;height: 200px;""></button>","1","red","blue","[""red"",""blue"",""high nameability""]","right-left","[""blue"",""red""]","4","high nameability","33","right","response","1"
"html-audio-button-response","163","246365","0.0-126.0-1.0","CAN_105","105","","","","","","null","stimuli/bleep.m4a","null","red","blue","[""red"",""blue"",""high nameability""]","right-left","[""blue"",""red""]","4","high nameability","33","right","audio_feedback","1"
"html-button-response","164","246893","0.0-127.0","CAN_105","105","","","","","","null","<button class=""jspsych-btn""><img src=""stimuli/white_square.png"" style=""width: 200px;height: 200px;""></button>","null","red","blue","[""red"",""blue"",""high nameability""]","right-left","[""blue"",""red""]","4","high nameability","33","right","iti",""
"html-button-response","165","246936","0.0-128.0","CAN_105","105","","","","","","35","","0","orange","yellow","[""orange"",""yellow"",""high nameability""]","right-left","[""yellow"",""orange""]","4","high nameability","34","right","trigger",""
"html-button-response","166","247714","0.0-129.0-0.0","CAN_105","105","","","","","","771","<button class=""jspsych-btn""><img src=""stimuli/orange.png"" style=""width: 200px;height: 200px;""></button>","1","orange","yellow","[""orange"",""yellow"",""high nameability""]","right-left","[""yellow"",""orange""]","4","high nameability","34","right","response","1"
"html-audio-button-response","167","247918","0.0-129.0-1.0","CAN_105","105","","","","","","null","stimuli/bleep.m4a","null","orange","yellow","[""orange"",""yellow"",""high nameability""]","right-left","[""yellow"",""orange""]","4","high nameability","34","right","audio_feedback","1"
"html-button-response","168","248429","0.0-130.0","CAN_105","105","","","","","","null","<button class=""jspsych-btn""><img src=""stimuli/white_square.png"" style=""width: 200px;height: 200px;""></button>","null","orange","yellow","[""orange"",""yellow"",""high nameability""]","right-left","[""yellow"",""orange""]","4","high nameability","34","right","iti",""
"html-button-response","169","248471","0.0-131.0","CAN_105","105","","","","","","36","","0","yellow","brown","[""yellow"",""brown"",""high nameability""]","left-right","[""yellow"",""brown"",""high nameability""]","4","high nameability","35","left","trigger",""
"html-button-response","170","249153","0.0-132.0-0.0","CAN_105","105","","","","","","674","<button class=""jspsych-btn""><img src=""stimuli/yellow.png"" style=""width: 200px;height: 200px;""></button>","0","yellow","brown","[""yellow"",""brown"",""high nameability""]","left-right","[""yellow"",""brown"",""high nameability""]","4","high nameability","35","left","response","1"
"html-audio-button-response","171","249356","0.0-132.0-1.0","CAN_105","105","","","","","","null","stimuli/bleep.m4a","null","yellow","brown","[""yellow"",""brown"",""high nameability""]","left-right","[""yellow"",""brown"",""high nameability""]","4","high nameability","35","left","audio_feedback","1"
"html-button-response","172","249872","0.0-133.0","CAN_105","105","","","","","","null","<button class=""jspsych-btn""><img src=""stimuli/white_square.png"" style=""width: 200px;height: 200px;""></button>","null","yellow","brown","[""yellow"",""brown"",""high nameability""]","left-right","[""yellow"",""brown"",""high nameability""]","4","high nameability","35","left","iti",""
"html-button-response","173","249922","0.0-134.0","CAN_105","105","","","","","","44","","0","orange","brown","[""orange"",""brown"",""high nameability""]","left-right","[""orange"",""brown"",""high nameability""]","4","high nameability","36","left","trigger",""
"html-button-response","174","250555","0.0-135.0-0.0","CAN_105","105","","","","","","623","<button class=""jspsych-btn""><img src=""stimuli/orange.png"" style=""width: 200px;height: 200px;""></button>","0","orange","brown","[""orange"",""brown"",""high nameability""]","left-right","[""orange"",""brown"",""high nameability""]","4","high nameability","36","left","response","1"
"html-audio-button-response","175","250762","0.0-135.0-1.0","CAN_105","105","","","","","","null","stimuli/bleep.m4a","null","orange","brown","[""orange"",""brown"",""high nameability""]","left-right","[""orange"",""brown"",""high nameability""]","4","high nameability","36","left","audio_feedback","1"
"html-button-response","176","251277","0.0-136.0","CAN_105","105","","","","","","null","<button class=""jspsych-btn""><img src=""stimuli/white_square.png"" style=""width: 200px;height: 200px;""></button>","null","orange","brown","[""orange"",""brown"",""high nameability""]","left-right","[""orange"",""brown"",""high nameability""]","4","high nameability","36","left","iti",""
"html-button-response","177","251310","0.0-137.0","CAN_105","105","","","","","","22","","0","purple","red","[""purple"",""red"",""high nameability""]","left-right","[""purple"",""red"",""high nameability""]","4","high nameability","37","left","trigger",""
"html-button-response","178","251939","0.0-138.0-0.0","CAN_105","105","","","","","","621","<button class=""jspsych-btn""><img src=""stimuli/purple.png"" style=""width: 200px;height: 200px;""></button>","0","purple","red","[""purple"",""red"",""high nameability""]","left-right","[""purple"",""red"",""high nameability""]","4","high nameability","37","left","response","1"
"html-audio-button-response","179","252143","0.0-138.0-1.0","CAN_105","105","","","","","","null","stimuli/bleep.m4a","null","purple","red","[""purple"",""red"",""high nameability""]","left-right","[""purple"",""red"",""high nameability""]","4","high nameability","37","left","audio_feedback","1"
"html-button-response","180","252663","0.0-139.0","CAN_105","105","","","","","","null","<button class=""jspsych-btn""><img src=""stimuli/white_square.png"" style=""width: 200px;height: 200px;""></button>","null","purple","red","[""purple"",""red"",""high nameability""]","left-right","[""purple"",""red"",""high nameability""]","4","high nameability","37","left","iti",""
"html-button-response","181","252747","0.0-140.0","CAN_105","105","","","","","","55","","0","purple","blue","[""purple"",""blue"",""high nameability""]","right-left","[""blue"",""purple""]","4","high nameability","38","right","trigger",""
"html-button-response","182","253476","0.0-141.0-0.0","CAN_105","105","","","","","","715","<button class=""jspsych-btn""><img src=""stimuli/purple.png"" style=""width: 200px;height: 200px;""></button>","1","purple","blue","[""purple"",""blue"",""high nameability""]","right-left","[""blue"",""purple""]","4","high nameability","38","right","response","1"
"html-audio-button-response","183","253683","0.0-141.0-1.0","CAN_105","105","","","","","","null","stimuli/bleep.m4a","null","purple","blue","[""purple"",""blue"",""high nameability""]","right-left","[""blue"",""purple""]","4","high nameability","38","right","audio_feedback","1"
"html-button-response","184","254214","0.0-142.0","CAN_105","105","","","","","","null","<button class=""jspsych-btn""><img src=""stimuli/white_square.png"" style=""width: 200px;height: 200px;""></button>","null","purple","blue","[""purple"",""blue"",""high nameability""]","right-left","[""blue"",""purple""]","4","high nameability","38","right","iti",""
"html-button-response","185","255291","0.0-143.0","CAN_105","105","","","","","","1068","","0","pink","turquoise","[""pink"",""turquoise"",""low nameability""]","right-left","[""turquoise"",""pink""]","4","low nameability","39","right","trigger",""
"html-button-response","186","255983","0.0-144.0-0.0","CAN_105","105","","","","","","682","<button class=""jspsych-btn""><img src=""stimuli/pink.png"" style=""width: 200px;height: 200px;""></button>","1","pink","turquoise","[""pink"",""turquoise"",""low nameability""]","right-left","[""turquoise"",""pink""]","4","low nameability","39","right","response","1"
"html-audio-button-response","187","256187","0.0-144.0-1.0","CAN_105","105","","","","","","null","stimuli/bleep.m4a","null","pink","turquoise","[""pink"",""turquoise"",""low nameability""]","right-left","[""turquoise"",""pink""]","4","low nameability","39","right","audio_feedback","1"
"html-button-response","188","256704","0.0-145.0","CAN_105","105","","","","","","null","<button class=""jspsych-btn""><img src=""stimuli/white_square.png"" style=""width: 200px;height: 200px;""></button>","null","pink","turquoise","[""pink"",""turquoise"",""low nameability""]","right-left","[""turquoise"",""pink""]","4","low nameability","39","right","iti",""
"html-button-response","189","256776","0.0-146.0","CAN_105","105","","","","","","51","","0","yellow","red","[""yellow"",""red"",""high nameability""]","left-right","[""yellow"",""red"",""high nameability""]","4","high nameability","40","left","trigger",""
"html-button-response","190","257453","0.0-147.0-0.0","CAN_105","105","","","","","","669","<button class=""jspsych-btn""><img src=""stimuli/yellow.png"" style=""width: 200px;height: 200px;""></button>","0","yellow","red","[""yellow"",""red"",""high nameability""]","left-right","[""yellow"",""red"",""high nameability""]","4","high nameability","40","left","response","1"
"html-audio-button-response","191","257654","0.0-147.0-1.0","CAN_105","105","","","","","","null","stimuli/bleep.m4a","null","yellow","red","[""yellow"",""red"",""high nameability""]","left-right","[""yellow"",""red"",""high nameability""]","4","high nameability","40","left","audio_feedback","1"
"html-button-response","192","258169","0.0-148.0","CAN_105","105","","","","","","null","<button class=""jspsych-btn""><img src=""stimuli/white_square.png"" style=""width: 200px;height: 200px;""></button>","null","yellow","red","[""yellow"",""red"",""high nameability""]","left-right","[""yellow"",""red"",""high nameability""]","4","high nameability","40","left","iti",""
"pavlovia","193","258194","0.0-149.0","CAN_105","105","","","","","","","","","","","","","","","","","","",""
"pavlovia","194","258198","0.0-150.0","CAN_105","105","","","","","","","","","","","","","","","","","","",""
"html-audio-button-response","195","260049","0.0-151.0","CAN_105","105","","","","","","1872","stimuli/tada.m4a","0","","","","","","","","","","",""
"html-button-response","196","260718","0.0-152.0","CAN_105","105","","","","","","663","","0","","","","","","","","","","",""
"html-button-response","197","261283","0.0-153.0","CAN_105","105","","","","","","559","","0","purple","yellow","[""purple"",""yellow"",""high nameability""]","right-left","[""yellow"",""purple""]","5","high nameability","41","right","trigger",""
"html-button-response","198","261892","0.0-154.0-0.0","CAN_105","105","","","","","","601","<button class=""jspsych-btn""><img src=""stimuli/purple.png"" style=""width: 200px;height: 200px;""></button>","1","purple","yellow","[""purple"",""yellow"",""high nameability""]","right-left","[""yellow"",""purple""]","5","high nameability","41","right","response","1"
"html-audio-button-response","199","262093","0.0-154.0-1.0","CAN_105","105","","","","","","null","stimuli/bleep.m4a","null","purple","yellow","[""purple"",""yellow"",""high nameability""]","right-left","[""yellow"",""purple""]","5","high nameability","41","right","audio_feedback","1"
"html-button-response","200","262600","0.0-155.0","CAN_105","105","","","","","","null","<button class=""jspsych-btn""><img src=""stimuli/white_square.png"" style=""width: 200px;height: 200px;""></button>","null","purple","yellow","[""purple"",""yellow"",""high nameability""]","right-left","[""yellow"",""purple""]","5","high nameability","41","right","iti",""
"html-button-response","201","263757","0.0-156.0","CAN_105","105","","","","","","1140","","0","neonyellow","pink","[""neonyellow"",""pink"",""low nameability""]","left-right","[""neonyellow"",""pink"",""low nameability""]","5","low nameability","42","left","trigger",""
"html-button-response","202","264420","0.0-157.0-0.0","CAN_105","105","","","","","","653","<button class=""jspsych-btn""><img src=""stimuli/neonyellow.png"" style=""width: 200px;height: 200px;""></button>","0","neonyellow","pink","[""neonyellow"",""pink"",""low nameability""]","left-right","[""neonyellow"",""pink"",""low nameability""]","5","low nameability","42","left","response","1"
"html-audio-button-response","203","264624","0.0-157.0-1.0","CAN_105","105","","","","","","null","stimuli/bleep.m4a","null","neonyellow","pink","[""neonyellow"",""pink"",""low nameability""]","left-right","[""neonyellow"",""pink"",""low nameability""]","5","low nameability","42","left","audio_feedback","1"
"html-button-response","204","265135","0.0-158.0","CAN_105","105","","","","","","null","<button class=""jspsych-btn""><img src=""stimuli/white_square.png"" style=""width: 200px;height: 200px;""></button>","null","neonyellow","pink","[""neonyellow"",""pink"",""low nameability""]","left-right","[""neonyellow"",""pink"",""low nameability""]","5","low nameability","42","left","iti",""
"html-button-response","205","265946","0.0-159.0","CAN_105","105","","","","","","804","","0","lightred","pink","[""lightred"",""pink"",""low nameability""]","right-left","[""pink"",""lightred""]","5","low nameability","43","right","trigger",""
"html-button-response","206","266624","0.0-160.0-0.0","CAN_105","105","","","","","","668","<button class=""jspsych-btn""><img src=""stimuli/lightred.png"" style=""width: 200px;height: 200px;""></button>","1","lightred","pink","[""lightred"",""pink"",""low nameability""]","right-left","[""pink"",""lightred""]","5","low nameability","43","right","response","1"
"html-audio-button-response","207","266827","0.0-160.0-1.0","CAN_105","105","","","","","","null","stimuli/bleep.m4a","null","lightred","pink","[""lightred"",""pink"",""low nameability""]","right-left","[""pink"",""lightred""]","5","low nameability","43","right","audio_feedback","1"
"html-button-response","208","267351","0.0-161.0","CAN_105","105","","","","","","null","<button class=""jspsych-btn""><img src=""stimuli/white_square.png"" style=""width: 200px;height: 200px;""></button>","null","lightred","pink","[""lightred"",""pink"",""low nameability""]","right-left","[""pink"",""lightred""]","5","low nameability","43","right","iti",""
"html-button-response","209","267823","0.0-162.0","CAN_105","105","","","","","","453","","0","turquoise","mustard","[""turquoise"",""mustard"",""low nameability""]","left-right","[""turquoise"",""mustard"",""low nameability""]","5","low nameability","44","left","trigger",""
"html-button-response","210","268512","0.0-163.0-0.0","CAN_105","105","","","","","","682","<button class=""jspsych-btn""><img src=""stimuli/turquoise.png"" style=""width: 200px;height: 200px;""></button>","0","turquoise","mustard","[""turquoise"",""mustard"",""low nameability""]","left-right","[""turquoise"",""mustard"",""low nameability""]","5","low nameability","44","left","response","1"
"html-audio-button-response","211","268714","0.0-163.0-1.0","CAN_105","105","","","","","","null","stimuli/bleep.m4a","null","turquoise","mustard","[""turquoise"",""mustard"",""low nameability""]","left-right","[""turquoise"",""mustard"",""low nameability""]","5","low nameability","44","left","audio_feedback","1"
"html-button-response","212","269234","0.0-164.0","CAN_105","105","","","","","","null","<button class=""jspsych-btn""><img src=""stimuli/white_square.png"" style=""width: 200px;height: 200px;""></button>","null","turquoise","mustard","[""turquoise"",""mustard"",""low nameability""]","left-right","[""turquoise"",""mustard"",""low nameability""]","5","low nameability","44","left","iti",""
"html-button-response","213","269344","0.0-165.0","CAN_105","105","","","","","","93","","0","brown","orange","[""brown"",""orange"",""high nameability""]","right-left","[""orange"",""brown""]","5","high nameability","45","right","trigger",""
"html-button-response","214","270151","0.0-166.0-0.0","CAN_105","105","","","","","","800","<button class=""jspsych-btn""><img src=""stimuli/brown.png"" style=""width: 200px;height: 200px;""></button>","1","brown","orange","[""brown"",""orange"",""high nameability""]","right-left","[""orange"",""brown""]","5","high nameability","45","right","response","1"
"html-audio-button-response","215","270351","0.0-166.0-1.0","CAN_105","105","","","","","","null","stimuli/bleep.m4a","null","brown","orange","[""brown"",""orange"",""high nameability""]","right-left","[""orange"",""brown""]","5","high nameability","45","right","audio_feedback","1"
"html-button-response","216","270869","0.0-167.0","CAN_105","105","","","","","","null","<button class=""jspsych-btn""><img src=""stimuli/white_square.png"" style=""width: 200px;height: 200px;""></button>","null","brown","orange","[""brown"",""orange"",""high nameability""]","right-left","[""orange"",""brown""]","5","high nameability","45","right","iti",""
"html-button-response","217","271202","0.0-168.0","CAN_105","105","","","","","","314","","0","mustard","darkgreenblue","[""mustard"",""darkgreenblue"",""low nameability""]","left-right","[""mustard"",""darkgreenblue"",""low nameability""]","5","low nameability","46","left","trigger",""
"html-button-response","218","271844","0.0-169.0-0.0","CAN_105","105","","","","","","634","<button class=""jspsych-btn""><img src=""stimuli/mustard.png"" style=""width: 200px;height: 200px;""></button>","0","mustard","darkgreenblue","[""mustard"",""darkgreenblue"",""low nameability""]","left-right","[""mustard"",""darkgreenblue"",""low nameability""]","5","low nameability","46","left","response","1"
"html-audio-button-response","219","272047","0.0-169.0-1.0","CAN_105","105","","","","","","null","stimuli/bleep.m4a","null","mustard","darkgreenblue","[""mustard"",""darkgreenblue"",""low nameability""]","left-right","[""mustard"",""darkgreenblue"",""low nameability""]","5","low nameability","46","left","audio_feedback","1"
"html-button-response","220","272567","0.0-170.0","CAN_105","105","","","","","","null","<button class=""jspsych-btn""><img src=""stimuli/white_square.png"" style=""width: 200px;height: 200px;""></button>","null","mustard","darkgreenblue","[""mustard"",""darkgreenblue"",""low nameability""]","left-right","[""mustard"",""darkgreenblue"",""low nameability""]","5","low nameability","46","left","iti",""
"html-button-response","221","272949","0.0-171.0","CAN_105","105","","","","","","367","","0","brown","yellow","[""brown"",""yellow"",""high nameability""]","right-left","[""yellow"",""brown""]","5","high nameability","47","right","trigger",""
"html-button-response","222","273554","0.0-172.0-0.0","CAN_105","105","","","","","","597","<button class=""jspsych-btn""><img src=""stimuli/brown.png"" style=""width: 200px;height: 200px;""></button>","1","brown","yellow","[""brown"",""yellow"",""high nameability""]","right-left","[""yellow"",""brown""]","5","high nameability","47","right","response","1"
"html-audio-button-response","223","273759","0.0-172.0-1.0","CAN_105","105","","","","","","null","stimuli/bleep.m4a","null","brown","yellow","[""brown"",""yellow"",""high nameability""]","right-left","[""yellow"",""brown""]","5","high nameability","47","right","audio_feedback","1"
"html-button-response","224","274292","0.0-173.0","CAN_105","105","","","","","","null","<button class=""jspsych-btn""><img src=""stimuli/white_square.png"" style=""width: 200px;height: 200px;""></button>","null","brown","yellow","[""brown"",""yellow"",""high nameability""]","right-left","[""yellow"",""brown""]","5","high nameability","47","right","iti",""
"html-button-response","225","274651","0.0-174.0","CAN_105","105","","","","","","338","","0","yellow","purple","[""yellow"",""purple"",""high nameability""]","right-left","[""purple"",""yellow""]","5","high nameability","48","right","trigger",""
"html-button-response","226","275377","0.0-175.0-0.0","CAN_105","105","","","","","","718","<button class=""jspsych-btn""><img src=""stimuli/yellow.png"" style=""width: 200px;height: 200px;""></button>","1","yellow","purple","[""yellow"",""purple"",""high nameability""]","right-left","[""purple"",""yellow""]","5","high nameability","48","right","response","1"
"html-audio-button-response","227","275583","0.0-175.0-1.0","CAN_105","105","","","","","","null","stimuli/bleep.m4a","null","yellow","purple","[""yellow"",""purple"",""high nameability""]","right-left","[""purple"",""yellow""]","5","high nameability","48","right","audio_feedback","1"
"html-button-response","228","276104","0.0-176.0","CAN_105","105","","","","","","null","<button class=""jspsych-btn""><img src=""stimuli/white_square.png"" style=""width: 200px;height: 200px;""></button>","null","yellow","purple","[""yellow"",""purple"",""high nameability""]","right-left","[""purple"",""yellow""]","5","high nameability","48","right","iti",""
"html-button-response","229","276150","0.0-177.0","CAN_105","105","","","","","","40","","0","darkgreenblue","pink","[""darkgreenblue"",""pink"",""low nameability""]","right-left","[""pink"",""darkgreenblue""]","5","low nameability","49","right","trigger",""
"html-button-response","230","276894","0.0-178.0-0.0","CAN_105","105","","","","","","739","<button class=""jspsych-btn""><img src=""stimuli/darkgreenblue.png"" style=""width: 200px;height: 200px;""></button>","1","darkgreenblue","pink","[""darkgreenblue"",""pink"",""low nameability""]","right-left","[""pink"",""darkgreenblue""]","5","low nameability","49","right","response","1"
"html-audio-button-response","231","277099","0.0-178.0-1.0","CAN_105","105","","","","","","null","stimuli/bleep.m4a","null","darkgreenblue","pink","[""darkgreenblue"",""pink"",""low nameability""]","right-left","[""pink"",""darkgreenblue""]","5","low nameability","49","right","audio_feedback","1"
"html-button-response","232","277620","0.0-179.0","CAN_105","105","","","","","","null","<button class=""jspsych-btn""><img src=""stimuli/white_square.png"" style=""width: 200px;height: 200px;""></button>","null","darkgreenblue","pink","[""darkgreenblue"",""pink"",""low nameability""]","right-left","[""pink"",""darkgreenblue""]","5","low nameability","49","right","iti",""
"html-button-response","233","277671","0.0-180.0","CAN_105","105","","","","","","41","","0","mustard","neonyellow","[""mustard"",""neonyellow"",""low nameability""]","right-left","[""neonyellow"",""mustard""]","5","low nameability","50","right","trigger",""
"html-button-response","234","278476","0.0-181.0-0.0","CAN_105","105","","","","","","799","<button class=""jspsych-btn""><img src=""stimuli/mustard.png"" style=""width: 200px;height: 200px;""></button>","1","mustard","neonyellow","[""mustard"",""neonyellow"",""low nameability""]","right-left","[""neonyellow"",""mustard""]","5","low nameability","50","right","response","1"
"html-audio-button-response","235","278683","0.0-181.0-1.0","CAN_105","105","","","","","","null","stimuli/bleep.m4a","null","mustard","neonyellow","[""mustard"",""neonyellow"",""low nameability""]","right-left","[""neonyellow"",""mustard""]","5","low nameability","50","right","audio_feedback","1"
"html-button-response","236","279202","0.0-182.0","CAN_105","105","","","","","","null","<button class=""jspsych-btn""><img src=""stimuli/white_square.png"" style=""width: 200px;height: 200px;""></button>","null","mustard","neonyellow","[""mustard"",""neonyellow"",""low nameability""]","right-left","[""neonyellow"",""mustard""]","5","low nameability","50","right","iti",""
"pavlovia","237","279252","0.0-183.0","CAN_105","105","","","","","","","","","","","","","","","","","","",""
"pavlovia","238","279260","0.0-184.0","CAN_105","105","","","","","","","","","","","","","","","","","","",""
"html-audio-button-response","239","281252","0.0-185.0","CAN_105","105","","","","","","2048","stimuli/tada.m4a","0","","","","","","","","","","",""
"html-button-response","240","282010","0.0-186.0","CAN_105","105","","","","","","750","","0","","","","","","","","","","",""
"html-button-response","241","282676","0.0-187.0","CAN_105","105","","","","","","659","","0","purple","brown","[""purple"",""brown"",""high nameability""]","right-left","[""brown"",""purple""]","6","high nameability","51","right","trigger",""
"html-button-response","242","283255","0.0-188.0-0.0","CAN_105","105","","","","","","571","<button class=""jspsych-btn""><img src=""stimuli/purple.png"" style=""width: 200px;height: 200px;""></button>","1","purple","brown","[""purple"",""brown"",""high nameability""]","right-left","[""brown"",""purple""]","6","high nameability","51","right","response","1"
"html-audio-button-response","243","283455","0.0-188.0-1.0","CAN_105","105","","","","","","null","stimuli/bleep.m4a","null","purple","brown","[""purple"",""brown"",""high nameability""]","right-left","[""brown"",""purple""]","6","high nameability","51","right","audio_feedback","1"
"html-button-response","244","283976","0.0-189.0","CAN_105","105","","","","","","null","<button class=""jspsych-btn""><img src=""stimuli/white_square.png"" style=""width: 200px;height: 200px;""></button>","null","purple","brown","[""purple"",""brown"",""high nameability""]","right-left","[""brown"",""purple""]","6","high nameability","51","right","iti",""
"html-button-response","245","284350","0.0-190.0","CAN_105","105","","","","","","355","","0","pink","neonyellow","[""pink"",""neonyellow"",""low nameability""]","right-left","[""neonyellow"",""pink""]","6","low nameability","52","right","trigger",""
"html-button-response","246","285066","0.0-191.0-0.0","CAN_105","105","","","","","","708","<button class=""jspsych-btn""><img src=""stimuli/pink.png"" style=""width: 200px;height: 200px;""></button>","1","pink","neonyellow","[""pink"",""neonyellow"",""low nameability""]","right-left","[""neonyellow"",""pink""]","6","low nameability","52","right","response","1"
"html-audio-button-response","247","285268","0.0-191.0-1.0","CAN_105","105","","","","","","null","stimuli/bleep.m4a","null","pink","neonyellow","[""pink"",""neonyellow"",""low nameability""]","right-left","[""neonyellow"",""pink""]","6","low nameability","52","right","audio_feedback","1"
"html-button-response","248","285785","0.0-192.0","CAN_105","105","","","","","","null","<button class=""jspsych-btn""><img src=""stimuli/white_square.png"" style=""width: 200px;height: 200px;""></button>","null","pink","neonyellow","[""pink"",""neonyellow"",""low nameability""]","right-left","[""neonyellow"",""pink""]","6","low nameability","52","right","iti",""
"html-button-response","249","285894","0.0-193.0","CAN_105","105","","","","","","87","","0","orange","purple","[""orange"",""purple"",""high nameability""]","right-left","[""purple"",""orange""]","6","high nameability","53","right","trigger",""
"html-button-response","250","286538","0.0-194.0-0.0","CAN_105","105","","","","","","636","<button class=""jspsych-btn""><img src=""stimuli/orange.png"" style=""width: 200px;height: 200px;""></button>","1","orange","purple","[""orange"",""purple"",""high nameability""]","right-left","[""purple"",""orange""]","6","high nameability","53","right","response","1"
"html-audio-button-response","251","286744","0.0-194.0-1.0","CAN_105","105","","","","","","null","stimuli/bleep.m4a","null","orange","purple","[""orange"",""purple"",""high nameability""]","right-left","[""purple"",""orange""]","6","high nameability","53","right","audio_feedback","1"
"html-button-response","252","287267","0.0-195.0","CAN_105","105","","","","","","null","<button class=""jspsych-btn""><img src=""stimuli/white_square.png"" style=""width: 200px;height: 200px;""></button>","null","orange","purple","[""orange"",""purple"",""high nameability""]","right-left","[""purple"",""orange""]","6","high nameability","53","right","iti",""
"html-button-response","253","287405","0.0-196.0","CAN_105","105","","","","","","112","","0","neonyellow","lightred","[""neonyellow"",""lightred"",""low nameability""]","left-right","[""neonyellow"",""lightred"",""low nameability""]","6","low nameability","54","left","trigger",""
"html-button-response","254","288159","0.0-197.0-0.0","CAN_105","105","","","","","","748","<button class=""jspsych-btn""><img src=""stimuli/neonyellow.png"" style=""width: 200px;height: 200px;""></button>","0","neonyellow","lightred","[""neonyellow"",""lightred"",""low nameability""]","left-right","[""neonyellow"",""lightred"",""low nameability""]","6","low nameability","54","left","response","1"
"html-audio-button-response","255","288367","0.0-197.0-1.0","CAN_105","105","","","","","","null","stimuli/bleep.m4a","null","neonyellow","lightred","[""neonyellow"",""lightred"",""low nameability""]","left-right","[""neonyellow"",""lightred"",""low nameability""]","6","low nameability","54","left","audio_feedback","1"
"html-button-response","256","288877","0.0-198.0","CAN_105","105","","","","","","null","<button class=""jspsych-btn""><img src=""stimuli/white_square.png"" style=""width: 200px;height: 200px;""></button>","null","neonyellow","lightred","[""neonyellow"",""lightred"",""low nameability""]","left-right","[""neonyellow"",""lightred"",""low nameability""]","6","low nameability","54","left","iti",""
"html-button-response","257","288934","0.0-199.0","CAN_105","105","","","","","","52","","0","red","brown","[""red"",""brown"",""high nameability""]","left-right","[""red"",""brown"",""high nameability""]","6","high nameability","55","left","trigger",""
"html-button-response","258","289641","0.0-200.0-0.0","CAN_105","105","","","","","","700","<button class=""jspsych-btn""><img src=""stimuli/red.png"" style=""width: 200px;height: 200px;""></button>","0","red","brown","[""red"",""brown"",""high nameability""]","left-right","[""red"",""brown"",""high nameability""]","6","high nameability","55","left","response","1"
"html-audio-button-response","259","289844","0.0-200.0-1.0","CAN_105","105","","","","","","null","stimuli/bleep.m4a","null","red","brown","[""red"",""brown"",""high nameability""]","left-right","[""red"",""brown"",""high nameability""]","6","high nameability","55","left","audio_feedback","1"
"html-button-response","260","290364","0.0-201.0","CAN_105","105","","","","","","null","<button class=""jspsych-btn""><img src=""stimuli/white_square.png"" style=""width: 200px;height: 200px;""></button>","null","red","brown","[""red"",""brown"",""high nameability""]","left-right","[""red"",""brown"",""high nameability""]","6","high nameability","55","left","iti",""
"html-button-response","261","291256","0.0-202.0","CAN_105","105","","","","","","885","","0","darkgreenblue","turquoise","[""darkgreenblue"",""turquoise"",""low nameability""]","left-right","[""darkgreenblue"",""turquoise"",""low nameability""]","6","low nameability","56","left","trigger",""
"html-button-response","262","291924","0.0-203.0-0.0","CAN_105","105","","","","","","662","<button class=""jspsych-btn""><img src=""stimuli/darkgreenblue.png"" style=""width: 200px;height: 200px;""></button>","0","darkgreenblue","turquoise","[""darkgreenblue"",""turquoise"",""low nameability""]","left-right","[""darkgreenblue"",""turquoise"",""low nameability""]","6","low nameability","56","left","response","1"
"html-audio-button-response","263","292127","0.0-203.0-1.0","CAN_105","105","","","","","","null","stimuli/bleep.m4a","null","darkgreenblue","turquoise","[""darkgreenblue"",""turquoise"",""low nameability""]","left-right","[""darkgreenblue"",""turquoise"",""low nameability""]","6","low nameability","56","left","audio_feedback","1"
"html-button-response","264","292653","0.0-204.0","CAN_105","105","","","","","","null","<button class=""jspsych-btn""><img src=""stimuli/white_square.png"" style=""width: 200px;height: 200px;""></button>","null","darkgreenblue","turquoise","[""darkgreenblue"",""turquoise"",""low nameability""]","left-right","[""darkgreenblue"",""turquoise"",""low nameability""]","6","low nameability","56","left","iti",""
"html-button-response","265","292727","0.0-205.0","CAN_105","105","","","","","","63","","0","mustard","pink","[""mustard"",""pink"",""low nameability""]","right-left","[""pink"",""mustard""]","6","low nameability","57","right","trigger",""
"html-button-response","266","293466","0.0-206.0-0.0","CAN_105","105","","","","","","732","<button class=""jspsych-btn""><img src=""stimuli/mustard.png"" style=""width: 200px;height: 200px;""></button>","1","mustard","pink","[""mustard"",""pink"",""low nameability""]","right-left","[""pink"",""mustard""]","6","low nameability","57","right","response","1"
"html-audio-button-response","267","293669","0.0-206.0-1.0","CAN_105","105","","","","","","null","stimuli/bleep.m4a","null","mustard","pink","[""mustard"",""pink"",""low nameability""]","right-left","[""pink"",""mustard""]","6","low nameability","57","right","audio_feedback","1"
"html-button-response","268","294179","0.0-207.0","CAN_105","105","","","","","","null","<button class=""jspsych-btn""><img src=""stimuli/white_square.png"" style=""width: 200px;height: 200px;""></button>","null","mustard","pink","[""mustard"",""pink"",""low nameability""]","right-left","[""pink"",""mustard""]","6","low nameability","57","right","iti",""
"html-button-response","269","294583","0.0-208.0","CAN_105","105","","","","","","394","","0","lightred","mustard","[""lightred"",""mustard"",""low nameability""]","left-right","[""lightred"",""mustard"",""low nameability""]","6","low nameability","58","left","trigger",""
"html-button-response","270","295238","0.0-209.0-0.0","CAN_105","105","","","","","","648","<button class=""jspsych-btn""><img src=""stimuli/lightred.png"" style=""width: 200px;height: 200px;""></button>","0","lightred","mustard","[""lightred"",""mustard"",""low nameability""]","left-right","[""lightred"",""mustard"",""low nameability""]","6","low nameability","58","left","response","1"
"html-audio-button-response","271","295443","0.0-209.0-1.0","CAN_105","105","","","","","","null","stimuli/bleep.m4a","null","lightred","mustard","[""lightred"",""mustard"",""low nameability""]","left-right","[""lightred"",""mustard"",""low nameability""]","6","low nameability","58","left","audio_feedback","1"
"html-button-response","272","295969","0.0-210.0","CAN_105","105","","","","","","null","<button class=""jspsych-btn""><img src=""stimuli/white_square.png"" style=""width: 200px;height: 200px;""></button>","null","lightred","mustard","[""lightred"",""mustard"",""low nameability""]","left-right","[""lightred"",""mustard"",""low nameability""]","6","low nameability","58","left","iti",""
"html-button-response","273","296116","0.0-211.0","CAN_105","105","","","","","","128","","0","blue","purple","[""blue"",""purple"",""high nameability""]","left-right","[""blue"",""purple"",""high nameability""]","6","high nameability","59","left","trigger",""
"html-button-response","274","296807","0.0-212.0-0.0","CAN_105","105","","","","","","683","<button class=""jspsych-btn""><img src=""stimuli/blue.png"" style=""width: 200px;height: 200px;""></button>","0","blue","purple","[""blue"",""purple"",""high nameability""]","left-right","[""blue"",""purple"",""high nameability""]","6","high nameability","59","left","response","1"
"html-audio-button-response","275","297011","0.0-212.0-1.0","CAN_105","105","","","","","","null","stimuli/bleep.m4a","null","blue","purple","[""blue"",""purple"",""high nameability""]","left-right","[""blue"",""purple"",""high nameability""]","6","high nameability","59","left","audio_feedback","1"
"html-button-response","276","297527","0.0-213.0","CAN_105","105","","","","","","null","<button class=""jspsych-btn""><img src=""stimuli/white_square.png"" style=""width: 200px;height: 200px;""></button>","null","blue","purple","[""blue"",""purple"",""high nameability""]","left-right","[""blue"",""purple"",""high nameability""]","6","high nameability","59","left","iti",""
"html-button-response","277","297831","0.0-214.0","CAN_105","105","","","","","","288","","0","mustard","turquoise","[""mustard"",""turquoise"",""low nameability""]","left-right","[""mustard"",""turquoise"",""low nameability""]","6","low nameability","60","left","trigger",""
"html-button-response","278","298445","0.0-215.0-0.0","CAN_105","105","","","","","","606","<button class=""jspsych-btn""><img src=""stimuli/mustard.png"" style=""width: 200px;height: 200px;""></button>","0","mustard","turquoise","[""mustard"",""turquoise"",""low nameability""]","left-right","[""mustard"",""turquoise"",""low nameability""]","6","low nameability","60","left","response","1"
"html-audio-button-response","279","298648","0.0-215.0-1.0","CAN_105","105","","","","","","null","stimuli/bleep.m4a","null","mustard","turquoise","[""mustard"",""turquoise"",""low nameability""]","left-right","[""mustard"",""turquoise"",""low nameability""]","6","low nameability","60","left","audio_feedback","1"
"html-button-response","280","299167","0.0-216.0","CAN_105","105","","","","","","null","<button class=""jspsych-btn""><img src=""stimuli/white_square.png"" style=""width: 200px;height: 200px;""></button>","null","mustard","turquoise","[""mustard"",""turquoise"",""low nameability""]","left-right","[""mustard"",""turquoise"",""low nameability""]","6","low nameability","60","left","iti",""
