"trial_type","trial_index","time_elapsed","internal_node_id","subject_id","seed","success","timeout","failed_images","failed_audio","failed_video","rt","stimulus","response","target","foil","choices","combination_order","choices_in_order","round","condition","trial_counter","target_location","trial_kind","correct"
"pavlovia","0","22","0.0-0.0","CAN_102","102","","","","","","","","","","","","","","","","","","",""
"preload","1","687","0.0-1.0","CAN_102","102","true","false","[]","[]","[]","","","","","","","","","","","","","",""
"fullscreen","2","6440","0.0-2.0","CAN_102","102","true","","","","","","","","","","","","","","","","","",""
"html-button-response","3","90215","0.0-3.0","CAN_102","102","","","","","","83748","","0","","","","","","","","","","",""
"html-button-response","4","103574","0.0-4.0","CAN_102","102","","","","","","13345","","0","star","square","[""square"",""star""]","left-right","[""square"",""star""]","1","practice","1","right","trigger",""
"html-button-response","5","107450","0.0-5.0-0.0","CAN_102","102","","","","","","3865","<button class=""jspsych-btn""><img src=""stimuli/star.png"" style=""width: 200px;height: 200px;""></button>","1","star","square","[""square"",""star""]","left-right","[""square"",""star""]","1","practice","1","right","response","1"
"html-audio-button-response","6","107657","0.0-5.0-1.0","CAN_102","102","","","","","","null","stimuli/bleep.m4a","null","star","square","[""square"",""star""]","left-right","[""square"",""star""]","1","practice","1","right","audio_feedback","1"
"html-button-response","7","108188","0.0-6.0","CAN_102","102","","","","","","null","<button class=""jspsych-btn""><img src=""stimuli/white_square.png"" style=""width: 200px;height: 200px;""></button>","null","star","square","[""square"",""star""]","left-right","[""square"",""star""]","1","practice","1","right","iti",""
"html-button-response","8","110249","0.0-7.0","CAN_102","102","","","","","","2041","","0","triangle","pentagram","[""triangle"",""pentagram""]","left-right","[""triangle"",""pentagram""]","1","practice","1","left","trigger",""
"html-button-response","9","111887","0.0-8.0-0.0","CAN_102","102","","","","","","1628","<button class=""jspsych-btn""><img src=""stimuli/triangle.png"" style=""width: 200px;height: 200px;""></button>","0","triangle","pentagram","[""triangle"",""pentagram""]","left-right","[""triangle"",""pentagram""]","1","practice","1","left","response","1"
"html-audio-button-response","10","112098","0.0-8.0-1.0","CAN_102","102","","","","","","null","stimuli/bleep.m4a","null","triangle","pentagram","[""triangle"",""pentagram""]","left-right","[""triangle"",""pentagram""]","1","practice","1","left","audio_feedback","1"
"html-button-response","11","112621","0.0-9.0","CAN_102","102","","","","","","null","<button class=""jspsych-btn""><img src=""stimuli/white_square.png"" style=""width: 200px;height: 200px;""></button>","null","triangle","pentagram","[""triangle"",""pentagram""]","left-right","[""triangle"",""pentagram""]","1","practice","1","left","iti",""
"html-button-response","12","113275","0.0-10.0","CAN_102","102","","","","","","638","","0","diamond","rectangle","[""rectangle"",""diamond""]","left-right","[""rectangle"",""diamond""]","1","practice","1","right","trigger",""
"html-button-response","13","114109","0.0-11.0-0.0","CAN_102","102","","","","","","827","<button class=""jspsych-btn""><img src=""stimuli/diamond.png"" style=""width: 200px;height: 200px;""></button>","1","diamond","rectangle","[""rectangle"",""diamond""]","left-right","[""rectangle"",""diamond""]","1","practice","1","right","response","1"
"html-audio-button-response","14","114312","0.0-11.0-1.0","CAN_102","102","","","","","","null","stimuli/bleep.m4a","null","diamond","rectangle","[""rectangle"",""diamond""]","left-right","[""rectangle"",""diamond""]","1","practice","1","right","audio_feedback","1"
"html-button-response","15","114834","0.0-12.0","CAN_102","102","","","","","","null","<button class=""jspsych-btn""><img src=""stimuli/white_square.png"" style=""width: 200px;height: 200px;""></button>","null","diamond","rectangle","[""rectangle"",""diamond""]","left-right","[""rectangle"",""diamond""]","1","practice","1","right","iti",""
"html-button-response","16","115453","0.0-13.0","CAN_102","102","","","","","","600","","0","pentagram","star","[""pentagram"",""star""]","left-right","[""pentagram"",""star""]","1","practice","1","left","trigger",""
"html-button-response","17","116372","0.0-14.0-0.0","CAN_102","102","","","","","","909","<button class=""jspsych-btn""><img src=""stimuli/pentagram.png"" style=""width: 200px;height: 200px;""></button>","0","pentagram","star","[""pentagram"",""star""]","left-right","[""pentagram"",""star""]","1","practice","1","left","response","1"
"html-audio-button-response","18","116581","0.0-14.0-1.0","CAN_102","102","","","","","","null","stimuli/bleep.m4a","null","pentagram","star","[""pentagram"",""star""]","left-right","[""pentagram"",""star""]","1","practice","1","left","audio_feedback","1"
"html-button-response","19","117104","0.0-15.0","CAN_102","102","","","","","","null","<button class=""jspsych-btn""><img src=""stimuli/white_square.png"" style=""width: 200px;height: 200px;""></button>","null","pentagram","star","[""pentagram"",""star""]","left-right","[""pentagram"",""star""]","1","practice","1","left","iti",""
"html-button-response","20","129874","0.0-16.0","CAN_102","102","","","","","","12762","","0","","","","","","","","","","",""
"html-button-response","21","131326","0.0-17.0","CAN_102","102","","","","","","1446","","0","yellow","red","[""yellow"",""red"",""high nameability""]","right-left","[""red"",""yellow""]","1","high nameability","1","right","trigger",""
"html-button-response","22","132147","0.0-18.0-0.0","CAN_102","102","","","","","","812","<button class=""jspsych-btn""><img src=""stimuli/yellow.png"" style=""width: 200px;height: 200px;""></button>","1","yellow","red","[""yellow"",""red"",""high nameability""]","right-left","[""red"",""yellow""]","1","high nameability","1","right","response","1"
"html-audio-button-response","23","132352","0.0-18.0-1.0","CAN_102","102","","","","","","null","stimuli/bleep.m4a","null","yellow","red","[""yellow"",""red"",""high nameability""]","right-left","[""red"",""yellow""]","1","high nameability","1","right","audio_feedback","1"
"html-button-response","24","132874","0.0-19.0","CAN_102","102","","","","","","null","<button class=""jspsych-btn""><img src=""stimuli/white_square.png"" style=""width: 200px;height: 200px;""></button>","null","yellow","red","[""yellow"",""red"",""high nameability""]","right-left","[""red"",""yellow""]","1","high nameability","1","right","iti",""
"html-button-response","25","133518","0.0-20.0","CAN_102","102","","","","","","618","","0","orange","brown","[""orange"",""brown"",""high nameability""]","right-left","[""brown"",""orange""]","1","high nameability","2","right","trigger",""
"html-button-response","26","134396","0.0-21.0-0.0","CAN_102","102","","","","","","869","<button class=""jspsych-btn""><img src=""stimuli/orange.png"" style=""width: 200px;height: 200px;""></button>","1","orange","brown","[""orange"",""brown"",""high nameability""]","right-left","[""brown"",""orange""]","1","high nameability","2","right","response","1"
"html-audio-button-response","27","134601","0.0-21.0-1.0","CAN_102","102","","","","","","null","stimuli/bleep.m4a","null","orange","brown","[""orange"",""brown"",""high nameability""]","right-left","[""brown"",""orange""]","1","high nameability","2","right","audio_feedback","1"
"html-button-response","28","135120","0.0-22.0","CAN_102","102","","","","","","null","<button class=""jspsych-btn""><img src=""stimuli/white_square.png"" style=""width: 200px;height: 200px;""></button>","null","orange","brown","[""orange"",""brown"",""high nameability""]","right-left","[""brown"",""orange""]","1","high nameability","2","right","iti",""
"html-button-response","29","135812","0.0-23.0","CAN_102","102","","","","","","676","","0","darkgreenblue","mustard","[""darkgreenblue"",""mustard"",""low nameability""]","right-left","[""mustard"",""darkgreenblue""]","1","low nameability","3","right","trigger",""
"html-button-response","30","136831","0.0-24.0-0.0","CAN_102","102","","","","","","1011","<button class=""jspsych-btn""><img src=""stimuli/darkgreenblue.png"" style=""width: 200px;height: 200px;""></button>","1","darkgreenblue","mustard","[""darkgreenblue"",""mustard"",""low nameability""]","right-left","[""mustard"",""darkgreenblue""]","1","low nameability","3","right","response","1"
"html-audio-button-response","31","137036","0.0-24.0-1.0","CAN_102","102","","","","","","null","stimuli/bleep.m4a","null","darkgreenblue","mustard","[""darkgreenblue"",""mustard"",""low nameability""]","right-left","[""mustard"",""darkgreenblue""]","1","low nameability","3","right","audio_feedback","1"
"html-button-response","32","137556","0.0-25.0","CAN_102","102","","","","","","null","<button class=""jspsych-btn""><img src=""stimuli/white_square.png"" style=""width: 200px;height: 200px;""></button>","null","darkgreenblue","mustard","[""darkgreenblue"",""mustard"",""low nameability""]","right-left","[""mustard"",""darkgreenblue""]","1","low nameability","3","right","iti",""
"html-button-response","33","138141","0.0-26.0","CAN_102","102","","","","","","562","","0","pink","mustard","[""pink"",""mustard"",""low nameability""]","right-left","[""mustard"",""pink""]","1","low nameability","4","right","trigger",""
"html-button-response","34","139093","0.0-27.0-0.0","CAN_102","102","","","","","","943","<button class=""jspsych-btn""><img src=""stimuli/pink.png"" style=""width: 200px;height: 200px;""></button>","1","pink","mustard","[""pink"",""mustard"",""low nameability""]","right-left","[""mustard"",""pink""]","1","low nameability","4","right","response","1"
"html-audio-button-response","35","139299","0.0-27.0-1.0","CAN_102","102","","","","","","null","stimuli/bleep.m4a","null","pink","mustard","[""pink"",""mustard"",""low nameability""]","right-left","[""mustard"",""pink""]","1","low nameability","4","right","audio_feedback","1"
"html-button-response","36","139822","0.0-28.0","CAN_102","102","","","","","","null","<button class=""jspsych-btn""><img src=""stimuli/white_square.png"" style=""width: 200px;height: 200px;""></button>","null","pink","mustard","[""pink"",""mustard"",""low nameability""]","right-left","[""mustard"",""pink""]","1","low nameability","4","right","iti",""
"html-button-response","37","140649","0.0-29.0","CAN_102","102","","","","","","809","","0","yellow","purple","[""yellow"",""purple"",""high nameability""]","left-right","[""yellow"",""purple"",""high nameability""]","1","high nameability","5","left","trigger",""
"html-button-response","38","141541","0.0-30.0-0.0","CAN_102","102","","","","","","884","<button class=""jspsych-btn""><img src=""stimuli/yellow.png"" style=""width: 200px;height: 200px;""></button>","0","yellow","purple","[""yellow"",""purple"",""high nameability""]","left-right","[""yellow"",""purple"",""high nameability""]","1","high nameability","5","left","response","1"
"html-audio-button-response","39","141744","0.0-30.0-1.0","CAN_102","102","","","","","","null","stimuli/bleep.m4a","null","yellow","purple","[""yellow"",""purple"",""high nameability""]","left-right","[""yellow"",""purple"",""high nameability""]","1","high nameability","5","left","audio_feedback","1"
"html-button-response","40","142258","0.0-31.0","CAN_102","102","","","","","","null","<button class=""jspsych-btn""><img src=""stimuli/white_square.png"" style=""width: 200px;height: 200px;""></button>","null","yellow","purple","[""yellow"",""purple"",""high nameability""]","left-right","[""yellow"",""purple"",""high nameability""]","1","high nameability","5","left","iti",""
"html-button-response","41","143039","0.0-32.0","CAN_102","102","","","","","","774","","0","lightred","turquoise","[""lightred"",""turquoise"",""low nameability""]","right-left","[""turquoise"",""lightred""]","1","low nameability","6","right","trigger",""
"html-button-response","42","143870","0.0-33.0-0.0","CAN_102","102","","","","","","823","<button class=""jspsych-btn""><img src=""stimuli/lightred.png"" style=""width: 200px;height: 200px;""></button>","1","lightred","turquoise","[""lightred"",""turquoise"",""low nameability""]","right-left","[""turquoise"",""lightred""]","1","low nameability","6","right","response","1"
"html-audio-button-response","43","144074","0.0-33.0-1.0","CAN_102","102","","","","","","null","stimuli/bleep.m4a","null","lightred","turquoise","[""lightred"",""turquoise"",""low nameability""]","right-left","[""turquoise"",""lightred""]","1","low nameability","6","right","audio_feedback","1"
"html-button-response","44","144596","0.0-34.0","CAN_102","102","","","","","","null","<button class=""jspsych-btn""><img src=""stimuli/white_square.png"" style=""width: 200px;height: 200px;""></button>","null","lightred","turquoise","[""lightred"",""turquoise"",""low nameability""]","right-left","[""turquoise"",""lightred""]","1","low nameability","6","right","iti",""
"html-button-response","45","145394","0.0-35.0","CAN_102","102","","","","","","783","","0","yellow","blue","[""yellow"",""blue"",""high nameability""]","right-left","[""blue"",""yellow""]","1","high nameability","7","right","trigger",""
"html-button-response","46","146202","0.0-36.0-0.0","CAN_102","102","","","","","","800","<button class=""jspsych-btn""><img src=""stimuli/yellow.png"" style=""width: 200px;height: 200px;""></button>","1","yellow","blue","[""yellow"",""blue"",""high nameability""]","right-left","[""blue"",""yellow""]","1","high nameability","7","right","response","1"
"html-audio-button-response","47","146414","0.0-36.0-1.0","CAN_102","102","","","","","","null","stimuli/bleep.m4a","null","yellow","blue","[""yellow"",""blue"",""high nameability""]","right-left","[""blue"",""yellow""]","1","high nameability","7","right","audio_feedback","1"
"html-button-response","48","146931","0.0-37.0","CAN_102","102","","","","","","null","<button class=""jspsych-btn""><img src=""stimuli/white_square.png"" style=""width: 200px;height: 200px;""></button>","null","yellow","blue","[""yellow"",""blue"",""high nameability""]","right-left","[""blue"",""yellow""]","1","high nameability","7","right","iti",""
"html-button-response","49","147640","0.0-38.0","CAN_102","102","","","","","","686","","0","lightred","neonyellow","[""lightred"",""neonyellow"",""low nameability""]","right-left","[""neonyellow"",""lightred""]","1","low nameability","8","right","trigger",""
"html-button-response","50","148428","0.0-39.0-0.0","CAN_102","102","","","","","","781","<button class=""jspsych-btn""><img src=""stimuli/lightred.png"" style=""width: 200px;height: 200px;""></button>","1","lightred","neonyellow","[""lightred"",""neonyellow"",""low nameability""]","right-left","[""neonyellow"",""lightred""]","1","low nameability","8","right","response","1"
"html-audio-button-response","51","148632","0.0-39.0-1.0","CAN_102","102","","","","","","null","stimuli/bleep.m4a","null","lightred","neonyellow","[""lightred"",""neonyellow"",""low nameability""]","right-left","[""neonyellow"",""lightred""]","1","low nameability","8","right","audio_feedback","1"
"html-button-response","52","149152","0.0-40.0","CAN_102","102","","","","","","null","<button class=""jspsych-btn""><img src=""stimuli/white_square.png"" style=""width: 200px;height: 200px;""></button>","null","lightred","neonyellow","[""lightred"",""neonyellow"",""low nameability""]","right-left","[""neonyellow"",""lightred""]","1","low nameability","8","right","iti",""
"html-button-response","53","149855","0.0-41.0","CAN_102","102","","","","","","680","","0","darkgreenblue","pink","[""darkgreenblue"",""pink"",""low nameability""]","right-left","[""pink"",""darkgreenblue""]","1","low nameability","9","right","trigger",""
"html-button-response","54","150626","0.0-42.0-0.0","CAN_102","102","","","","","","763","<button class=""jspsych-btn""><img src=""stimuli/darkgreenblue.png"" style=""width: 200px;height: 200px;""></button>","1","darkgreenblue","pink","[""darkgreenblue"",""pink"",""low nameability""]","right-left","[""pink"",""darkgreenblue""]","1","low nameability","9","right","response","1"
"html-audio-button-response","55","150829","0.0-42.0-1.0","CAN_102","102","","","","","","null","stimuli/bleep.m4a","null","darkgreenblue","pink","[""darkgreenblue"",""pink"",""low nameability""]","right-left","[""pink"",""darkgreenblue""]","1","low nameability","9","right","audio_feedback","1"
"html-button-response","56","151348","0.0-43.0","CAN_102","102","","","","","","null","<button class=""jspsych-btn""><img src=""stimuli/white_square.png"" style=""width: 200px;height: 200px;""></button>","null","darkgreenblue","pink","[""darkgreenblue"",""pink"",""low nameability""]","right-left","[""pink"",""darkgreenblue""]","1","low nameability","9","right","iti",""
"html-button-response","57","152244","0.0-44.0","CAN_102","102","","","","","","871","","0","red","blue","[""red"",""blue"",""high nameability""]","left-right","[""red"",""blue"",""high nameability""]","1","high nameability","10","left","trigger",""
"html-button-response","58","153015","0.0-45.0-0.0","CAN_102","102","","","","","","763","<button class=""jspsych-btn""><img src=""stimuli/red.png"" style=""width: 200px;height: 200px;""></button>","0","red","blue","[""red"",""blue"",""high nameability""]","left-right","[""red"",""blue"",""high nameability""]","1","high nameability","10","left","response","1"
"html-audio-button-response","59","153221","0.0-45.0-1.0","CAN_102","102","","","","","","null","stimuli/bleep.m4a","null","red","blue","[""red"",""blue"",""high nameability""]","left-right","[""red"",""blue"",""high nameability""]","1","high nameability","10","left","audio_feedback","1"
"html-button-response","60","153746","0.0-46.0","CAN_102","102","","","","","","null","<button class=""jspsych-btn""><img src=""stimuli/white_square.png"" style=""width: 200px;height: 200px;""></button>","null","red","blue","[""red"",""blue"",""high nameability""]","left-right","[""red"",""blue"",""high nameability""]","1","high nameability","10","left","iti",""
"pavlovia","61","153814","0.0-47.0","CAN_102","102","","","","","","","","","","","","","","","","","","",""
"pavlovia","62","153823","0.0-48.0","CAN_102","102","","","","","","","","","","","","","","","","","","",""
"html-audio-button-response","63","157124","0.0-49.0","CAN_102","102","","","","","","3384","stimuli/tada.m4a","0","","","","","","","","","","",""
"html-button-response","64","158299","0.0-50.0","CAN_102","102","","","","","","1169","","0","","","","","","","","","","",""
"html-button-response","65","159060","0.0-51.0","CAN_102","102","","","","","","754","","0","pink","neonyellow","[""pink"",""neonyellow"",""low nameability""]","left-right","[""pink"",""neonyellow"",""low nameability""]","2","low nameability","11","left","trigger",""
"html-button-response","66","159800","0.0-52.0-0.0","CAN_102","102","","","","","","731","<button class=""jspsych-btn""><img src=""stimuli/pink.png"" style=""width: 200px;height: 200px;""></button>","0","pink","neonyellow","[""pink"",""neonyellow"",""low nameability""]","left-right","[""pink"",""neonyellow"",""low nameability""]","2","low nameability","11","left","response","1"
"html-audio-button-response","67","159999","0.0-52.0-1.0","CAN_102","102","","","","","","null","stimuli/bleep.m4a","null","pink","neonyellow","[""pink"",""neonyellow"",""low nameability""]","left-right","[""pink"",""neonyellow"",""low nameability""]","2","low nameability","11","left","audio_feedback","1"
"html-button-response","68","160528","0.0-53.0","CAN_102","102","","","","","","null","<button class=""jspsych-btn""><img src=""stimuli/white_square.png"" style=""width: 200px;height: 200px;""></button>","null","pink","neonyellow","[""pink"",""neonyellow"",""low nameability""]","left-right","[""pink"",""neonyellow"",""low nameability""]","2","low nameability","11","left","iti",""
"html-button-response","69","161071","0.0-54.0","CAN_102","102","","","","","","521","","0","mustard","pink","[""mustard"",""pink"",""low nameability""]","right-left","[""pink"",""mustard""]","2","low nameability","12","right","trigger",""
"html-button-response","70","161742","0.0-55.0-0.0","CAN_102","102","","","","","","663","<button class=""jspsych-btn""><img src=""stimuli/mustard.png"" style=""width: 200px;height: 200px;""></button>","1","mustard","pink","[""mustard"",""pink"",""low nameability""]","right-left","[""pink"",""mustard""]","2","low nameability","12","right","response","1"
"html-audio-button-response","71","161945","0.0-55.0-1.0","CAN_102","102","","","","","","null","stimuli/bleep.m4a","null","mustard","pink","[""mustard"",""pink"",""low nameability""]","right-left","[""pink"",""mustard""]","2","low nameability","12","right","audio_feedback","1"
"html-button-response","72","162462","0.0-56.0","CAN_102","102","","","","","","null","<button class=""jspsych-btn""><img src=""stimuli/white_square.png"" style=""width: 200px;height: 200px;""></button>","null","mustard","pink","[""mustard"",""pink"",""low nameability""]","right-left","[""pink"",""mustard""]","2","low nameability","12","right","iti",""
"html-button-response","73","163197","0.0-57.0","CAN_102","102","","","","","","712","","0","purple","blue","[""purple"",""blue"",""high nameability""]","right-left","[""blue"",""purple""]","2","high nameability","13","right","trigger",""
"html-button-response","74","163868","0.0-58.0-0.0","CAN_102","102","","","","","","666","<button class=""jspsych-btn""><img src=""stimuli/purple.png"" style=""width: 200px;height: 200px;""></button>","1","purple","blue","[""purple"",""blue"",""high nameability""]","right-left","[""blue"",""purple""]","2","high nameability","13","right","response","1"
"html-audio-button-response","75","164072","0.0-58.0-1.0","CAN_102","102","","","","","","null","stimuli/bleep.m4a","null","purple","blue","[""purple"",""blue"",""high nameability""]","right-left","[""blue"",""purple""]","2","high nameability","13","right","audio_feedback","1"
"html-button-response","76","164588","0.0-59.0","CAN_102","102","","","","","","null","<button class=""jspsych-btn""><img src=""stimuli/white_square.png"" style=""width: 200px;height: 200px;""></button>","null","purple","blue","[""purple"",""blue"",""high nameability""]","right-left","[""blue"",""purple""]","2","high nameability","13","right","iti",""
"html-button-response","77","165095","0.0-60.0","CAN_102","102","","","","","","488","","0","purple","orange","[""purple"",""orange"",""high nameability""]","right-left","[""orange"",""purple""]","2","high nameability","14","right","trigger",""
"html-button-response","78","165816","0.0-61.0-0.0","CAN_102","102","","","","","","713","<button class=""jspsych-btn""><img src=""stimuli/purple.png"" style=""width: 200px;height: 200px;""></button>","1","purple","orange","[""purple"",""orange"",""high nameability""]","right-left","[""orange"",""purple""]","2","high nameability","14","right","response","1"
"html-audio-button-response","79","166019","0.0-61.0-1.0","CAN_102","102","","","","","","null","stimuli/bleep.m4a","null","purple","orange","[""purple"",""orange"",""high nameability""]","right-left","[""orange"",""purple""]","2","high nameability","14","right","audio_feedback","1"
"html-button-response","80","166540","0.0-62.0","CAN_102","102","","","","","","null","<button class=""jspsych-btn""><img src=""stimuli/white_square.png"" style=""width: 200px;height: 200px;""></button>","null","purple","orange","[""purple"",""orange"",""high nameability""]","right-left","[""orange"",""purple""]","2","high nameability","14","right","iti",""
"html-button-response","81","167057","0.0-63.0","CAN_102","102","","","","","","501","","0","blue","orange","[""blue"",""orange"",""high nameability""]","left-right","[""blue"",""orange"",""high nameability""]","2","high nameability","15","left","trigger",""
"html-button-response","82","167813","0.0-64.0-0.0","CAN_102","102","","","","","","749","<button class=""jspsych-btn""><img src=""stimuli/blue.png"" style=""width: 200px;height: 200px;""></button>","0","blue","orange","[""blue"",""orange"",""high nameability""]","left-right","[""blue"",""orange"",""high nameability""]","2","high nameability","15","left","response","1"
"html-audio-button-response","83","168019","0.0-64.0-1.0","CAN_102","102","","","","","","null","stimuli/bleep.m4a","null","blue","orange","[""blue"",""orange"",""high nameability""]","left-right","[""blue"",""orange"",""high nameability""]","2","high nameability","15","left","audio_feedback","1"
"html-button-response","84","168539","0.0-65.0","CAN_102","102","","","","","","null","<button class=""jspsych-btn""><img src=""stimuli/white_square.png"" style=""width: 200px;height: 200px;""></button>","null","blue","orange","[""blue"",""orange"",""high nameability""]","left-right","[""blue"",""orange"",""high nameability""]","2","high nameability","15","left","iti",""
"html-button-response","85","169101","0.0-66.0","CAN_102","102","","","","","","537","","0","lightred","darkgreenblue","[""lightred"",""darkgreenblue"",""low nameability""]","left-right","[""lightred"",""darkgreenblue"",""low nameability""]","2","low nameability","16","left","trigger",""
"html-button-response","86","169895","0.0-67.0-0.0","CAN_102","102","","","","","","788","<button class=""jspsych-btn""><img src=""stimuli/lightred.png"" style=""width: 200px;height: 200px;""></button>","0","lightred","darkgreenblue","[""lightred"",""darkgreenblue"",""low nameability""]","left-right","[""lightred"",""darkgreenblue"",""low nameability""]","2","low nameability","16","left","response","1"
"html-audio-button-response","87","170100","0.0-67.0-1.0","CAN_102","102","","","","","","null","stimuli/bleep.m4a","null","lightred","darkgreenblue","[""lightred"",""darkgreenblue"",""low nameability""]","left-right","[""lightred"",""darkgreenblue"",""low nameability""]","2","low nameability","16","left","audio_feedback","1"
"html-button-response","88","170618","0.0-68.0","CAN_102","102","","","","","","null","<button class=""jspsych-btn""><img src=""stimuli/white_square.png"" style=""width: 200px;height: 200px;""></button>","null","lightred","darkgreenblue","[""lightred"",""darkgreenblue"",""low nameability""]","left-right","[""lightred"",""darkgreenblue"",""low nameability""]","2","low nameability","16","left","iti",""
"html-button-response","89","171157","0.0-69.0","CAN_102","102","","","","","","513","","0","neonyellow","pink","[""neonyellow"",""pink"",""low nameability""]","left-right","[""neonyellow"",""pink"",""low nameability""]","2","low nameability","17","left","trigger",""
"html-button-response","90","171918","0.0-70.0-0.0","CAN_102","102","","","","","","755","<button class=""jspsych-btn""><img src=""stimuli/neonyellow.png"" style=""width: 200px;height: 200px;""></button>","0","neonyellow","pink","[""neonyellow"",""pink"",""low nameability""]","left-right","[""neonyellow"",""pink"",""low nameability""]","2","low nameability","17","left","response","1"
"html-audio-button-response","91","172123","0.0-70.0-1.0","CAN_102","102","","","","","","null","stimuli/bleep.m4a","null","neonyellow","pink","[""neonyellow"",""pink"",""low nameability""]","left-right","[""neonyellow"",""pink"",""low nameability""]","2","low nameability","17","left","audio_feedback","1"
"html-button-response","92","172647","0.0-71.0","CAN_102","102","","","","","","null","<button class=""jspsych-btn""><img src=""stimuli/white_square.png"" style=""width: 200px;height: 200px;""></button>","null","neonyellow","pink","[""neonyellow"",""pink"",""low nameability""]","left-right","[""neonyellow"",""pink"",""low nameability""]","2","low nameability","17","left","iti",""
"html-button-response","93","173175","0.0-72.0","CAN_102","102","","","","","","508","","0","blue","purple","[""blue"",""purple"",""high nameability""]","left-right","[""blue"",""purple"",""high nameability""]","2","high nameability","18","left","trigger",""
"html-button-response","94","173916","0.0-73.0-0.0","CAN_102","102","","","","","","734","<button class=""jspsych-btn""><img src=""stimuli/blue.png"" style=""width: 200px;height: 200px;""></button>","0","blue","purple","[""blue"",""purple"",""high nameability""]","left-right","[""blue"",""purple"",""high nameability""]","2","high nameability","18","left","response","1"
"html-audio-button-response","95","174122","0.0-73.0-1.0","CAN_102","102","","","","","","null","stimuli/bleep.m4a","null","blue","purple","[""blue"",""purple"",""high nameability""]","left-right","[""blue"",""purple"",""high nameability""]","2","high nameability","18","left","audio_feedback","1"
"html-button-response","96","174645","0.0-74.0","CAN_102","102","","","","","","null","<button class=""jspsych-btn""><img src=""stimuli/white_square.png"" style=""width: 200px;height: 200px;""></button>","null","blue","purple","[""blue"",""purple"",""high nameability""]","left-right","[""blue"",""purple"",""high nameability""]","2","high nameability","18","left","iti",""
"html-button-response","97","175390","0.0-75.0","CAN_102","102","","","","","","729","","0","mustard","neonyellow","[""mustard"",""neonyellow"",""low nameability""]","left-right","[""mustard"",""neonyellow"",""low nameability""]","2","low nameability","19","left","trigger",""
"html-button-response","98","176185","0.0-76.0-0.0","CAN_102","102","","","","","","787","<button class=""jspsych-btn""><img src=""stimuli/mustard.png"" style=""width: 200px;height: 200px;""></button>","0","mustard","neonyellow","[""mustard"",""neonyellow"",""low nameability""]","left-right","[""mustard"",""neonyellow"",""low nameability""]","2","low nameability","19","left","response","1"
"html-audio-button-response","99","176388","0.0-76.0-1.0","CAN_102","102","","","","","","null","stimuli/bleep.m4a","null","mustard","neonyellow","[""mustard"",""neonyellow"",""low nameability""]","left-right","[""mustard"",""neonyellow"",""low nameability""]","2","low nameability","19","left","audio_feedback","1"
"html-button-response","100","176912","0.0-77.0","CAN_102","102","","","","","","null","<button class=""jspsych-btn""><img src=""stimuli/white_square.png"" style=""width: 200px;height: 200px;""></button>","null","mustard","neonyellow","[""mustard"",""neonyellow"",""low nameability""]","left-right","[""mustard"",""neonyellow"",""low nameability""]","2","low nameability","19","left","iti",""
"html-button-response","101","177660","0.0-78.0","CAN_102","102","","","","","","732","","0","orange","blue","[""orange"",""blue"",""high nameability""]","left-right","[""orange"",""blue"",""high nameability""]","2","high nameability","20","left","trigger",""
"html-button-response","102","178382","0.0-79.0-0.0","CAN_102","102","","","","","","714","<button class=""jspsych-btn""><img src=""stimuli/orange.png"" style=""width: 200px;height: 200px;""></button>","0","orange","blue","[""orange"",""blue"",""high nameability""]","left-right","[""orange"",""blue"",""high nameability""]","2","high nameability","20","left","response","1"
"html-audio-button-response","103","178589","0.0-79.0-1.0","CAN_102","102","","","","","","null","stimuli/bleep.m4a","null","orange","blue","[""orange"",""blue"",""high nameability""]","left-right","[""orange"",""blue"",""high nameability""]","2","high nameability","20","left","audio_feedback","1"
"html-button-response","104","179110","0.0-80.0","CAN_102","102","","","","","","null","<button class=""jspsych-btn""><img src=""stimuli/white_square.png"" style=""width: 200px;height: 200px;""></button>","null","orange","blue","[""orange"",""blue"",""high nameability""]","left-right","[""orange"",""blue"",""high nameability""]","2","high nameability","20","left","iti",""
"pavlovia","105","179185","0.0-81.0","CAN_102","102","","","","","","","","","","","","","","","","","","",""
"pavlovia","106","179193","0.0-82.0","CAN_102","102","","","","","","","","","","","","","","","","","","",""
"html-audio-button-response","107","181165","0.0-83.0","CAN_102","102","","","","","","2056","stimuli/tada.m4a","0","","","","","","","","","","",""
"html-button-response","108","181793","0.0-84.0","CAN_102","102","","","","","","621","","0","","","","","","","","","","",""
"html-button-response","109","182693","0.0-85.0","CAN_102","102","","","","","","894","","0","pink","turquoise","[""pink"",""turquoise"",""low nameability""]","right-left","[""turquoise"",""pink""]","3","low nameability","21","right","trigger",""
"html-button-response","110","183333","0.0-86.0-0.0","CAN_102","102","","","","","","633","<button class=""jspsych-btn""><img src=""stimuli/pink.png"" style=""width: 200px;height: 200px;""></button>","1","pink","turquoise","[""pink"",""turquoise"",""low nameability""]","right-left","[""turquoise"",""pink""]","3","low nameability","21","right","response","1"
"html-audio-button-response","111","183539","0.0-86.0-1.0","CAN_102","102","","","","","","null","stimuli/bleep.m4a","null","pink","turquoise","[""pink"",""turquoise"",""low nameability""]","right-left","[""turquoise"",""pink""]","3","low nameability","21","right","audio_feedback","1"
"html-button-response","112","184053","0.0-87.0","CAN_102","102","","","","","","null","<button class=""jspsych-btn""><img src=""stimuli/white_square.png"" style=""width: 200px;height: 200px;""></button>","null","pink","turquoise","[""pink"",""turquoise"",""low nameability""]","right-left","[""turquoise"",""pink""]","3","low nameability","21","right","iti",""
"html-button-response","113","184584","0.0-88.0","CAN_102","102","","","","","","511","","0","darkgreenblue","turquoise","[""darkgreenblue"",""turquoise"",""low nameability""]","right-left","[""turquoise"",""darkgreenblue""]","3","low nameability","22","right","trigger",""
"html-button-response","114","185310","0.0-89.0-0.0","CAN_102","102","","","","","","718","<button class=""jspsych-btn""><img src=""stimuli/darkgreenblue.png"" style=""width: 200px;height: 200px;""></button>","1","darkgreenblue","turquoise","[""darkgreenblue"",""turquoise"",""low nameability""]","right-left","[""turquoise"",""darkgreenblue""]","3","low nameability","22","right","response","1"
"html-audio-button-response","115","185513","0.0-89.0-1.0","CAN_102","102","","","","","","null","stimuli/bleep.m4a","null","darkgreenblue","turquoise","[""darkgreenblue"",""turquoise"",""low nameability""]","right-left","[""turquoise"",""darkgreenblue""]","3","low nameability","22","right","audio_feedback","1"
"html-button-response","116","186037","0.0-90.0","CAN_102","102","","","","","","null","<button class=""jspsych-btn""><img src=""stimuli/white_square.png"" style=""width: 200px;height: 200px;""></button>","null","darkgreenblue","turquoise","[""darkgreenblue"",""turquoise"",""low nameability""]","right-left","[""turquoise"",""darkgreenblue""]","3","low nameability","22","right","iti",""
"html-button-response","117","186617","0.0-91.0","CAN_102","102","","","","","","553","","0","neonyellow","lightred","[""neonyellow"",""lightred"",""low nameability""]","left-right","[""neonyellow"",""lightred"",""low nameability""]","3","low nameability","23","left","trigger",""
"html-button-response","118","187401","0.0-92.0-0.0","CAN_102","102","","","","","","776","<button class=""jspsych-btn""><img src=""stimuli/neonyellow.png"" style=""width: 200px;height: 200px;""></button>","0","neonyellow","lightred","[""neonyellow"",""lightred"",""low nameability""]","left-right","[""neonyellow"",""lightred"",""low nameability""]","3","low nameability","23","left","response","1"
"html-audio-button-response","119","187604","0.0-92.0-1.0","CAN_102","102","","","","","","null","stimuli/bleep.m4a","null","neonyellow","lightred","[""neonyellow"",""lightred"",""low nameability""]","left-right","[""neonyellow"",""lightred"",""low nameability""]","3","low nameability","23","left","audio_feedback","1"
"html-button-response","120","188125","0.0-93.0","CAN_102","102","","","","","","null","<button class=""jspsych-btn""><img src=""stimuli/white_square.png"" style=""width: 200px;height: 200px;""></button>","null","neonyellow","lightred","[""neonyellow"",""lightred"",""low nameability""]","left-right","[""neonyellow"",""lightred"",""low nameability""]","3","low nameability","23","left","iti",""
"html-button-response","121","188674","0.0-94.0","CAN_102","102","","","","","","534","","0","turquoise","neonyellow","[""turquoise"",""neonyellow"",""low nameability""]","left-right","[""turquoise"",""neonyellow"",""low nameability""]","3","low nameability","24","left","trigger",""
"html-button-response","122","189533","0.0-95.0-0.0","CAN_102","102","","","","","","851","<button class=""jspsych-btn""><img src=""stimuli/turquoise.png"" style=""width: 200px;height: 200px;""></button>","0","turquoise","neonyellow","[""turquoise"",""neonyellow"",""low nameability""]","left-right","[""turquoise"",""neonyellow"",""low nameability""]","3","low nameability","24","left","response","1"
"html-audio-button-response","123","189735","0.0-95.0-1.0","CAN_102","102","","","","","","null","stimuli/bleep.m4a","null","turquoise","neonyellow","[""turquoise"",""neonyellow"",""low nameability""]","left-right","[""turquoise"",""neonyellow"",""low nameability""]","3","low nameability","24","left","audio_feedback","1"
"html-button-response","124","190251","0.0-96.0","CAN_102","102","","","","","","null","<button class=""jspsych-btn""><img src=""stimuli/white_square.png"" style=""width: 200px;height: 200px;""></button>","null","turquoise","neonyellow","[""turquoise"",""neonyellow"",""low nameability""]","left-right","[""turquoise"",""neonyellow"",""low nameability""]","3","low nameability","24","left","iti",""
"html-button-response","125","190766","0.0-97.0","CAN_102","102","","","","","","499","","0","purple","yellow","[""purple"",""yellow"",""high nameability""]","left-right","[""purple"",""yellow"",""high nameability""]","3","high nameability","25","left","trigger",""
"html-button-response","126","191566","0.0-98.0-0.0","CAN_102","102","","","","","","792","<button class=""jspsych-btn""><img src=""stimuli/purple.png"" style=""width: 200px;height: 200px;""></button>","0","purple","yellow","[""purple"",""yellow"",""high nameability""]","left-right","[""purple"",""yellow"",""high nameability""]","3","high nameability","25","left","response","1"
"html-audio-button-response","127","191772","0.0-98.0-1.0","CAN_102","102","","","","","","null","stimuli/bleep.m4a","null","purple","yellow","[""purple"",""yellow"",""high nameability""]","left-right","[""purple"",""yellow"",""high nameability""]","3","high nameability","25","left","audio_feedback","1"
"html-button-response","128","192288","0.0-99.0","CAN_102","102","","","","","","null","<button class=""jspsych-btn""><img src=""stimuli/white_square.png"" style=""width: 200px;height: 200px;""></button>","null","purple","yellow","[""purple"",""yellow"",""high nameability""]","left-right","[""purple"",""yellow"",""high nameability""]","3","high nameability","25","left","iti",""
"html-button-response","129","192814","0.0-100.0","CAN_102","102","","","","","","506","","0","red","orange","[""red"",""orange"",""high nameability""]","right-left","[""orange"",""red""]","3","high nameability","26","right","trigger",""
"html-button-response","130","193514","0.0-101.0-0.0","CAN_102","102","","","","","","694","<button class=""jspsych-btn""><img src=""stimuli/red.png"" style=""width: 200px;height: 200px;""></button>","1","red","orange","[""red"",""orange"",""high nameability""]","right-left","[""orange"",""red""]","3","high nameability","26","right","response","1"
"html-audio-button-response","131","193717","0.0-101.0-1.0","CAN_102","102","","","","","","null","stimuli/bleep.m4a","null","red","orange","[""red"",""orange"",""high nameability""]","right-left","[""orange"",""red""]","3","high nameability","26","right","audio_feedback","1"
"html-button-response","132","194239","0.0-102.0","CAN_102","102","","","","","","null","<button class=""jspsych-btn""><img src=""stimuli/white_square.png"" style=""width: 200px;height: 200px;""></button>","null","red","orange","[""red"",""orange"",""high nameability""]","right-left","[""orange"",""red""]","3","high nameability","26","right","iti",""
"html-button-response","133","194753","0.0-103.0","CAN_102","102","","","","","","495","","0","purple","brown","[""purple"",""brown"",""high nameability""]","left-right","[""purple"",""brown"",""high nameability""]","3","high nameability","27","left","trigger",""
"html-button-response","134","195489","0.0-104.0-0.0","CAN_102","102","","","","","","730","<button class=""jspsych-btn""><img src=""stimuli/purple.png"" style=""width: 200px;height: 200px;""></button>","0","purple","brown","[""purple"",""brown"",""high nameability""]","left-right","[""purple"",""brown"",""high nameability""]","3","high nameability","27","left","response","1"
"html-audio-button-response","135","195696","0.0-104.0-1.0","CAN_102","102","","","","","","null","stimuli/bleep.m4a","null","purple","brown","[""purple"",""brown"",""high nameability""]","left-right","[""purple"",""brown"",""high nameability""]","3","high nameability","27","left","audio_feedback","1"
"html-button-response","136","196215","0.0-105.0","CAN_102","102","","","","","","null","<button class=""jspsych-btn""><img src=""stimuli/white_square.png"" style=""width: 200px;height: 200px;""></button>","null","purple","brown","[""purple"",""brown"",""high nameability""]","left-right","[""purple"",""brown"",""high nameability""]","3","high nameability","27","left","iti",""
"html-button-response","137","196691","0.0-106.0","CAN_102","102","","","","","","460","","0","lightred","mustard","[""lightred"",""mustard"",""low nameability""]","left-right","[""lightred"",""mustard"",""low nameability""]","3","low nameability","28","left","trigger",""
"html-button-response","138","197439","0.0-107.0-0.0","CAN_102","102","","","","","","741","<button class=""jspsych-btn""><img src=""stimuli/lightred.png"" style=""width: 200px;height: 200px;""></button>","0","lightred","mustard","[""lightred"",""mustard"",""low nameability""]","left-right","[""lightred"",""mustard"",""low nameability""]","3","low nameability","28","left","response","1"
"html-audio-button-response","139","197640","0.0-107.0-1.0","CAN_102","102","","","","","","null","stimuli/bleep.m4a","null","lightred","mustard","[""lightred"",""mustard"",""low nameability""]","left-right","[""lightred"",""mustard"",""low nameability""]","3","low nameability","28","left","audio_feedback","1"
"html-button-response","140","198161","0.0-108.0","CAN_102","102","","","","","","null","<button class=""jspsych-btn""><img src=""stimuli/white_square.png"" style=""width: 200px;height: 200px;""></button>","null","lightred","mustard","[""lightred"",""mustard"",""low nameability""]","left-right","[""lightred"",""mustard"",""low nameability""]","3","low nameability","28","left","iti",""
"html-button-response","141","198695","0.0-109.0","CAN_102","102","","","","","","508","","0","blue","brown","[""blue"",""brown"",""high nameability""]","right-left","[""brown"",""blue""]","3","high nameability","29","right","trigger",""
"html-button-response","142","199351","0.0-110.0-0.0","CAN_102","102","","","","","","647","<button class=""jspsych-btn""><img src=""stimuli/blue.png"" style=""width: 200px;height: 200px;""></button>","1","blue","brown","[""blue"",""brown"",""high nameability""]","right-left","[""brown"",""blue""]","3","high nameability","29","right","response","1"
"html-audio-button-response","143","199550","0.0-110.0-1.0","CAN_102","102","","","","","","null","stimuli/bleep.m4a","null","blue","brown","[""blue"",""brown"",""high nameability""]","right-left","[""brown"",""blue""]","3","high nameability","29","right","audio_feedback","1"
"html-button-response","144","200067","0.0-111.0","CAN_102","102","","","","","","null","<button class=""jspsych-btn""><img src=""stimuli/white_square.png"" style=""width: 200px;height: 200px;""></button>","null","blue","brown","[""blue"",""brown"",""high nameability""]","right-left","[""brown"",""blue""]","3","high nameability","29","right","iti",""
"html-button-response","145","200541","0.0-112.0","CAN_102","102","","","","","","455","","0","turquoise","lightred","[""turquoise"",""lightred"",""low nameability""]","right-left","[""lightred"",""turquoise""]","3","low nameability","30","right","trigger",""
"html-button-response","146","201303","0.0-113.0-0.0","CAN_102","102","","","","","","754","<button class=""jspsych-btn""><img src=""stimuli/turquoise.png"" style=""width: 200px;height: 200px;""></button>","1","turquoise","lightred","[""turquoise"",""lightred"",""low nameability""]","right-left","[""lightred"",""turquoise""]","3","low nameability","30","right","response","1"
"html-audio-button-response","147","201505","0.0-113.0-1.0","CAN_102","102","","","","","","null","stimuli/bleep.m4a","null","turquoise","lightred","[""turquoise"",""lightred"",""low nameability""]","right-left","[""lightred"",""turquoise""]","3","low nameability","30","right","audio_feedback","1"
"html-button-response","148","202019","0.0-114.0","CAN_102","102","","","","","","null","<button class=""jspsych-btn""><img src=""stimuli/white_square.png"" style=""width: 200px;height: 200px;""></button>","null","turquoise","lightred","[""turquoise"",""lightred"",""low nameability""]","right-left","[""lightred"",""turquoise""]","3","low nameability","30","right","iti",""
"pavlovia","149","202113","0.0-115.0","CAN_102","102","","","","","","","","","","","","","","","","","","",""
"pavlovia","150","202127","0.0-116.0","CAN_102","102","","","","","","","","","","","","","","","","","","",""
"html-audio-button-response","151","204029","0.0-117.0","CAN_102","102","","","","","","2011","stimuli/tada.m4a","0","","","","","","","","","","",""
"html-button-response","152","204878","0.0-118.0","CAN_102","102","","","","","","844","","0","","","","","","","","","","",""
"html-button-response","153","205845","0.0-119.0","CAN_102","102","","","","","","963","","0","darkgreenblue","lightred","[""darkgreenblue"",""lightred"",""low nameability""]","right-left","[""lightred"",""darkgreenblue""]","4","low nameability","31","right","trigger",""
"html-button-response","154","206561","0.0-120.0-0.0","CAN_102","102","","","","","","709","<button class=""jspsych-btn""><img src=""stimuli/darkgreenblue.png"" style=""width: 200px;height: 200px;""></button>","1","darkgreenblue","lightred","[""darkgreenblue"",""lightred"",""low nameability""]","right-left","[""lightred"",""darkgreenblue""]","4","low nameability","31","right","response","1"
"html-audio-button-response","155","206765","0.0-120.0-1.0","CAN_102","102","","","","","","null","stimuli/bleep.m4a","null","darkgreenblue","lightred","[""darkgreenblue"",""lightred"",""low nameability""]","right-left","[""lightred"",""darkgreenblue""]","4","low nameability","31","right","audio_feedback","1"
"html-button-response","156","207284","0.0-121.0","CAN_102","102","","","","","","null","<button class=""jspsych-btn""><img src=""stimuli/white_square.png"" style=""width: 200px;height: 200px;""></button>","null","darkgreenblue","lightred","[""darkgreenblue"",""lightred"",""low nameability""]","right-left","[""lightred"",""darkgreenblue""]","4","low nameability","31","right","iti",""
"html-button-response","157","207829","0.0-122.0","CAN_102","102","","","","","","528","","0","brown","blue","[""brown"",""blue"",""high nameability""]","left-right","[""brown"",""blue"",""high nameability""]","4","high nameability","32","left","trigger",""
"html-button-response","158","208578","0.0-123.0-0.0","CAN_102","102","","","","","","741","<button class=""jspsych-btn""><img src=""stimuli/brown.png"" style=""width: 200px;height: 200px;""></button>","0","brown","blue","[""brown"",""blue"",""high nameability""]","left-right","[""brown"",""blue"",""high nameability""]","4","high nameability","32","left","response","1"
"html-audio-button-response","159","208781","0.0-123.0-1.0","CAN_102","102","","","","","","null","stimuli/bleep.m4a","null","brown","blue","[""brown"",""blue"",""high nameability""]","left-right","[""brown"",""blue"",""high nameability""]","4","high nameability","32","left","audio_feedback","1"
"html-button-response","160","209298","0.0-124.0","CAN_102","102","","","","","","null","<button class=""jspsych-btn""><img src=""stimuli/white_square.png"" style=""width: 200px;height: 200px;""></button>","null","brown","blue","[""brown"",""blue"",""high nameability""]","left-right","[""brown"",""blue"",""high nameability""]","4","high nameability","32","left","iti",""
"html-button-response","161","209853","0.0-125.0","CAN_102","102","","","","","","533","","0","orange","red","[""orange"",""red"",""high nameability""]","right-left","[""red"",""orange""]","4","high nameability","33","right","trigger",""
"html-button-response","162","210585","0.0-126.0-0.0","CAN_102","102","","","","","","722","<button class=""jspsych-btn""><img src=""stimuli/orange.png"" style=""width: 200px;height: 200px;""></button>","1","orange","red","[""orange"",""red"",""high nameability""]","right-left","[""red"",""orange""]","4","high nameability","33","right","response","1"
"html-audio-button-response","163","210788","0.0-126.0-1.0","CAN_102","102","","","","","","null","stimuli/bleep.m4a","null","orange","red","[""orange"",""red"",""high nameability""]","right-left","[""red"",""orange""]","4","high nameability","33","right","audio_feedback","1"
"html-button-response","164","211310","0.0-127.0","CAN_102","102","","","","","","null","<button class=""jspsych-btn""><img src=""stimuli/white_square.png"" style=""width: 200px;height: 200px;""></button>","null","orange","red","[""orange"",""red"",""high nameability""]","right-left","[""red"",""orange""]","4","high nameability","33","right","iti",""
"html-button-response","165","211756","0.0-128.0","CAN_102","102","","","","","","428","","0","pink","darkgreenblue","[""pink"",""darkgreenblue"",""low nameability""]","left-right","[""pink"",""darkgreenblue"",""low nameability""]","4","low nameability","34","left","trigger",""
"html-button-response","166","212517","0.0-129.0-0.0","CAN_102","102","","","","","","754","<button class=""jspsych-btn""><img src=""stimuli/pink.png"" style=""width: 200px;height: 200px;""></button>","0","pink","darkgreenblue","[""pink"",""darkgreenblue"",""low nameability""]","left-right","[""pink"",""darkgreenblue"",""low nameability""]","4","low nameability","34","left","response","1"
"html-audio-button-response","167","212725","0.0-129.0-1.0","CAN_102","102","","","","","","null","stimuli/bleep.m4a","null","pink","darkgreenblue","[""pink"",""darkgreenblue"",""low nameability""]","left-right","[""pink"",""darkgreenblue"",""low nameability""]","4","low nameability","34","left","audio_feedback","1"
"html-button-response","168","213245","0.0-130.0","CAN_102","102","","","","","","null","<button class=""jspsych-btn""><img src=""stimuli/white_square.png"" style=""width: 200px;height: 200px;""></button>","null","pink","darkgreenblue","[""pink"",""darkgreenblue"",""low nameability""]","left-right","[""pink"",""darkgreenblue"",""low nameability""]","4","low nameability","34","left","iti",""
"html-button-response","169","213726","0.0-131.0","CAN_102","102","","","","","","462","","0","brown","orange","[""brown"",""orange"",""high nameability""]","left-right","[""brown"",""orange"",""high nameability""]","4","high nameability","35","left","trigger",""
"html-button-response","170","214602","0.0-132.0-0.0","CAN_102","102","","","","","","869","<button class=""jspsych-btn""><img src=""stimuli/brown.png"" style=""width: 200px;height: 200px;""></button>","0","brown","orange","[""brown"",""orange"",""high nameability""]","left-right","[""brown"",""orange"",""high nameability""]","4","high nameability","35","left","response","1"
"html-audio-button-response","171","214807","0.0-132.0-1.0","CAN_102","102","","","","","","null","stimuli/bleep.m4a","null","brown","orange","[""brown"",""orange"",""high nameability""]","left-right","[""brown"",""orange"",""high nameability""]","4","high nameability","35","left","audio_feedback","1"
"html-button-response","172","215320","0.0-133.0","CAN_102","102","","","","","","null","<button class=""jspsych-btn""><img src=""stimuli/white_square.png"" style=""width: 200px;height: 200px;""></button>","null","brown","orange","[""brown"",""orange"",""high nameability""]","left-right","[""brown"",""orange"",""high nameability""]","4","high nameability","35","left","iti",""
"html-button-response","173","215793","0.0-134.0","CAN_102","102","","","","","","455","","0","neonyellow","mustard","[""neonyellow"",""mustard"",""low nameability""]","right-left","[""mustard"",""neonyellow""]","4","low nameability","36","right","trigger",""
"html-button-response","174","216456","0.0-135.0-0.0","CAN_102","102","","","","","","656","<button class=""jspsych-btn""><img src=""stimuli/neonyellow.png"" style=""width: 200px;height: 200px;""></button>","1","neonyellow","mustard","[""neonyellow"",""mustard"",""low nameability""]","right-left","[""mustard"",""neonyellow""]","4","low nameability","36","right","response","1"
"html-audio-button-response","175","216660","0.0-135.0-1.0","CAN_102","102","","","","","","null","stimuli/bleep.m4a","null","neonyellow","mustard","[""neonyellow"",""mustard"",""low nameability""]","right-left","[""mustard"",""neonyellow""]","4","low nameability","36","right","audio_feedback","1"
"html-button-response","176","217177","0.0-136.0","CAN_102","102","","","","","","null","<button class=""jspsych-btn""><img src=""stimuli/white_square.png"" style=""width: 200px;height: 200px;""></button>","null","neonyellow","mustard","[""neonyellow"",""mustard"",""low nameability""]","right-left","[""mustard"",""neonyellow""]","4","low nameability","36","right","iti",""
"html-button-response","177","217671","0.0-137.0","CAN_102","102","","","","","","477","","0","yellow","orange","[""yellow"",""orange"",""high nameability""]","right-left","[""orange"",""yellow""]","4","high nameability","37","right","trigger",""
"html-button-response","178","218367","0.0-138.0-0.0","CAN_102","102","","","","","","689","<button class=""jspsych-btn""><img src=""stimuli/yellow.png"" style=""width: 200px;height: 200px;""></button>","1","yellow","orange","[""yellow"",""orange"",""high nameability""]","right-left","[""orange"",""yellow""]","4","high nameability","37","right","response","1"
"html-audio-button-response","179","218571","0.0-138.0-1.0","CAN_102","102","","","","","","null","stimuli/bleep.m4a","null","yellow","orange","[""yellow"",""orange"",""high nameability""]","right-left","[""orange"",""yellow""]","4","high nameability","37","right","audio_feedback","1"
"html-button-response","180","219096","0.0-139.0","CAN_102","102","","","","","","null","<button class=""jspsych-btn""><img src=""stimuli/white_square.png"" style=""width: 200px;height: 200px;""></button>","null","yellow","orange","[""yellow"",""orange"",""high nameability""]","right-left","[""orange"",""yellow""]","4","high nameability","37","right","iti",""
"html-button-response","181","219634","0.0-140.0","CAN_102","102","","","","","","503","","0","red","yellow","[""red"",""yellow"",""high nameability""]","right-left","[""yellow"",""red""]","4","high nameability","38","right","trigger",""
"html-button-response","182","220365","0.0-141.0-0.0","CAN_102","102","","","","","","720","<button class=""jspsych-btn""><img src=""stimuli/red.png"" style=""width: 200px;height: 200px;""></button>","1","red","yellow","[""red"",""yellow"",""high nameability""]","right-left","[""yellow"",""red""]","4","high nameability","38","right","response","1"
"html-audio-button-response","183","220572","0.0-141.0-1.0","CAN_102","102","","","","","","null","stimuli/bleep.m4a","null","red","yellow","[""red"",""yellow"",""high nameability""]","right-left","[""yellow"",""red""]","4","high nameability","38","right","audio_feedback","1"
"html-button-response","184","221092","0.0-142.0","CAN_102","102","","","","","","null","<button class=""jspsych-btn""><img src=""stimuli/white_square.png"" style=""width: 200px;height: 200px;""></button>","null","red","yellow","[""red"",""yellow"",""high nameability""]","right-left","[""yellow"",""red""]","4","high nameability","38","right","iti",""
"html-button-response","185","221619","0.0-143.0","CAN_102","102","","","","","","510","","0","turquoise","pink","[""turquoise"",""pink"",""low nameability""]","left-right","[""turquoise"",""pink"",""low nameability""]","4","low nameability","39","left","trigger",""
"html-button-response","186","222326","0.0-144.0-0.0","CAN_102","102","","","","","","703","<button class=""jspsych-btn""><img src=""stimuli/turquoise.png"" style=""width: 200px;height: 200px;""></button>","0","turquoise","pink","[""turquoise"",""pink"",""low nameability""]","left-right","[""turquoise"",""pink"",""low nameability""]","4","low nameability","39","left","response","1"
"html-audio-button-response","187","222532","0.0-144.0-1.0","CAN_102","102","","","","","","null","stimuli/bleep.m4a","null","turquoise","pink","[""turquoise"",""pink"",""low nameability""]","left-right","[""turquoise"",""pink"",""low nameability""]","4","low nameability","39","left","audio_feedback","1"
"html-button-response","188","223055","0.0-145.0","CAN_102","102","","","","","","null","<button class=""jspsych-btn""><img src=""stimuli/white_square.png"" style=""width: 200px;height: 200px;""></button>","null","turquoise","pink","[""turquoise"",""pink"",""low nameability""]","left-right","[""turquoise"",""pink"",""low nameability""]","4","low nameability","39","left","iti",""
"html-button-response","189","223576","0.0-146.0","CAN_102","102","","","","","","504","","0","orange","purple","[""orange"",""purple"",""high nameability""]","left-right","[""orange"",""purple"",""high nameability""]","4","high nameability","40","left","trigger",""
"html-button-response","190","224280","0.0-147.0-0.0","CAN_102","102","","","","","","698","<button class=""jspsych-btn""><img src=""stimuli/orange.png"" style=""width: 200px;height: 200px;""></button>","0","orange","purple","[""orange"",""purple"",""high nameability""]","left-right","[""orange"",""purple"",""high nameability""]","4","high nameability","40","left","response","1"
"html-audio-button-response","191","224485","0.0-147.0-1.0","CAN_102","102","","","","","","null","stimuli/bleep.m4a","null","orange","purple","[""orange"",""purple"",""high nameability""]","left-right","[""orange"",""purple"",""high nameability""]","4","high nameability","40","left","audio_feedback","1"
"html-button-response","192","225000","0.0-148.0","CAN_102","102","","","","","","null","<button class=""jspsych-btn""><img src=""stimuli/white_square.png"" style=""width: 200px;height: 200px;""></button>","null","orange","purple","[""orange"",""purple"",""high nameability""]","left-right","[""orange"",""purple"",""high nameability""]","4","high nameability","40","left","iti",""
"pavlovia","193","225057","0.0-149.0","CAN_102","102","","","","","","","","","","","","","","","","","","",""
"pavlovia","194","225063","0.0-150.0","CAN_102","102","","","","","","","","","","","","","","","","","","",""
"html-audio-button-response","195","226767","0.0-151.0","CAN_102","102","","","","","","1763","stimuli/tada.m4a","0","","","","","","","","","","",""
"html-button-response","196","227420","0.0-152.0","CAN_102","102","","","","","","647","","0","","","","","","","","","","",""
"html-button-response","197","228193","0.0-153.0","CAN_102","102","","","","","","768","","0","blue","yellow","[""blue"",""yellow"",""high nameability""]","left-right","[""blue"",""yellow"",""high nameability""]","5","high nameability","41","left","trigger",""
"html-button-response","198","228942","0.0-154.0-0.0","CAN_102","102","","","","","","740","<button class=""jspsych-btn""><img src=""stimuli/blue.png"" style=""width: 200px;height: 200px;""></button>","0","blue","yellow","[""blue"",""yellow"",""high nameability""]","left-right","[""blue"",""yellow"",""high nameability""]","5","high nameability","41","left","response","1"
"html-audio-button-response","199","229144","0.0-154.0-1.0","CAN_102","102","","","","","","null","stimuli/bleep.m4a","null","blue","yellow","[""blue"",""yellow"",""high nameability""]","left-right","[""blue"",""yellow"",""high nameability""]","5","high nameability","41","left","audio_feedback","1"
"html-button-response","200","229663","0.0-155.0","CAN_102","102","","","","","","null","<button class=""jspsych-btn""><img src=""stimuli/white_square.png"" style=""width: 200px;height: 200px;""></button>","null","blue","yellow","[""blue"",""yellow"",""high nameability""]","left-right","[""blue"",""yellow"",""high nameability""]","5","high nameability","41","left","iti",""
"html-button-response","201","230104","0.0-156.0","CAN_102","102","","","","","","423","","0","yellow","brown","[""yellow"",""brown"",""high nameability""]","right-left","[""brown"",""yellow""]","5","high nameability","42","right","trigger",""
"html-button-response","202","230686","0.0-157.0-0.0","CAN_102","102","","","","","","572","<button class=""jspsych-btn""><img src=""stimuli/yellow.png"" style=""width: 200px;height: 200px;""></button>","1","yellow","brown","[""yellow"",""brown"",""high nameability""]","right-left","[""brown"",""yellow""]","5","high nameability","42","right","response","1"
"html-audio-button-response","203","230895","0.0-157.0-1.0","CAN_102","102","","","","","","null","stimuli/bleep.m4a","null","yellow","brown","[""yellow"",""brown"",""high nameability""]","right-left","[""brown"",""yellow""]","5","high nameability","42","right","audio_feedback","1"
"html-button-response","204","231410","0.0-158.0","CAN_102","102","","","","","","null","<button class=""jspsych-btn""><img src=""stimuli/white_square.png"" style=""width: 200px;height: 200px;""></button>","null","yellow","brown","[""yellow"",""brown"",""high nameability""]","right-left","[""brown"",""yellow""]","5","high nameability","42","right","iti",""
"html-button-response","205","231849","0.0-159.0","CAN_102","102","","","","","","425","","0","brown","yellow","[""brown"",""yellow"",""high nameability""]","left-right","[""brown"",""yellow"",""high nameability""]","5","high nameability","43","left","trigger",""
"html-button-response","206","232554","0.0-160.0-0.0","CAN_102","102","","","","","","699","<button class=""jspsych-btn""><img src=""stimuli/brown.png"" style=""width: 200px;height: 200px;""></button>","0","brown","yellow","[""brown"",""yellow"",""high nameability""]","left-right","[""brown"",""yellow"",""high nameability""]","5","high nameability","43","left","response","1"
"html-audio-button-response","207","232756","0.0-160.0-1.0","CAN_102","102","","","","","","null","stimuli/bleep.m4a","null","brown","yellow","[""brown"",""yellow"",""high nameability""]","left-right","[""brown"",""yellow"",""high nameability""]","5","high nameability","43","left","audio_feedback","1"
"html-button-response","208","233274","0.0-161.0","CAN_102","102","","","","","","null","<button class=""jspsych-btn""><img src=""stimuli/white_square.png"" style=""width: 200px;height: 200px;""></button>","null","brown","yellow","[""brown"",""yellow"",""high nameability""]","left-right","[""brown"",""yellow"",""high nameability""]","5","high nameability","43","left","iti",""
"html-button-response","209","233744","0.0-162.0","CAN_102","102","","","","","","452","","0","mustard","turquoise","[""mustard"",""turquoise"",""low nameability""]","left-right","[""mustard"",""turquoise"",""low nameability""]","5","low nameability","44","left","trigger",""
"html-button-response","210","234455","0.0-163.0-0.0","CAN_102","102","","","","","","703","<button class=""jspsych-btn""><img src=""stimuli/mustard.png"" style=""width: 200px;height: 200px;""></button>","0","mustard","turquoise","[""mustard"",""turquoise"",""low nameability""]","left-right","[""mustard"",""turquoise"",""low nameability""]","5","low nameability","44","left","response","1"
"html-audio-button-response","211","234661","0.0-163.0-1.0","CAN_102","102","","","","","","null","stimuli/bleep.m4a","null","mustard","turquoise","[""mustard"",""turquoise"",""low nameability""]","left-right","[""mustard"",""turquoise"",""low nameability""]","5","low nameability","44","left","audio_feedback","1"
"html-button-response","212","235183","0.0-164.0","CAN_102","102","","","","","","null","<button class=""jspsych-btn""><img src=""stimuli/white_square.png"" style=""width: 200px;height: 200px;""></button>","null","mustard","turquoise","[""mustard"",""turquoise"",""low nameability""]","left-right","[""mustard"",""turquoise"",""low nameability""]","5","low nameability","44","left","iti",""
"html-button-response","213","235698","0.0-165.0","CAN_102","102","","","","","","499","","0","blue","red","[""blue"",""red"",""high nameability""]","left-right","[""blue"",""red"",""high nameability""]","5","high nameability","45","left","trigger",""
"html-button-response","214","236410","0.0-166.0-0.0","CAN_102","102","","","","","","703","<button class=""jspsych-btn""><img src=""stimuli/blue.png"" style=""width: 200px;height: 200px;""></button>","0","blue","red","[""blue"",""red"",""high nameability""]","left-right","[""blue"",""red"",""high nameability""]","5","high nameability","45","left","response","1"
"html-audio-button-response","215","236611","0.0-166.0-1.0","CAN_102","102","","","","","","null","stimuli/bleep.m4a","null","blue","red","[""blue"",""red"",""high nameability""]","left-right","[""blue"",""red"",""high nameability""]","5","high nameability","45","left","audio_feedback","1"
"html-button-response","216","237126","0.0-167.0","CAN_102","102","","","","","","null","<button class=""jspsych-btn""><img src=""stimuli/white_square.png"" style=""width: 200px;height: 200px;""></button>","null","blue","red","[""blue"",""red"",""high nameability""]","left-right","[""blue"",""red"",""high nameability""]","5","high nameability","45","left","iti",""
"html-button-response","217","237547","0.0-168.0","CAN_102","102","","","","","","403","","0","red","purple","[""red"",""purple"",""high nameability""]","left-right","[""red"",""purple"",""high nameability""]","5","high nameability","46","left","trigger",""
"html-button-response","218","238274","0.0-169.0-0.0","CAN_102","102","","","","","","718","<button class=""jspsych-btn""><img src=""stimuli/red.png"" style=""width: 200px;height: 200px;""></button>","0","red","purple","[""red"",""purple"",""high nameability""]","left-right","[""red"",""purple"",""high nameability""]","5","high nameability","46","left","response","1"
"html-audio-button-response","219","238477","0.0-169.0-1.0","CAN_102","102","","","","","","null","stimuli/bleep.m4a","null","red","purple","[""red"",""purple"",""high nameability""]","left-right","[""red"",""purple"",""high nameability""]","5","high nameability","46","left","audio_feedback","1"
"html-button-response","220","238996","0.0-170.0","CAN_102","102","","","","","","null","<button class=""jspsych-btn""><img src=""stimuli/white_square.png"" style=""width: 200px;height: 200px;""></button>","null","red","purple","[""red"",""purple"",""high nameability""]","left-right","[""red"",""purple"",""high nameability""]","5","high nameability","46","left","iti",""
"html-button-response","221","239463","0.0-171.0","CAN_102","102","","","","","","446","","0","turquoise","mustard","[""turquoise"",""mustard"",""low nameability""]","right-left","[""mustard"",""turquoise""]","5","low nameability","47","right","trigger",""
"html-button-response","222","240152","0.0-172.0-0.0","CAN_102","102","","","","","","682","<button class=""jspsych-btn""><img src=""stimuli/turquoise.png"" style=""width: 200px;height: 200px;""></button>","1","turquoise","mustard","[""turquoise"",""mustard"",""low nameability""]","right-left","[""mustard"",""turquoise""]","5","low nameability","47","right","response","1"
"html-audio-button-response","223","240356","0.0-172.0-1.0","CAN_102","102","","","","","","null","stimuli/bleep.m4a","null","turquoise","mustard","[""turquoise"",""mustard"",""low nameability""]","right-left","[""mustard"",""turquoise""]","5","low nameability","47","right","audio_feedback","1"
"html-button-response","224","240880","0.0-173.0","CAN_102","102","","","","","","null","<button class=""jspsych-btn""><img src=""stimuli/white_square.png"" style=""width: 200px;height: 200px;""></button>","null","turquoise","mustard","[""turquoise"",""mustard"",""low nameability""]","right-left","[""mustard"",""turquoise""]","5","low nameability","47","right","iti",""
"html-button-response","225","241362","0.0-174.0","CAN_102","102","","","","","","467","","0","mustard","lightred","[""mustard"",""lightred"",""low nameability""]","right-left","[""lightred"",""mustard""]","5","low nameability","48","right","trigger",""
"html-button-response","226","241992","0.0-175.0-0.0","CAN_102","102","","","","","","623","<button class=""jspsych-btn""><img src=""stimuli/mustard.png"" style=""width: 200px;height: 200px;""></button>","1","mustard","lightred","[""mustard"",""lightred"",""low nameability""]","right-left","[""lightred"",""mustard""]","5","low nameability","48","right","response","1"
"html-audio-button-response","227","242196","0.0-175.0-1.0","CAN_102","102","","","","","","null","stimuli/bleep.m4a","null","mustard","lightred","[""mustard"",""lightred"",""low nameability""]","right-left","[""lightred"",""mustard""]","5","low nameability","48","right","audio_feedback","1"
"html-button-response","228","242711","0.0-176.0","CAN_102","102","","","","","","null","<button class=""jspsych-btn""><img src=""stimuli/white_square.png"" style=""width: 200px;height: 200px;""></button>","null","mustard","lightred","[""mustard"",""lightred"",""low nameability""]","right-left","[""lightred"",""mustard""]","5","low nameability","48","right","iti",""
"html-button-response","229","243208","0.0-177.0","CAN_102","102","","","","","","474","","0","brown","purple","[""brown"",""purple"",""high nameability""]","left-right","[""brown"",""purple"",""high nameability""]","5","high nameability","49","left","trigger",""
"html-button-response","230","243929","0.0-178.0-0.0","CAN_102","102","","","","","","715","<button class=""jspsych-btn""><img src=""stimuli/brown.png"" style=""width: 200px;height: 200px;""></button>","0","brown","purple","[""brown"",""purple"",""high nameability""]","left-right","[""brown"",""purple"",""high nameability""]","5","high nameability","49","left","response","1"
"html-audio-button-response","231","244131","0.0-178.0-1.0","CAN_102","102","","","","","","null","stimuli/bleep.m4a","null","brown","purple","[""brown"",""purple"",""high nameability""]","left-right","[""brown"",""purple"",""high nameability""]","5","high nameability","49","left","audio_feedback","1"
"html-button-response","232","244643","0.0-179.0","CAN_102","102","","","","","","null","<button class=""jspsych-btn""><img src=""stimuli/white_square.png"" style=""width: 200px;height: 200px;""></button>","null","brown","purple","[""brown"",""purple"",""high nameability""]","left-right","[""brown"",""purple"",""high nameability""]","5","high nameability","49","left","iti",""
"html-button-response","233","245297","0.0-180.0","CAN_102","102","","","","","","638","","0","orange","yellow","[""orange"",""yellow"",""high nameability""]","right-left","[""yellow"",""orange""]","5","high nameability","50","right","trigger",""
"html-button-response","234","245929","0.0-181.0-0.0","CAN_102","102","","","","","","625","<button class=""jspsych-btn""><img src=""stimuli/orange.png"" style=""width: 200px;height: 200px;""></button>","1","orange","yellow","[""orange"",""yellow"",""high nameability""]","right-left","[""yellow"",""orange""]","5","high nameability","50","right","response","1"
"html-audio-button-response","235","246133","0.0-181.0-1.0","CAN_102","102","","","","","","null","stimuli/bleep.m4a","null","orange","yellow","[""orange"",""yellow"",""high nameability""]","right-left","[""yellow"",""orange""]","5","high nameability","50","right","audio_feedback","1"
"html-button-response","236","246649","0.0-182.0","CAN_102","102","","","","","","null","<button class=""jspsych-btn""><img src=""stimuli/white_square.png"" style=""width: 200px;height: 200px;""></button>","null","orange","yellow","[""orange"",""yellow"",""high nameability""]","right-left","[""yellow"",""orange""]","5","high nameability","50","right","iti",""
"pavlovia","237","246708","0.0-183.0","CAN_102","102","","","","","","","","","","","","","","","","","","",""
"pavlovia","238","246717","0.0-184.0","CAN_102","102","","","","","","","","","","","","","","","","","","",""
"html-audio-button-response","239","248613","0.0-185.0","CAN_102","102","","","","","","1963","stimuli/tada.m4a","0","","","","","","","","","","",""
"html-button-response","240","250248","0.0-186.0","CAN_102","102","","","","","","1628","","0","","","","","","","","","","",""
"html-button-response","241","250984","0.0-187.0","CAN_102","102","","","","","","731","","0","purple","red","[""purple"",""red"",""high nameability""]","left-right","[""purple"",""red"",""high nameability""]","6","high nameability","51","left","trigger",""
"html-button-response","242","251645","0.0-188.0-0.0","CAN_102","102","","","","","","656","<button class=""jspsych-btn""><img src=""stimuli/purple.png"" style=""width: 200px;height: 200px;""></button>","0","purple","red","[""purple"",""red"",""high nameability""]","left-right","[""purple"",""red"",""high nameability""]","6","high nameability","51","left","response","1"
"html-audio-button-response","243","251849","0.0-188.0-1.0","CAN_102","102","","","","","","null","stimuli/bleep.m4a","null","purple","red","[""purple"",""red"",""high nameability""]","left-right","[""purple"",""red"",""high nameability""]","6","high nameability","51","left","audio_feedback","1"
"html-button-response","244","252368","0.0-189.0","CAN_102","102","","","","","","null","<button class=""jspsych-btn""><img src=""stimuli/white_square.png"" style=""width: 200px;height: 200px;""></button>","null","purple","red","[""purple"",""red"",""high nameability""]","left-right","[""purple"",""red"",""high nameability""]","6","high nameability","51","left","iti",""
"html-button-response","245","252823","0.0-190.0","CAN_102","102","","","","","","439","","0","brown","red","[""brown"",""red"",""high nameability""]","left-right","[""brown"",""red"",""high nameability""]","6","high nameability","52","left","trigger",""
"html-button-response","246","253485","0.0-191.0-0.0","CAN_102","102","","","","","","654","<button class=""jspsych-btn""><img src=""stimuli/brown.png"" style=""width: 200px;height: 200px;""></button>","0","brown","red","[""brown"",""red"",""high nameability""]","left-right","[""brown"",""red"",""high nameability""]","6","high nameability","52","left","response","1"
"html-audio-button-response","247","253688","0.0-191.0-1.0","CAN_102","102","","","","","","null","stimuli/bleep.m4a","null","brown","red","[""brown"",""red"",""high nameability""]","left-right","[""brown"",""red"",""high nameability""]","6","high nameability","52","left","audio_feedback","1"
"html-button-response","248","254208","0.0-192.0","CAN_102","102","","","","","","null","<button class=""jspsych-btn""><img src=""stimuli/white_square.png"" style=""width: 200px;height: 200px;""></button>","null","brown","red","[""brown"",""red"",""high nameability""]","left-right","[""brown"",""red"",""high nameability""]","6","high nameability","52","left","iti",""
"html-button-response","249","254679","0.0-193.0","CAN_102","102","","","","","","454","","0","pink","lightred","[""pink"",""lightred"",""low nameability""]","right-left","[""lightred"",""pink""]","6","low nameability","53","right","trigger",""
"html-button-response","250","255412","0.0-194.0-0.0","CAN_102","102","","","","","","726","<button class=""jspsych-btn""><img src=""stimuli/pink.png"" style=""width: 200px;height: 200px;""></button>","1","pink","lightred","[""pink"",""lightred"",""low nameability""]","right-left","[""lightred"",""pink""]","6","low nameability","53","right","response","1"
"html-audio-button-response","251","255616","0.0-194.0-1.0","CAN_102","102","","","","","","null","stimuli/bleep.m4a","null","pink","lightred","[""pink"",""lightred"",""low nameability""]","right-left","[""lightred"",""pink""]","6","low nameability","53","right","audio_feedback","1"
"html-button-response","252","256137","0.0-195.0","CAN_102","102","","","","","","null","<button class=""jspsych-btn""><img src=""stimuli/white_square.png"" style=""width: 200px;height: 200px;""></button>","null","pink","lightred","[""pink"",""lightred"",""low nameability""]","right-left","[""lightred"",""pink""]","6","low nameability","53","right","iti",""
"html-button-response","253","256657","0.0-196.0","CAN_102","102","","","","","","505","","0","neonyellow","turquoise","[""neonyellow"",""turquoise"",""low nameability""]","right-left","[""turquoise"",""neonyellow""]","6","low nameability","54","right","trigger",""
"html-button-response","254","257280","0.0-197.0-0.0","CAN_102","102","","","","","","616","<button class=""jspsych-btn""><img src=""stimuli/neonyellow.png"" style=""width: 200px;height: 200px;""></button>","1","neonyellow","turquoise","[""neonyellow"",""turquoise"",""low nameability""]","right-left","[""turquoise"",""neonyellow""]","6","low nameability","54","right","response","1"
"html-audio-button-response","255","257485","0.0-197.0-1.0","CAN_102","102","","","","","","null","stimuli/bleep.m4a","null","neonyellow","turquoise","[""neonyellow"",""turquoise"",""low nameability""]","right-left","[""turquoise"",""neonyellow""]","6","low nameability","54","right","audio_feedback","1"
"html-button-response","256","258005","0.0-198.0","CAN_102","102","","","","","","null","<button class=""jspsych-btn""><img src=""stimuli/white_square.png"" style=""width: 200px;height: 200px;""></button>","null","neonyellow","turquoise","[""neonyellow"",""turquoise"",""low nameability""]","right-left","[""turquoise"",""neonyellow""]","6","low nameability","54","right","iti",""
"html-button-response","257","258468","0.0-199.0","CAN_102","102","","","","","","446","","0","darkgreenblue","neonyellow","[""darkgreenblue"",""neonyellow"",""low nameability""]","left-right","[""darkgreenblue"",""neonyellow"",""low nameability""]","6","low nameability","55","left","trigger",""
"html-button-response","258","259149","0.0-200.0-0.0","CAN_102","102","","","","","","676","<button class=""jspsych-btn""><img src=""stimuli/darkgreenblue.png"" style=""width: 200px;height: 200px;""></button>","0","darkgreenblue","neonyellow","[""darkgreenblue"",""neonyellow"",""low nameability""]","left-right","[""darkgreenblue"",""neonyellow"",""low nameability""]","6","low nameability","55","left","response","1"
"html-audio-button-response","259","259353","0.0-200.0-1.0","CAN_102","102","","","","","","null","stimuli/bleep.m4a","null","darkgreenblue","neonyellow","[""darkgreenblue"",""neonyellow"",""low nameability""]","left-right","[""darkgreenblue"",""neonyellow"",""low nameability""]","6","low nameability","55","left","audio_feedback","1"
"html-button-response","260","259881","0.0-201.0","CAN_102","102","","","","","","null","<button class=""jspsych-btn""><img src=""stimuli/white_square.png"" style=""width: 200px;height: 200px;""></button>","null","darkgreenblue","neonyellow","[""darkgreenblue"",""neonyellow"",""low nameability""]","left-right","[""darkgreenblue"",""neonyellow"",""low nameability""]","6","low nameability","55","left","iti",""
"html-button-response","261","260297","0.0-202.0","CAN_102","102","","","","","","398","","0","neonyellow","darkgreenblue","[""neonyellow"",""darkgreenblue"",""low nameability""]","right-left","[""darkgreenblue"",""neonyellow""]","6","low nameability","56","right","trigger",""
"html-button-response","262","260918","0.0-203.0-0.0","CAN_102","102","","","","","","611","<button class=""jspsych-btn""><img src=""stimuli/neonyellow.png"" style=""width: 200px;height: 200px;""></button>","1","neonyellow","darkgreenblue","[""neonyellow"",""darkgreenblue"",""low nameability""]","right-left","[""darkgreenblue"",""neonyellow""]","6","low nameability","56","right","response","1"
"html-audio-button-response","263","261122","0.0-203.0-1.0","CAN_102","102","","","","","","null","stimuli/bleep.m4a","null","neonyellow","darkgreenblue","[""neonyellow"",""darkgreenblue"",""low nameability""]","right-left","[""darkgreenblue"",""neonyellow""]","6","low nameability","56","right","audio_feedback","1"
"html-button-response","264","261642","0.0-204.0","CAN_102","102","","","","","","null","<button class=""jspsych-btn""><img src=""stimuli/white_square.png"" style=""width: 200px;height: 200px;""></button>","null","neonyellow","darkgreenblue","[""neonyellow"",""darkgreenblue"",""low nameability""]","right-left","[""darkgreenblue"",""neonyellow""]","6","low nameability","56","right","iti",""
"html-button-response","265","262288","0.0-205.0","CAN_102","102","","","","","","630","","0","lightred","pink","[""lightred"",""pink"",""low nameability""]","left-right","[""lightred"",""pink"",""low nameability""]","6","low nameability","57","left","trigger",""
"html-button-response","266","262927","0.0-206.0-0.0","CAN_102","102","","","","","","631","<button class=""jspsych-btn""><img src=""stimuli/lightred.png"" style=""width: 200px;height: 200px;""></button>","0","lightred","pink","[""lightred"",""pink"",""low nameability""]","left-right","[""lightred"",""pink"",""low nameability""]","6","low nameability","57","left","response","1"
"html-audio-button-response","267","263134","0.0-206.0-1.0","CAN_102","102","","","","","","null","stimuli/bleep.m4a","null","lightred","pink","[""lightred"",""pink"",""low nameability""]","left-right","[""lightred"",""pink"",""low nameability""]","6","low nameability","57","left","audio_feedback","1"
"html-button-response","268","263650","0.0-207.0","CAN_102","102","","","","","","null","<button class=""jspsych-btn""><img src=""stimuli/white_square.png"" style=""width: 200px;height: 200px;""></button>","null","lightred","pink","[""lightred"",""pink"",""low nameability""]","left-right","[""lightred"",""pink"",""low nameability""]","6","low nameability","57","left","iti",""
"html-button-response","269","264174","0.0-208.0","CAN_102","102","","","","","","506","","0","turquoise","darkgreenblue","[""turquoise"",""darkgreenblue"",""low nameability""]","left-right","[""turquoise"",""darkgreenblue"",""low nameability""]","6","low nameability","58","left","trigger",""
"html-button-response","270","264903","0.0-209.0-0.0","CAN_102","102","","","","","","722","<button class=""jspsych-btn""><img src=""stimuli/turquoise.png"" style=""width: 200px;height: 200px;""></button>","0","turquoise","darkgreenblue","[""turquoise"",""darkgreenblue"",""low nameability""]","left-right","[""turquoise"",""darkgreenblue"",""low nameability""]","6","low nameability","58","left","response","1"
"html-audio-button-response","271","265109","0.0-209.0-1.0","CAN_102","102","","","","","","null","stimuli/bleep.m4a","null","turquoise","darkgreenblue","[""turquoise"",""darkgreenblue"",""low nameability""]","left-right","[""turquoise"",""darkgreenblue"",""low nameability""]","6","low nameability","58","left","audio_feedback","1"
"html-button-response","272","265626","0.0-210.0","CAN_102","102","","","","","","null","<button class=""jspsych-btn""><img src=""stimuli/white_square.png"" style=""width: 200px;height: 200px;""></button>","null","turquoise","darkgreenblue","[""turquoise"",""darkgreenblue"",""low nameability""]","left-right","[""turquoise"",""darkgreenblue"",""low nameability""]","6","low nameability","58","left","iti",""
"html-button-response","273","266103","0.0-211.0","CAN_102","102","","","","","","455","","0","mustard","darkgreenblue","[""mustard"",""darkgreenblue"",""low nameability""]","right-left","[""darkgreenblue"",""mustard""]","6","low nameability","59","right","trigger",""
"html-button-response","274","266757","0.0-212.0-0.0","CAN_102","102","","","","","","648","<button class=""jspsych-btn""><img src=""stimuli/mustard.png"" style=""width: 200px;height: 200px;""></button>","1","mustard","darkgreenblue","[""mustard"",""darkgreenblue"",""low nameability""]","right-left","[""darkgreenblue"",""mustard""]","6","low nameability","59","right","response","1"
"html-audio-button-response","275","266959","0.0-212.0-1.0","CAN_102","102","","","","","","null","stimuli/bleep.m4a","null","mustard","darkgreenblue","[""mustard"",""darkgreenblue"",""low nameability""]","right-left","[""darkgreenblue"",""mustard""]","6","low nameability","59","right","audio_feedback","1"
"html-button-response","276","267481","0.0-213.0","CAN_102","102","","","","","","null","<button class=""jspsych-btn""><img src=""stimuli/white_square.png"" style=""width: 200px;height: 200px;""></button>","null","mustard","darkgreenblue","[""mustard"",""darkgreenblue"",""low nameability""]","right-left","[""darkgreenblue"",""mustard""]","6","low nameability","59","right","iti",""
"html-button-response","277","267954","0.0-214.0","CAN_102","102","","","","","","456","","0","red","brown","[""red"",""brown"",""high nameability""]","right-left","[""brown"",""red""]","6","high nameability","60","right","trigger",""
"html-button-response","278","268584","0.0-215.0-0.0","CAN_102","102","","","","","","625","<button class=""jspsych-btn""><img src=""stimuli/red.png"" style=""width: 200px;height: 200px;""></button>","1","red","brown","[""red"",""brown"",""high nameability""]","right-left","[""brown"",""red""]","6","high nameability","60","right","response","1"
"html-audio-button-response","279","268787","0.0-215.0-1.0","CAN_102","102","","","","","","null","stimuli/bleep.m4a","null","red","brown","[""red"",""brown"",""high nameability""]","right-left","[""brown"",""red""]","6","high nameability","60","right","audio_feedback","1"
"html-button-response","280","269301","0.0-216.0","CAN_102","102","","","","","","null","<button class=""jspsych-btn""><img src=""stimuli/white_square.png"" style=""width: 200px;height: 200px;""></button>","null","red","brown","[""red"",""brown"",""high nameability""]","right-left","[""brown"",""red""]","6","high nameability","60","right","iti",""
