"trial_type","trial_index","time_elapsed","internal_node_id","subject_id","seed","success","timeout","failed_images","failed_audio","failed_video","rt","stimulus","response","target","foil","choices","combination_order","choices_in_order","round","condition","trial_counter","target_location","trial_kind","correct"
"pavlovia","0","23","0.0-0.0","CAN_126","126","","","","","","","","","","","","","","","","","","",""
"preload","1","746","0.0-1.0","CAN_126","126","true","false","[]","[]","[]","","","","","","","","","","","","","",""
"fullscreen","2","4060","0.0-2.0","CAN_126","126","true","","","","","","","","","","","","","","","","","",""
"html-button-response","3","26519","0.0-3.0","CAN_126","126","","","","","","22433","","0","","","","","","","","","","",""
"html-button-response","4","29399","0.0-4.0","CAN_126","126","","","","","","2864","","0","star","square","[""square"",""star""]","left-right","[""square"",""star""]","1","practice","1","right","trigger",""
"html-button-response","5","32925","0.0-5.0-0.0","CAN_126","126","","","","","","3515","<button class=""jspsych-btn""><img src=""stimuli/star.png"" style=""width: 200px;height: 200px;""></button>","1","star","square","[""square"",""star""]","left-right","[""square"",""star""]","1","practice","1","right","response","1"
"html-audio-button-response","6","33132","0.0-5.0-1.0","CAN_126","126","","","","","","null","stimuli/bleep.m4a","null","star","square","[""square"",""star""]","left-right","[""square"",""star""]","1","practice","1","right","audio_feedback","1"
"html-button-response","7","33656","0.0-6.0","CAN_126","126","","","","","","null","<button class=""jspsych-btn""><img src=""stimuli/white_square.png"" style=""width: 200px;height: 200px;""></button>","null","star","square","[""square"",""star""]","left-right","[""square"",""star""]","1","practice","1","right","iti",""
"html-button-response","8","42177","0.0-7.0","CAN_126","126","","","","","","8502","","0","triangle","pentagram","[""triangle"",""pentagram""]","left-right","[""triangle"",""pentagram""]","1","practice","1","left","trigger",""
"html-button-response","9","43520","0.0-8.0-0.0","CAN_126","126","","","","","","1334","<button class=""jspsych-btn""><img src=""stimuli/triangle.png"" style=""width: 200px;height: 200px;""></button>","0","triangle","pentagram","[""triangle"",""pentagram""]","left-right","[""triangle"",""pentagram""]","1","practice","1","left","response","1"
"html-audio-button-response","10","43733","0.0-8.0-1.0","CAN_126","126","","","","","","null","stimuli/bleep.m4a","null","triangle","pentagram","[""triangle"",""pentagram""]","left-right","[""triangle"",""pentagram""]","1","practice","1","left","audio_feedback","1"
"html-button-response","11","44253","0.0-9.0","CAN_126","126","","","","","","null","<button class=""jspsych-btn""><img src=""stimuli/white_square.png"" style=""width: 200px;height: 200px;""></button>","null","triangle","pentagram","[""triangle"",""pentagram""]","left-right","[""triangle"",""pentagram""]","1","practice","1","left","iti",""
"html-button-response","12","45065","0.0-10.0","CAN_126","126","","","","","","792","","0","diamond","rectangle","[""rectangle"",""diamond""]","left-right","[""rectangle"",""diamond""]","1","practice","1","right","trigger",""
"html-button-response","13","45801","0.0-11.0-0.0","CAN_126","126","","","","","","731","<button class=""jspsych-btn""><img src=""stimuli/diamond.png"" style=""width: 200px;height: 200px;""></button>","1","diamond","rectangle","[""rectangle"",""diamond""]","left-right","[""rectangle"",""diamond""]","1","practice","1","right","response","1"
"html-audio-button-response","14","46007","0.0-11.0-1.0","CAN_126","126","","","","","","null","stimuli/bleep.m4a","null","diamond","rectangle","[""rectangle"",""diamond""]","left-right","[""rectangle"",""diamond""]","1","practice","1","right","audio_feedback","1"
"html-button-response","15","46535","0.0-12.0","CAN_126","126","","","","","","null","<button class=""jspsych-btn""><img src=""stimuli/white_square.png"" style=""width: 200px;height: 200px;""></button>","null","diamond","rectangle","[""rectangle"",""diamond""]","left-right","[""rectangle"",""diamond""]","1","practice","1","right","iti",""
"html-button-response","16","47722","0.0-13.0","CAN_126","126","","","","","","1170","","0","pentagram","star","[""pentagram"",""star""]","left-right","[""pentagram"",""star""]","1","practice","1","left","trigger",""
"html-button-response","17","48480","0.0-14.0-0.0","CAN_126","126","","","","","","751","<button class=""jspsych-btn""><img src=""stimuli/pentagram.png"" style=""width: 200px;height: 200px;""></button>","0","pentagram","star","[""pentagram"",""star""]","left-right","[""pentagram"",""star""]","1","practice","1","left","response","1"
"html-audio-button-response","18","48690","0.0-14.0-1.0","CAN_126","126","","","","","","null","stimuli/bleep.m4a","null","pentagram","star","[""pentagram"",""star""]","left-right","[""pentagram"",""star""]","1","practice","1","left","audio_feedback","1"
"html-button-response","19","49216","0.0-15.0","CAN_126","126","","","","","","null","<button class=""jspsych-btn""><img src=""stimuli/white_square.png"" style=""width: 200px;height: 200px;""></button>","null","pentagram","star","[""pentagram"",""star""]","left-right","[""pentagram"",""star""]","1","practice","1","left","iti",""
"html-button-response","20","58783","0.0-16.0","CAN_126","126","","","","","","9554","","0","","","","","","","","","","",""
"html-button-response","21","59511","0.0-17.0","CAN_126","126","","","","","","714","","0","lightred","turquoise","[""lightred"",""turquoise"",""low nameability""]","right-left","[""turquoise"",""lightred""]","1","low nameability","1","right","trigger",""
"html-button-response","22","60206","0.0-18.0-0.0","CAN_126","126","","","","","","676","<button class=""jspsych-btn""><img src=""stimuli/lightred.png"" style=""width: 200px;height: 200px;""></button>","1","lightred","turquoise","[""lightred"",""turquoise"",""low nameability""]","right-left","[""turquoise"",""lightred""]","1","low nameability","1","right","response","1"
"html-audio-button-response","23","60420","0.0-18.0-1.0","CAN_126","126","","","","","","null","stimuli/bleep.m4a","null","lightred","turquoise","[""lightred"",""turquoise"",""low nameability""]","right-left","[""turquoise"",""lightred""]","1","low nameability","1","right","audio_feedback","1"
"html-button-response","24","60962","0.0-19.0","CAN_126","126","","","","","","null","<button class=""jspsych-btn""><img src=""stimuli/white_square.png"" style=""width: 200px;height: 200px;""></button>","null","lightred","turquoise","[""lightred"",""turquoise"",""low nameability""]","right-left","[""turquoise"",""lightred""]","1","low nameability","1","right","iti",""
"html-button-response","25","61664","0.0-20.0","CAN_126","126","","","","","","682","","0","orange","blue","[""orange"",""blue"",""high nameability""]","left-right","[""orange"",""blue"",""high nameability""]","1","high nameability","2","left","trigger",""
"html-button-response","26","62330","0.0-21.0-0.0","CAN_126","126","","","","","","659","<button class=""jspsych-btn""><img src=""stimuli/orange.png"" style=""width: 200px;height: 200px;""></button>","0","orange","blue","[""orange"",""blue"",""high nameability""]","left-right","[""orange"",""blue"",""high nameability""]","1","high nameability","2","left","response","1"
"html-audio-button-response","27","62539","0.0-21.0-1.0","CAN_126","126","","","","","","null","stimuli/bleep.m4a","null","orange","blue","[""orange"",""blue"",""high nameability""]","left-right","[""orange"",""blue"",""high nameability""]","1","high nameability","2","left","audio_feedback","1"
"html-button-response","28","63063","0.0-22.0","CAN_126","126","","","","","","null","<button class=""jspsych-btn""><img src=""stimuli/white_square.png"" style=""width: 200px;height: 200px;""></button>","null","orange","blue","[""orange"",""blue"",""high nameability""]","left-right","[""orange"",""blue"",""high nameability""]","1","high nameability","2","left","iti",""
"html-button-response","29","63671","0.0-23.0","CAN_126","126","","","","","","581","","0","yellow","red","[""yellow"",""red"",""high nameability""]","left-right","[""yellow"",""red"",""high nameability""]","1","high nameability","3","left","trigger",""
"html-button-response","30","64426","0.0-24.0-0.0","CAN_126","126","","","","","","743","<button class=""jspsych-btn""><img src=""stimuli/yellow.png"" style=""width: 200px;height: 200px;""></button>","0","yellow","red","[""yellow"",""red"",""high nameability""]","left-right","[""yellow"",""red"",""high nameability""]","1","high nameability","3","left","response","1"
"html-audio-button-response","31","64636","0.0-24.0-1.0","CAN_126","126","","","","","","null","stimuli/bleep.m4a","null","yellow","red","[""yellow"",""red"",""high nameability""]","left-right","[""yellow"",""red"",""high nameability""]","1","high nameability","3","left","audio_feedback","1"
"html-button-response","32","65158","0.0-25.0","CAN_126","126","","","","","","null","<button class=""jspsych-btn""><img src=""stimuli/white_square.png"" style=""width: 200px;height: 200px;""></button>","null","yellow","red","[""yellow"",""red"",""high nameability""]","left-right","[""yellow"",""red"",""high nameability""]","1","high nameability","3","left","iti",""
"html-button-response","33","65766","0.0-26.0","CAN_126","126","","","","","","590","","0","mustard","lightred","[""mustard"",""lightred"",""low nameability""]","right-left","[""lightred"",""mustard""]","1","low nameability","4","right","trigger",""
"html-button-response","34","66433","0.0-27.0-0.0","CAN_126","126","","","","","","657","<button class=""jspsych-btn""><img src=""stimuli/mustard.png"" style=""width: 200px;height: 200px;""></button>","1","mustard","lightred","[""mustard"",""lightred"",""low nameability""]","right-left","[""lightred"",""mustard""]","1","low nameability","4","right","response","1"
"html-audio-button-response","35","66635","0.0-27.0-1.0","CAN_126","126","","","","","","null","stimuli/bleep.m4a","null","mustard","lightred","[""mustard"",""lightred"",""low nameability""]","right-left","[""lightred"",""mustard""]","1","low nameability","4","right","audio_feedback","1"
"html-button-response","36","67162","0.0-28.0","CAN_126","126","","","","","","null","<button class=""jspsych-btn""><img src=""stimuli/white_square.png"" style=""width: 200px;height: 200px;""></button>","null","mustard","lightred","[""mustard"",""lightred"",""low nameability""]","right-left","[""lightred"",""mustard""]","1","low nameability","4","right","iti",""
"html-button-response","37","67689","0.0-29.0","CAN_126","126","","","","","","510","","0","turquoise","mustard","[""turquoise"",""mustard"",""low nameability""]","left-right","[""turquoise"",""mustard"",""low nameability""]","1","low nameability","5","left","trigger",""
"html-button-response","38","68282","0.0-30.0-0.0","CAN_126","126","","","","","","587","<button class=""jspsych-btn""><img src=""stimuli/turquoise.png"" style=""width: 200px;height: 200px;""></button>","0","turquoise","mustard","[""turquoise"",""mustard"",""low nameability""]","left-right","[""turquoise"",""mustard"",""low nameability""]","1","low nameability","5","left","response","1"
"html-audio-button-response","39","68492","0.0-30.0-1.0","CAN_126","126","","","","","","null","stimuli/bleep.m4a","null","turquoise","mustard","[""turquoise"",""mustard"",""low nameability""]","left-right","[""turquoise"",""mustard"",""low nameability""]","1","low nameability","5","left","audio_feedback","1"
"html-button-response","40","69009","0.0-31.0","CAN_126","126","","","","","","null","<button class=""jspsych-btn""><img src=""stimuli/white_square.png"" style=""width: 200px;height: 200px;""></button>","null","turquoise","mustard","[""turquoise"",""mustard"",""low nameability""]","left-right","[""turquoise"",""mustard"",""low nameability""]","1","low nameability","5","left","iti",""
"html-button-response","41","69645","0.0-32.0","CAN_126","126","","","","","","627","","0","brown","purple","[""brown"",""purple"",""high nameability""]","left-right","[""brown"",""purple"",""high nameability""]","1","high nameability","6","left","trigger",""
"html-button-response","42","70377","0.0-33.0-0.0","CAN_126","126","","","","","","721","<button class=""jspsych-btn""><img src=""stimuli/brown.png"" style=""width: 200px;height: 200px;""></button>","0","brown","purple","[""brown"",""purple"",""high nameability""]","left-right","[""brown"",""purple"",""high nameability""]","1","high nameability","6","left","response","1"
"html-audio-button-response","43","70585","0.0-33.0-1.0","CAN_126","126","","","","","","null","stimuli/bleep.m4a","null","brown","purple","[""brown"",""purple"",""high nameability""]","left-right","[""brown"",""purple"",""high nameability""]","1","high nameability","6","left","audio_feedback","1"
"html-button-response","44","71101","0.0-34.0","CAN_126","126","","","","","","null","<button class=""jspsych-btn""><img src=""stimuli/white_square.png"" style=""width: 200px;height: 200px;""></button>","null","brown","purple","[""brown"",""purple"",""high nameability""]","left-right","[""brown"",""purple"",""high nameability""]","1","high nameability","6","left","iti",""
"html-button-response","45","71664","0.0-35.0","CAN_126","126","","","","","","546","","0","purple","blue","[""purple"",""blue"",""high nameability""]","right-left","[""blue"",""purple""]","1","high nameability","7","right","trigger",""
"html-button-response","46","72322","0.0-36.0-0.0","CAN_126","126","","","","","","651","<button class=""jspsych-btn""><img src=""stimuli/purple.png"" style=""width: 200px;height: 200px;""></button>","1","purple","blue","[""purple"",""blue"",""high nameability""]","right-left","[""blue"",""purple""]","1","high nameability","7","right","response","1"
"html-audio-button-response","47","72528","0.0-36.0-1.0","CAN_126","126","","","","","","null","stimuli/bleep.m4a","null","purple","blue","[""purple"",""blue"",""high nameability""]","right-left","[""blue"",""purple""]","1","high nameability","7","right","audio_feedback","1"
"html-button-response","48","73042","0.0-37.0","CAN_126","126","","","","","","null","<button class=""jspsych-btn""><img src=""stimuli/white_square.png"" style=""width: 200px;height: 200px;""></button>","null","purple","blue","[""purple"",""blue"",""high nameability""]","right-left","[""blue"",""purple""]","1","high nameability","7","right","iti",""
"html-button-response","49","73591","0.0-38.0","CAN_126","126","","","","","","536","","0","darkgreenblue","turquoise","[""darkgreenblue"",""turquoise"",""low nameability""]","left-right","[""darkgreenblue"",""turquoise"",""low nameability""]","1","low nameability","8","left","trigger",""
"html-button-response","50","74253","0.0-39.0-0.0","CAN_126","126","","","","","","655","<button class=""jspsych-btn""><img src=""stimuli/darkgreenblue.png"" style=""width: 200px;height: 200px;""></button>","0","darkgreenblue","turquoise","[""darkgreenblue"",""turquoise"",""low nameability""]","left-right","[""darkgreenblue"",""turquoise"",""low nameability""]","1","low nameability","8","left","response","1"
"html-audio-button-response","51","74460","0.0-39.0-1.0","CAN_126","126","","","","","","null","stimuli/bleep.m4a","null","darkgreenblue","turquoise","[""darkgreenblue"",""turquoise"",""low nameability""]","left-right","[""darkgreenblue"",""turquoise"",""low nameability""]","1","low nameability","8","left","audio_feedback","1"
"html-button-response","52","74982","0.0-40.0","CAN_126","126","","","","","","null","<button class=""jspsych-btn""><img src=""stimuli/white_square.png"" style=""width: 200px;height: 200px;""></button>","null","darkgreenblue","turquoise","[""darkgreenblue"",""turquoise"",""low nameability""]","left-right","[""darkgreenblue"",""turquoise"",""low nameability""]","1","low nameability","8","left","iti",""
"html-button-response","53","75466","0.0-41.0","CAN_126","126","","","","","","463","","0","red","orange","[""red"",""orange"",""high nameability""]","right-left","[""orange"",""red""]","1","high nameability","9","right","trigger",""
"html-button-response","54","76141","0.0-42.0-0.0","CAN_126","126","","","","","","664","<button class=""jspsych-btn""><img src=""stimuli/red.png"" style=""width: 200px;height: 200px;""></button>","1","red","orange","[""red"",""orange"",""high nameability""]","right-left","[""orange"",""red""]","1","high nameability","9","right","response","1"
"html-audio-button-response","55","76347","0.0-42.0-1.0","CAN_126","126","","","","","","null","stimuli/bleep.m4a","null","red","orange","[""red"",""orange"",""high nameability""]","right-left","[""orange"",""red""]","1","high nameability","9","right","audio_feedback","1"
"html-button-response","56","76885","0.0-43.0","CAN_126","126","","","","","","null","<button class=""jspsych-btn""><img src=""stimuli/white_square.png"" style=""width: 200px;height: 200px;""></button>","null","red","orange","[""red"",""orange"",""high nameability""]","right-left","[""orange"",""red""]","1","high nameability","9","right","iti",""
"html-button-response","57","77341","0.0-44.0","CAN_126","126","","","","","","443","","0","orange","purple","[""orange"",""purple"",""high nameability""]","left-right","[""orange"",""purple"",""high nameability""]","1","high nameability","10","left","trigger",""
"html-button-response","58","77944","0.0-45.0-0.0","CAN_126","126","","","","","","597","<button class=""jspsych-btn""><img src=""stimuli/orange.png"" style=""width: 200px;height: 200px;""></button>","0","orange","purple","[""orange"",""purple"",""high nameability""]","left-right","[""orange"",""purple"",""high nameability""]","1","high nameability","10","left","response","1"
"html-audio-button-response","59","78147","0.0-45.0-1.0","CAN_126","126","","","","","","null","stimuli/bleep.m4a","null","orange","purple","[""orange"",""purple"",""high nameability""]","left-right","[""orange"",""purple"",""high nameability""]","1","high nameability","10","left","audio_feedback","1"
"html-button-response","60","78672","0.0-46.0","CAN_126","126","","","","","","null","<button class=""jspsych-btn""><img src=""stimuli/white_square.png"" style=""width: 200px;height: 200px;""></button>","null","orange","purple","[""orange"",""purple"",""high nameability""]","left-right","[""orange"",""purple"",""high nameability""]","1","high nameability","10","left","iti",""
"pavlovia","61","78770","0.0-47.0","CAN_126","126","","","","","","","","","","","","","","","","","","",""
"pavlovia","62","78788","0.0-48.0","CAN_126","126","","","","","","","","","","","","","","","","","","",""
"html-audio-button-response","63","80993","0.0-49.0","CAN_126","126","","","","","","2320","stimuli/tada.m4a","0","","","","","","","","","","",""
"html-button-response","64","85780","0.0-50.0","CAN_126","126","","","","","","4781","","0","","","","","","","","","","",""
"html-button-response","65","87326","0.0-51.0","CAN_126","126","","","","","","1540","","0","blue","red","[""blue"",""red"",""high nameability""]","left-right","[""blue"",""red"",""high nameability""]","2","high nameability","11","left","trigger",""
"html-button-response","66","87992","0.0-52.0-0.0","CAN_126","126","","","","","","660","<button class=""jspsych-btn""><img src=""stimuli/blue.png"" style=""width: 200px;height: 200px;""></button>","0","blue","red","[""blue"",""red"",""high nameability""]","left-right","[""blue"",""red"",""high nameability""]","2","high nameability","11","left","response","1"
"html-audio-button-response","67","88198","0.0-52.0-1.0","CAN_126","126","","","","","","null","stimuli/bleep.m4a","null","blue","red","[""blue"",""red"",""high nameability""]","left-right","[""blue"",""red"",""high nameability""]","2","high nameability","11","left","audio_feedback","1"
"html-button-response","68","88726","0.0-53.0","CAN_126","126","","","","","","null","<button class=""jspsych-btn""><img src=""stimuli/white_square.png"" style=""width: 200px;height: 200px;""></button>","null","blue","red","[""blue"",""red"",""high nameability""]","left-right","[""blue"",""red"",""high nameability""]","2","high nameability","11","left","iti",""
"html-button-response","69","89288","0.0-54.0","CAN_126","126","","","","","","543","","0","brown","yellow","[""brown"",""yellow"",""high nameability""]","left-right","[""brown"",""yellow"",""high nameability""]","2","high nameability","12","left","trigger",""
"html-button-response","70","89904","0.0-55.0-0.0","CAN_126","126","","","","","","606","<button class=""jspsych-btn""><img src=""stimuli/brown.png"" style=""width: 200px;height: 200px;""></button>","0","brown","yellow","[""brown"",""yellow"",""high nameability""]","left-right","[""brown"",""yellow"",""high nameability""]","2","high nameability","12","left","response","1"
"html-audio-button-response","71","90108","0.0-55.0-1.0","CAN_126","126","","","","","","null","stimuli/bleep.m4a","null","brown","yellow","[""brown"",""yellow"",""high nameability""]","left-right","[""brown"",""yellow"",""high nameability""]","2","high nameability","12","left","audio_feedback","1"
"html-button-response","72","90626","0.0-56.0","CAN_126","126","","","","","","null","<button class=""jspsych-btn""><img src=""stimuli/white_square.png"" style=""width: 200px;height: 200px;""></button>","null","brown","yellow","[""brown"",""yellow"",""high nameability""]","left-right","[""brown"",""yellow"",""high nameability""]","2","high nameability","12","left","iti",""
"html-button-response","73","91120","0.0-57.0","CAN_126","126","","","","","","468","","0","darkgreenblue","pink","[""darkgreenblue"",""pink"",""low nameability""]","right-left","[""pink"",""darkgreenblue""]","2","low nameability","13","right","trigger",""
"html-button-response","74","91697","0.0-58.0-0.0","CAN_126","126","","","","","","569","<button class=""jspsych-btn""><img src=""stimuli/darkgreenblue.png"" style=""width: 200px;height: 200px;""></button>","1","darkgreenblue","pink","[""darkgreenblue"",""pink"",""low nameability""]","right-left","[""pink"",""darkgreenblue""]","2","low nameability","13","right","response","1"
"html-audio-button-response","75","91899","0.0-58.0-1.0","CAN_126","126","","","","","","null","stimuli/bleep.m4a","null","darkgreenblue","pink","[""darkgreenblue"",""pink"",""low nameability""]","right-left","[""pink"",""darkgreenblue""]","2","low nameability","13","right","audio_feedback","1"
"html-button-response","76","92425","0.0-59.0","CAN_126","126","","","","","","null","<button class=""jspsych-btn""><img src=""stimuli/white_square.png"" style=""width: 200px;height: 200px;""></button>","null","darkgreenblue","pink","[""darkgreenblue"",""pink"",""low nameability""]","right-left","[""pink"",""darkgreenblue""]","2","low nameability","13","right","iti",""
"html-button-response","77","92896","0.0-60.0","CAN_126","126","","","","","","455","","0","purple","orange","[""purple"",""orange"",""high nameability""]","right-left","[""orange"",""purple""]","2","high nameability","14","right","trigger",""
"html-button-response","78","93433","0.0-61.0-0.0","CAN_126","126","","","","","","529","<button class=""jspsych-btn""><img src=""stimuli/purple.png"" style=""width: 200px;height: 200px;""></button>","1","purple","orange","[""purple"",""orange"",""high nameability""]","right-left","[""orange"",""purple""]","2","high nameability","14","right","response","1"
"html-audio-button-response","79","93639","0.0-61.0-1.0","CAN_126","126","","","","","","null","stimuli/bleep.m4a","null","purple","orange","[""purple"",""orange"",""high nameability""]","right-left","[""orange"",""purple""]","2","high nameability","14","right","audio_feedback","1"
"html-button-response","80","94162","0.0-62.0","CAN_126","126","","","","","","null","<button class=""jspsych-btn""><img src=""stimuli/white_square.png"" style=""width: 200px;height: 200px;""></button>","null","purple","orange","[""purple"",""orange"",""high nameability""]","right-left","[""orange"",""purple""]","2","high nameability","14","right","iti",""
"html-button-response","81","94633","0.0-63.0","CAN_126","126","","","","","","452","","0","darkgreenblue","neonyellow","[""darkgreenblue"",""neonyellow"",""low nameability""]","left-right","[""darkgreenblue"",""neonyellow"",""low nameability""]","2","low nameability","15","left","trigger",""
"html-button-response","82","95227","0.0-64.0-0.0","CAN_126","126","","","","","","588","<button class=""jspsych-btn""><img src=""stimuli/darkgreenblue.png"" style=""width: 200px;height: 200px;""></button>","0","darkgreenblue","neonyellow","[""darkgreenblue"",""neonyellow"",""low nameability""]","left-right","[""darkgreenblue"",""neonyellow"",""low nameability""]","2","low nameability","15","left","response","1"
"html-audio-button-response","83","95432","0.0-64.0-1.0","CAN_126","126","","","","","","null","stimuli/bleep.m4a","null","darkgreenblue","neonyellow","[""darkgreenblue"",""neonyellow"",""low nameability""]","left-right","[""darkgreenblue"",""neonyellow"",""low nameability""]","2","low nameability","15","left","audio_feedback","1"
"html-button-response","84","95953","0.0-65.0","CAN_126","126","","","","","","null","<button class=""jspsych-btn""><img src=""stimuli/white_square.png"" style=""width: 200px;height: 200px;""></button>","null","darkgreenblue","neonyellow","[""darkgreenblue"",""neonyellow"",""low nameability""]","left-right","[""darkgreenblue"",""neonyellow"",""low nameability""]","2","low nameability","15","left","iti",""
"html-button-response","85","96426","0.0-66.0","CAN_126","126","","","","","","454","","0","brown","blue","[""brown"",""blue"",""high nameability""]","right-left","[""blue"",""brown""]","2","high nameability","16","right","trigger",""
"html-button-response","86","97128","0.0-67.0-0.0","CAN_126","126","","","","","","688","<button class=""jspsych-btn""><img src=""stimuli/brown.png"" style=""width: 200px;height: 200px;""></button>","1","brown","blue","[""brown"",""blue"",""high nameability""]","right-left","[""blue"",""brown""]","2","high nameability","16","right","response","1"
"html-audio-button-response","87","97343","0.0-67.0-1.0","CAN_126","126","","","","","","null","stimuli/bleep.m4a","null","brown","blue","[""brown"",""blue"",""high nameability""]","right-left","[""blue"",""brown""]","2","high nameability","16","right","audio_feedback","1"
"html-button-response","88","97878","0.0-68.0","CAN_126","126","","","","","","null","<button class=""jspsych-btn""><img src=""stimuli/white_square.png"" style=""width: 200px;height: 200px;""></button>","null","brown","blue","[""brown"",""blue"",""high nameability""]","right-left","[""blue"",""brown""]","2","high nameability","16","right","iti",""
"html-button-response","89","98342","0.0-69.0","CAN_126","126","","","","","","432","","0","lightred","pink","[""lightred"",""pink"",""low nameability""]","right-left","[""pink"",""lightred""]","2","low nameability","17","right","trigger",""
"html-button-response","90","98900","0.0-70.0-0.0","CAN_126","126","","","","","","542","<button class=""jspsych-btn""><img src=""stimuli/lightred.png"" style=""width: 200px;height: 200px;""></button>","1","lightred","pink","[""lightred"",""pink"",""low nameability""]","right-left","[""pink"",""lightred""]","2","low nameability","17","right","response","1"
"html-audio-button-response","91","99107","0.0-70.0-1.0","CAN_126","126","","","","","","null","stimuli/bleep.m4a","null","lightred","pink","[""lightred"",""pink"",""low nameability""]","right-left","[""pink"",""lightred""]","2","low nameability","17","right","audio_feedback","1"
"html-button-response","92","99634","0.0-71.0","CAN_126","126","","","","","","null","<button class=""jspsych-btn""><img src=""stimuli/white_square.png"" style=""width: 200px;height: 200px;""></button>","null","lightred","pink","[""lightred"",""pink"",""low nameability""]","right-left","[""pink"",""lightred""]","2","low nameability","17","right","iti",""
"html-button-response","93","100098","0.0-72.0","CAN_126","126","","","","","","445","","0","neonyellow","darkgreenblue","[""neonyellow"",""darkgreenblue"",""low nameability""]","left-right","[""neonyellow"",""darkgreenblue"",""low nameability""]","2","low nameability","18","left","trigger",""
"html-button-response","94","100704","0.0-73.0-0.0","CAN_126","126","","","","","","597","<button class=""jspsych-btn""><img src=""stimuli/neonyellow.png"" style=""width: 200px;height: 200px;""></button>","0","neonyellow","darkgreenblue","[""neonyellow"",""darkgreenblue"",""low nameability""]","left-right","[""neonyellow"",""darkgreenblue"",""low nameability""]","2","low nameability","18","left","response","1"
"html-audio-button-response","95","100930","0.0-73.0-1.0","CAN_126","126","","","","","","null","stimuli/bleep.m4a","null","neonyellow","darkgreenblue","[""neonyellow"",""darkgreenblue"",""low nameability""]","left-right","[""neonyellow"",""darkgreenblue"",""low nameability""]","2","low nameability","18","left","audio_feedback","1"
"html-button-response","96","101460","0.0-74.0","CAN_126","126","","","","","","null","<button class=""jspsych-btn""><img src=""stimuli/white_square.png"" style=""width: 200px;height: 200px;""></button>","null","neonyellow","darkgreenblue","[""neonyellow"",""darkgreenblue"",""low nameability""]","left-right","[""neonyellow"",""darkgreenblue"",""low nameability""]","2","low nameability","18","left","iti",""
"html-button-response","97","101914","0.0-75.0","CAN_126","126","","","","","","424","","0","pink","lightred","[""pink"",""lightred"",""low nameability""]","right-left","[""lightred"",""pink""]","2","low nameability","19","right","trigger",""
"html-button-response","98","102528","0.0-76.0-0.0","CAN_126","126","","","","","","600","<button class=""jspsych-btn""><img src=""stimuli/pink.png"" style=""width: 200px;height: 200px;""></button>","1","pink","lightred","[""pink"",""lightred"",""low nameability""]","right-left","[""lightred"",""pink""]","2","low nameability","19","right","response","1"
"html-audio-button-response","99","102740","0.0-76.0-1.0","CAN_126","126","","","","","","null","stimuli/bleep.m4a","null","pink","lightred","[""pink"",""lightred"",""low nameability""]","right-left","[""lightred"",""pink""]","2","low nameability","19","right","audio_feedback","1"
"html-button-response","100","103280","0.0-77.0","CAN_126","126","","","","","","null","<button class=""jspsych-btn""><img src=""stimuli/white_square.png"" style=""width: 200px;height: 200px;""></button>","null","pink","lightred","[""pink"",""lightred"",""low nameability""]","right-left","[""lightred"",""pink""]","2","low nameability","19","right","iti",""
"html-button-response","101","103708","0.0-78.0","CAN_126","126","","","","","","409","","0","mustard","neonyellow","[""mustard"",""neonyellow"",""low nameability""]","left-right","[""mustard"",""neonyellow"",""low nameability""]","2","low nameability","20","left","trigger",""
"html-button-response","102","104251","0.0-79.0-0.0","CAN_126","126","","","","","","533","<button class=""jspsych-btn""><img src=""stimuli/mustard.png"" style=""width: 200px;height: 200px;""></button>","0","mustard","neonyellow","[""mustard"",""neonyellow"",""low nameability""]","left-right","[""mustard"",""neonyellow"",""low nameability""]","2","low nameability","20","left","response","1"
"html-audio-button-response","103","104463","0.0-79.0-1.0","CAN_126","126","","","","","","null","stimuli/bleep.m4a","null","mustard","neonyellow","[""mustard"",""neonyellow"",""low nameability""]","left-right","[""mustard"",""neonyellow"",""low nameability""]","2","low nameability","20","left","audio_feedback","1"
"html-button-response","104","104979","0.0-80.0","CAN_126","126","","","","","","null","<button class=""jspsych-btn""><img src=""stimuli/white_square.png"" style=""width: 200px;height: 200px;""></button>","null","mustard","neonyellow","[""mustard"",""neonyellow"",""low nameability""]","left-right","[""mustard"",""neonyellow"",""low nameability""]","2","low nameability","20","left","iti",""
"pavlovia","105","105097","0.0-81.0","CAN_126","126","","","","","","","","","","","","","","","","","","",""
"pavlovia","106","105118","0.0-82.0","CAN_126","126","","","","","","","","","","","","","","","","","","",""
"html-audio-button-response","107","106437","0.0-83.0","CAN_126","126","","","","","","1456","stimuli/tada.m4a","0","","","","","","","","","","",""
"html-button-response","108","106981","0.0-84.0","CAN_126","126","","","","","","538","","0","","","","","","","","","","",""
"html-button-response","109","107572","0.0-85.0","CAN_126","126","","","","","","584","","0","neonyellow","mustard","[""neonyellow"",""mustard"",""low nameability""]","right-left","[""mustard"",""neonyellow""]","3","low nameability","21","right","trigger",""
"html-button-response","110","108176","0.0-86.0-0.0","CAN_126","126","","","","","","595","<button class=""jspsych-btn""><img src=""stimuli/neonyellow.png"" style=""width: 200px;height: 200px;""></button>","1","neonyellow","mustard","[""neonyellow"",""mustard"",""low nameability""]","right-left","[""mustard"",""neonyellow""]","3","low nameability","21","right","response","1"
"html-audio-button-response","111","108380","0.0-86.0-1.0","CAN_126","126","","","","","","null","stimuli/bleep.m4a","null","neonyellow","mustard","[""neonyellow"",""mustard"",""low nameability""]","right-left","[""mustard"",""neonyellow""]","3","low nameability","21","right","audio_feedback","1"
"html-button-response","112","108906","0.0-87.0","CAN_126","126","","","","","","null","<button class=""jspsych-btn""><img src=""stimuli/white_square.png"" style=""width: 200px;height: 200px;""></button>","null","neonyellow","mustard","[""neonyellow"",""mustard"",""low nameability""]","right-left","[""mustard"",""neonyellow""]","3","low nameability","21","right","iti",""
"html-button-response","113","109381","0.0-88.0","CAN_126","126","","","","","","460","","0","yellow","brown","[""yellow"",""brown"",""high nameability""]","right-left","[""brown"",""yellow""]","3","high nameability","22","right","trigger",""
"html-button-response","114","109924","0.0-89.0-0.0","CAN_126","126","","","","","","532","<button class=""jspsych-btn""><img src=""stimuli/yellow.png"" style=""width: 200px;height: 200px;""></button>","1","yellow","brown","[""yellow"",""brown"",""high nameability""]","right-left","[""brown"",""yellow""]","3","high nameability","22","right","response","1"
"html-audio-button-response","115","110134","0.0-89.0-1.0","CAN_126","126","","","","","","null","stimuli/bleep.m4a","null","yellow","brown","[""yellow"",""brown"",""high nameability""]","right-left","[""brown"",""yellow""]","3","high nameability","22","right","audio_feedback","1"
"html-button-response","116","110655","0.0-90.0","CAN_126","126","","","","","","null","<button class=""jspsych-btn""><img src=""stimuli/white_square.png"" style=""width: 200px;height: 200px;""></button>","null","yellow","brown","[""yellow"",""brown"",""high nameability""]","right-left","[""brown"",""yellow""]","3","high nameability","22","right","iti",""
"html-button-response","117","111071","0.0-91.0","CAN_126","126","","","","","","401","","0","mustard","darkgreenblue","[""mustard"",""darkgreenblue"",""low nameability""]","left-right","[""mustard"",""darkgreenblue"",""low nameability""]","3","low nameability","23","left","trigger",""
"html-button-response","118","111627","0.0-92.0-0.0","CAN_126","126","","","","","","549","<button class=""jspsych-btn""><img src=""stimuli/mustard.png"" style=""width: 200px;height: 200px;""></button>","0","mustard","darkgreenblue","[""mustard"",""darkgreenblue"",""low nameability""]","left-right","[""mustard"",""darkgreenblue"",""low nameability""]","3","low nameability","23","left","response","1"
"html-audio-button-response","119","111833","0.0-92.0-1.0","CAN_126","126","","","","","","null","stimuli/bleep.m4a","null","mustard","darkgreenblue","[""mustard"",""darkgreenblue"",""low nameability""]","left-right","[""mustard"",""darkgreenblue"",""low nameability""]","3","low nameability","23","left","audio_feedback","1"
"html-button-response","120","112356","0.0-93.0","CAN_126","126","","","","","","null","<button class=""jspsych-btn""><img src=""stimuli/white_square.png"" style=""width: 200px;height: 200px;""></button>","null","mustard","darkgreenblue","[""mustard"",""darkgreenblue"",""low nameability""]","left-right","[""mustard"",""darkgreenblue"",""low nameability""]","3","low nameability","23","left","iti",""
"html-button-response","121","112872","0.0-94.0","CAN_126","126","","","","","","489","","0","turquoise","pink","[""turquoise"",""pink"",""low nameability""]","right-left","[""pink"",""turquoise""]","3","low nameability","24","right","trigger",""
"html-button-response","122","113613","0.0-95.0-0.0","CAN_126","126","","","","","","732","<button class=""jspsych-btn""><img src=""stimuli/turquoise.png"" style=""width: 200px;height: 200px;""></button>","1","turquoise","pink","[""turquoise"",""pink"",""low nameability""]","right-left","[""pink"",""turquoise""]","3","low nameability","24","right","response","1"
"html-audio-button-response","123","113828","0.0-95.0-1.0","CAN_126","126","","","","","","null","stimuli/bleep.m4a","null","turquoise","pink","[""turquoise"",""pink"",""low nameability""]","right-left","[""pink"",""turquoise""]","3","low nameability","24","right","audio_feedback","1"
"html-button-response","124","114349","0.0-96.0","CAN_126","126","","","","","","null","<button class=""jspsych-btn""><img src=""stimuli/white_square.png"" style=""width: 200px;height: 200px;""></button>","null","turquoise","pink","[""turquoise"",""pink"",""low nameability""]","right-left","[""pink"",""turquoise""]","3","low nameability","24","right","iti",""
"html-button-response","125","114898","0.0-97.0","CAN_126","126","","","","","","532","","0","lightred","darkgreenblue","[""lightred"",""darkgreenblue"",""low nameability""]","left-right","[""lightred"",""darkgreenblue"",""low nameability""]","3","low nameability","25","left","trigger",""
"html-button-response","126","115476","0.0-98.0-0.0","CAN_126","126","","","","","","572","<button class=""jspsych-btn""><img src=""stimuli/lightred.png"" style=""width: 200px;height: 200px;""></button>","0","lightred","darkgreenblue","[""lightred"",""darkgreenblue"",""low nameability""]","left-right","[""lightred"",""darkgreenblue"",""low nameability""]","3","low nameability","25","left","response","1"
"html-audio-button-response","127","115680","0.0-98.0-1.0","CAN_126","126","","","","","","null","stimuli/bleep.m4a","null","lightred","darkgreenblue","[""lightred"",""darkgreenblue"",""low nameability""]","left-right","[""lightred"",""darkgreenblue"",""low nameability""]","3","low nameability","25","left","audio_feedback","1"
"html-button-response","128","116207","0.0-99.0","CAN_126","126","","","","","","null","<button class=""jspsych-btn""><img src=""stimuli/white_square.png"" style=""width: 200px;height: 200px;""></button>","null","lightred","darkgreenblue","[""lightred"",""darkgreenblue"",""low nameability""]","left-right","[""lightred"",""darkgreenblue"",""low nameability""]","3","low nameability","25","left","iti",""
"html-button-response","129","116724","0.0-100.0","CAN_126","126","","","","","","493","","0","turquoise","neonyellow","[""turquoise"",""neonyellow"",""low nameability""]","left-right","[""turquoise"",""neonyellow"",""low nameability""]","3","low nameability","26","left","trigger",""
"html-button-response","130","117367","0.0-101.0-0.0","CAN_126","126","","","","","","636","<button class=""jspsych-btn""><img src=""stimuli/turquoise.png"" style=""width: 200px;height: 200px;""></button>","0","turquoise","neonyellow","[""turquoise"",""neonyellow"",""low nameability""]","left-right","[""turquoise"",""neonyellow"",""low nameability""]","3","low nameability","26","left","response","1"
"html-audio-button-response","131","117575","0.0-101.0-1.0","CAN_126","126","","","","","","null","stimuli/bleep.m4a","null","turquoise","neonyellow","[""turquoise"",""neonyellow"",""low nameability""]","left-right","[""turquoise"",""neonyellow"",""low nameability""]","3","low nameability","26","left","audio_feedback","1"
"html-button-response","132","118100","0.0-102.0","CAN_126","126","","","","","","null","<button class=""jspsych-btn""><img src=""stimuli/white_square.png"" style=""width: 200px;height: 200px;""></button>","null","turquoise","neonyellow","[""turquoise"",""neonyellow"",""low nameability""]","left-right","[""turquoise"",""neonyellow"",""low nameability""]","3","low nameability","26","left","iti",""
"html-button-response","133","118612","0.0-103.0","CAN_126","126","","","","","","494","","0","turquoise","darkgreenblue","[""turquoise"",""darkgreenblue"",""low nameability""]","left-right","[""turquoise"",""darkgreenblue"",""low nameability""]","3","low nameability","27","left","trigger",""
"html-button-response","134","119226","0.0-104.0-0.0","CAN_126","126","","","","","","609","<button class=""jspsych-btn""><img src=""stimuli/turquoise.png"" style=""width: 200px;height: 200px;""></button>","0","turquoise","darkgreenblue","[""turquoise"",""darkgreenblue"",""low nameability""]","left-right","[""turquoise"",""darkgreenblue"",""low nameability""]","3","low nameability","27","left","response","1"
"html-audio-button-response","135","119436","0.0-104.0-1.0","CAN_126","126","","","","","","null","stimuli/bleep.m4a","null","turquoise","darkgreenblue","[""turquoise"",""darkgreenblue"",""low nameability""]","left-right","[""turquoise"",""darkgreenblue"",""low nameability""]","3","low nameability","27","left","audio_feedback","1"
"html-button-response","136","119957","0.0-105.0","CAN_126","126","","","","","","null","<button class=""jspsych-btn""><img src=""stimuli/white_square.png"" style=""width: 200px;height: 200px;""></button>","null","turquoise","darkgreenblue","[""turquoise"",""darkgreenblue"",""low nameability""]","left-right","[""turquoise"",""darkgreenblue"",""low nameability""]","3","low nameability","27","left","iti",""
"html-button-response","137","120430","0.0-106.0","CAN_126","126","","","","","","455","","0","mustard","turquoise","[""mustard"",""turquoise"",""low nameability""]","left-right","[""mustard"",""turquoise"",""low nameability""]","3","low nameability","28","left","trigger",""
"html-button-response","138","121124","0.0-107.0-0.0","CAN_126","126","","","","","","687","<button class=""jspsych-btn""><img src=""stimuli/mustard.png"" style=""width: 200px;height: 200px;""></button>","0","mustard","turquoise","[""mustard"",""turquoise"",""low nameability""]","left-right","[""mustard"",""turquoise"",""low nameability""]","3","low nameability","28","left","response","1"
"html-audio-button-response","139","121334","0.0-107.0-1.0","CAN_126","126","","","","","","null","stimuli/bleep.m4a","null","mustard","turquoise","[""mustard"",""turquoise"",""low nameability""]","left-right","[""mustard"",""turquoise"",""low nameability""]","3","low nameability","28","left","audio_feedback","1"
"html-button-response","140","121860","0.0-108.0","CAN_126","126","","","","","","null","<button class=""jspsych-btn""><img src=""stimuli/white_square.png"" style=""width: 200px;height: 200px;""></button>","null","mustard","turquoise","[""mustard"",""turquoise"",""low nameability""]","left-right","[""mustard"",""turquoise"",""low nameability""]","3","low nameability","28","left","iti",""
"html-button-response","141","122346","0.0-109.0","CAN_126","126","","","","","","468","","0","purple","brown","[""purple"",""brown"",""high nameability""]","right-left","[""brown"",""purple""]","3","high nameability","29","right","trigger",""
"html-button-response","142","122884","0.0-110.0-0.0","CAN_126","126","","","","","","530","<button class=""jspsych-btn""><img src=""stimuli/purple.png"" style=""width: 200px;height: 200px;""></button>","1","purple","brown","[""purple"",""brown"",""high nameability""]","right-left","[""brown"",""purple""]","3","high nameability","29","right","response","1"
"html-audio-button-response","143","123091","0.0-110.0-1.0","CAN_126","126","","","","","","null","stimuli/bleep.m4a","null","purple","brown","[""purple"",""brown"",""high nameability""]","right-left","[""brown"",""purple""]","3","high nameability","29","right","audio_feedback","1"
"html-button-response","144","123617","0.0-111.0","CAN_126","126","","","","","","null","<button class=""jspsych-btn""><img src=""stimuli/white_square.png"" style=""width: 200px;height: 200px;""></button>","null","purple","brown","[""purple"",""brown"",""high nameability""]","right-left","[""brown"",""purple""]","3","high nameability","29","right","iti",""
"html-button-response","145","124152","0.0-112.0","CAN_126","126","","","","","","515","","0","purple","red","[""purple"",""red"",""high nameability""]","right-left","[""red"",""purple""]","3","high nameability","30","right","trigger",""
"html-button-response","146","124745","0.0-113.0-0.0","CAN_126","126","","","","","","586","<button class=""jspsych-btn""><img src=""stimuli/purple.png"" style=""width: 200px;height: 200px;""></button>","1","purple","red","[""purple"",""red"",""high nameability""]","right-left","[""red"",""purple""]","3","high nameability","30","right","response","1"
"html-audio-button-response","147","124950","0.0-113.0-1.0","CAN_126","126","","","","","","null","stimuli/bleep.m4a","null","purple","red","[""purple"",""red"",""high nameability""]","right-left","[""red"",""purple""]","3","high nameability","30","right","audio_feedback","1"
"html-button-response","148","125472","0.0-114.0","CAN_126","126","","","","","","null","<button class=""jspsych-btn""><img src=""stimuli/white_square.png"" style=""width: 200px;height: 200px;""></button>","null","purple","red","[""purple"",""red"",""high nameability""]","right-left","[""red"",""purple""]","3","high nameability","30","right","iti",""
"pavlovia","149","125543","0.0-115.0","CAN_126","126","","","","","","","","","","","","","","","","","","",""
"pavlovia","150","125550","0.0-116.0","CAN_126","126","","","","","","","","","","","","","","","","","","",""
"html-audio-button-response","151","126675","0.0-117.0","CAN_126","126","","","","","","1205","stimuli/tada.m4a","0","","","","","","","","","","",""
"html-button-response","152","127680","0.0-118.0","CAN_126","126","","","","","","1000","","0","","","","","","","","","","",""
"html-button-response","153","128205","0.0-119.0","CAN_126","126","","","","","","519","","0","yellow","blue","[""yellow"",""blue"",""high nameability""]","left-right","[""yellow"",""blue"",""high nameability""]","4","high nameability","31","left","trigger",""
"html-button-response","154","128890","0.0-120.0-0.0","CAN_126","126","","","","","","678","<button class=""jspsych-btn""><img src=""stimuli/yellow.png"" style=""width: 200px;height: 200px;""></button>","0","yellow","blue","[""yellow"",""blue"",""high nameability""]","left-right","[""yellow"",""blue"",""high nameability""]","4","high nameability","31","left","response","1"
"html-audio-button-response","155","129095","0.0-120.0-1.0","CAN_126","126","","","","","","null","stimuli/bleep.m4a","null","yellow","blue","[""yellow"",""blue"",""high nameability""]","left-right","[""yellow"",""blue"",""high nameability""]","4","high nameability","31","left","audio_feedback","1"
"html-button-response","156","129615","0.0-121.0","CAN_126","126","","","","","","null","<button class=""jspsych-btn""><img src=""stimuli/white_square.png"" style=""width: 200px;height: 200px;""></button>","null","yellow","blue","[""yellow"",""blue"",""high nameability""]","left-right","[""yellow"",""blue"",""high nameability""]","4","high nameability","31","left","iti",""
"html-button-response","157","130145","0.0-122.0","CAN_126","126","","","","","","502","","0","turquoise","lightred","[""turquoise"",""lightred"",""low nameability""]","right-left","[""lightred"",""turquoise""]","4","low nameability","32","right","trigger",""
"html-button-response","158","130696","0.0-123.0-0.0","CAN_126","126","","","","","","543","<button class=""jspsych-btn""><img src=""stimuli/turquoise.png"" style=""width: 200px;height: 200px;""></button>","1","turquoise","lightred","[""turquoise"",""lightred"",""low nameability""]","right-left","[""lightred"",""turquoise""]","4","low nameability","32","right","response","1"
"html-audio-button-response","159","130903","0.0-123.0-1.0","CAN_126","126","","","","","","null","stimuli/bleep.m4a","null","turquoise","lightred","[""turquoise"",""lightred"",""low nameability""]","right-left","[""lightred"",""turquoise""]","4","low nameability","32","right","audio_feedback","1"
"html-button-response","160","131423","0.0-124.0","CAN_126","126","","","","","","null","<button class=""jspsych-btn""><img src=""stimuli/white_square.png"" style=""width: 200px;height: 200px;""></button>","null","turquoise","lightred","[""turquoise"",""lightred"",""low nameability""]","right-left","[""lightred"",""turquoise""]","4","low nameability","32","right","iti",""
"html-button-response","161","131899","0.0-125.0","CAN_126","126","","","","","","453","","0","orange","red","[""orange"",""red"",""high nameability""]","left-right","[""orange"",""red"",""high nameability""]","4","high nameability","33","left","trigger",""
"html-button-response","162","132548","0.0-126.0-0.0","CAN_126","126","","","","","","639","<button class=""jspsych-btn""><img src=""stimuli/orange.png"" style=""width: 200px;height: 200px;""></button>","0","orange","red","[""orange"",""red"",""high nameability""]","left-right","[""orange"",""red"",""high nameability""]","4","high nameability","33","left","response","1"
"html-audio-button-response","163","132753","0.0-126.0-1.0","CAN_126","126","","","","","","null","stimuli/bleep.m4a","null","orange","red","[""orange"",""red"",""high nameability""]","left-right","[""orange"",""red"",""high nameability""]","4","high nameability","33","left","audio_feedback","1"
"html-button-response","164","133273","0.0-127.0","CAN_126","126","","","","","","null","<button class=""jspsych-btn""><img src=""stimuli/white_square.png"" style=""width: 200px;height: 200px;""></button>","null","orange","red","[""orange"",""red"",""high nameability""]","left-right","[""orange"",""red"",""high nameability""]","4","high nameability","33","left","iti",""
"html-button-response","165","133717","0.0-128.0","CAN_126","126","","","","","","427","","0","mustard","pink","[""mustard"",""pink"",""low nameability""]","right-left","[""pink"",""mustard""]","4","low nameability","34","right","trigger",""
"html-button-response","166","134278","0.0-129.0-0.0","CAN_126","126","","","","","","555","<button class=""jspsych-btn""><img src=""stimuli/mustard.png"" style=""width: 200px;height: 200px;""></button>","1","mustard","pink","[""mustard"",""pink"",""low nameability""]","right-left","[""pink"",""mustard""]","4","low nameability","34","right","response","1"
"html-audio-button-response","167","134483","0.0-129.0-1.0","CAN_126","126","","","","","","null","stimuli/bleep.m4a","null","mustard","pink","[""mustard"",""pink"",""low nameability""]","right-left","[""pink"",""mustard""]","4","low nameability","34","right","audio_feedback","1"
"html-button-response","168","135004","0.0-130.0","CAN_126","126","","","","","","null","<button class=""jspsych-btn""><img src=""stimuli/white_square.png"" style=""width: 200px;height: 200px;""></button>","null","mustard","pink","[""mustard"",""pink"",""low nameability""]","right-left","[""pink"",""mustard""]","4","low nameability","34","right","iti",""
"html-button-response","169","135458","0.0-131.0","CAN_126","126","","","","","","428","","0","lightred","neonyellow","[""lightred"",""neonyellow"",""low nameability""]","right-left","[""neonyellow"",""lightred""]","4","low nameability","35","right","trigger",""
"html-button-response","170","135988","0.0-132.0-0.0","CAN_126","126","","","","","","522","<button class=""jspsych-btn""><img src=""stimuli/lightred.png"" style=""width: 200px;height: 200px;""></button>","1","lightred","neonyellow","[""lightred"",""neonyellow"",""low nameability""]","right-left","[""neonyellow"",""lightred""]","4","low nameability","35","right","response","1"
"html-audio-button-response","171","136194","0.0-132.0-1.0","CAN_126","126","","","","","","null","stimuli/bleep.m4a","null","lightred","neonyellow","[""lightred"",""neonyellow"",""low nameability""]","right-left","[""neonyellow"",""lightred""]","4","low nameability","35","right","audio_feedback","1"
"html-button-response","172","136718","0.0-133.0","CAN_126","126","","","","","","null","<button class=""jspsych-btn""><img src=""stimuli/white_square.png"" style=""width: 200px;height: 200px;""></button>","null","lightred","neonyellow","[""lightred"",""neonyellow"",""low nameability""]","right-left","[""neonyellow"",""lightred""]","4","low nameability","35","right","iti",""
"html-button-response","173","137149","0.0-134.0","CAN_126","126","","","","","","414","","0","yellow","purple","[""yellow"",""purple"",""high nameability""]","right-left","[""purple"",""yellow""]","4","high nameability","36","right","trigger",""
"html-button-response","174","137773","0.0-135.0-0.0","CAN_126","126","","","","","","615","<button class=""jspsych-btn""><img src=""stimuli/yellow.png"" style=""width: 200px;height: 200px;""></button>","1","yellow","purple","[""yellow"",""purple"",""high nameability""]","right-left","[""purple"",""yellow""]","4","high nameability","36","right","response","1"
"html-audio-button-response","175","137978","0.0-135.0-1.0","CAN_126","126","","","","","","null","stimuli/bleep.m4a","null","yellow","purple","[""yellow"",""purple"",""high nameability""]","right-left","[""purple"",""yellow""]","4","high nameability","36","right","audio_feedback","1"
"html-button-response","176","138496","0.0-136.0","CAN_126","126","","","","","","null","<button class=""jspsych-btn""><img src=""stimuli/white_square.png"" style=""width: 200px;height: 200px;""></button>","null","yellow","purple","[""yellow"",""purple"",""high nameability""]","right-left","[""purple"",""yellow""]","4","high nameability","36","right","iti",""
"html-button-response","177","138923","0.0-137.0","CAN_126","126","","","","","","407","","0","pink","turquoise","[""pink"",""turquoise"",""low nameability""]","left-right","[""pink"",""turquoise"",""low nameability""]","4","low nameability","37","left","trigger",""
"html-button-response","178","139540","0.0-138.0-0.0","CAN_126","126","","","","","","611","<button class=""jspsych-btn""><img src=""stimuli/pink.png"" style=""width: 200px;height: 200px;""></button>","0","pink","turquoise","[""pink"",""turquoise"",""low nameability""]","left-right","[""pink"",""turquoise"",""low nameability""]","4","low nameability","37","left","response","1"
"html-audio-button-response","179","139747","0.0-138.0-1.0","CAN_126","126","","","","","","null","stimuli/bleep.m4a","null","pink","turquoise","[""pink"",""turquoise"",""low nameability""]","left-right","[""pink"",""turquoise"",""low nameability""]","4","low nameability","37","left","audio_feedback","1"
"html-button-response","180","140270","0.0-139.0","CAN_126","126","","","","","","null","<button class=""jspsych-btn""><img src=""stimuli/white_square.png"" style=""width: 200px;height: 200px;""></button>","null","pink","turquoise","[""pink"",""turquoise"",""low nameability""]","left-right","[""pink"",""turquoise"",""low nameability""]","4","low nameability","37","left","iti",""
"html-button-response","181","140642","0.0-140.0","CAN_126","126","","","","","","354","","0","pink","neonyellow","[""pink"",""neonyellow"",""low nameability""]","right-left","[""neonyellow"",""pink""]","4","low nameability","38","right","trigger",""
"html-button-response","182","141154","0.0-141.0-0.0","CAN_126","126","","","","","","504","<button class=""jspsych-btn""><img src=""stimuli/pink.png"" style=""width: 200px;height: 200px;""></button>","1","pink","neonyellow","[""pink"",""neonyellow"",""low nameability""]","right-left","[""neonyellow"",""pink""]","4","low nameability","38","right","response","1"
"html-audio-button-response","183","141360","0.0-141.0-1.0","CAN_126","126","","","","","","null","stimuli/bleep.m4a","null","pink","neonyellow","[""pink"",""neonyellow"",""low nameability""]","right-left","[""neonyellow"",""pink""]","4","low nameability","38","right","audio_feedback","1"
"html-button-response","184","141884","0.0-142.0","CAN_126","126","","","","","","null","<button class=""jspsych-btn""><img src=""stimuli/white_square.png"" style=""width: 200px;height: 200px;""></button>","null","pink","neonyellow","[""pink"",""neonyellow"",""low nameability""]","right-left","[""neonyellow"",""pink""]","4","low nameability","38","right","iti",""
"html-button-response","185","142291","0.0-143.0","CAN_126","126","","","","","","389","","0","red","purple","[""red"",""purple"",""high nameability""]","right-left","[""purple"",""red""]","4","high nameability","39","right","trigger",""
"html-button-response","186","142798","0.0-144.0-0.0","CAN_126","126","","","","","","499","<button class=""jspsych-btn""><img src=""stimuli/red.png"" style=""width: 200px;height: 200px;""></button>","1","red","purple","[""red"",""purple"",""high nameability""]","right-left","[""purple"",""red""]","4","high nameability","39","right","response","1"
"html-audio-button-response","187","143003","0.0-144.0-1.0","CAN_126","126","","","","","","null","stimuli/bleep.m4a","null","red","purple","[""red"",""purple"",""high nameability""]","right-left","[""purple"",""red""]","4","high nameability","39","right","audio_feedback","1"
"html-button-response","188","143524","0.0-145.0","CAN_126","126","","","","","","null","<button class=""jspsych-btn""><img src=""stimuli/white_square.png"" style=""width: 200px;height: 200px;""></button>","null","red","purple","[""red"",""purple"",""high nameability""]","right-left","[""purple"",""red""]","4","high nameability","39","right","iti",""
"html-button-response","189","143968","0.0-146.0","CAN_126","126","","","","","","423","","0","lightred","mustard","[""lightred"",""mustard"",""low nameability""]","right-left","[""mustard"",""lightred""]","4","low nameability","40","right","trigger",""
"html-button-response","190","144483","0.0-147.0-0.0","CAN_126","126","","","","","","507","<button class=""jspsych-btn""><img src=""stimuli/lightred.png"" style=""width: 200px;height: 200px;""></button>","1","lightred","mustard","[""lightred"",""mustard"",""low nameability""]","right-left","[""mustard"",""lightred""]","4","low nameability","40","right","response","1"
"html-audio-button-response","191","144686","0.0-147.0-1.0","CAN_126","126","","","","","","null","stimuli/bleep.m4a","null","lightred","mustard","[""lightred"",""mustard"",""low nameability""]","right-left","[""mustard"",""lightred""]","4","low nameability","40","right","audio_feedback","1"
"html-button-response","192","145208","0.0-148.0","CAN_126","126","","","","","","null","<button class=""jspsych-btn""><img src=""stimuli/white_square.png"" style=""width: 200px;height: 200px;""></button>","null","lightred","mustard","[""lightred"",""mustard"",""low nameability""]","right-left","[""mustard"",""lightred""]","4","low nameability","40","right","iti",""
"pavlovia","193","145284","0.0-149.0","CAN_126","126","","","","","","","","","","","","","","","","","","",""
"pavlovia","194","145291","0.0-150.0","CAN_126","126","","","","","","","","","","","","","","","","","","",""
"html-audio-button-response","195","146362","0.0-151.0","CAN_126","126","","","","","","1155","stimuli/tada.m4a","0","","","","","","","","","","",""
"html-button-response","196","146881","0.0-152.0","CAN_126","126","","","","","","513","","0","","","","","","","","","","",""
"html-button-response","197","147450","0.0-153.0","CAN_126","126","","","","","","564","","0","blue","yellow","[""blue"",""yellow"",""high nameability""]","left-right","[""blue"",""yellow"",""high nameability""]","5","high nameability","41","left","trigger",""
"html-button-response","198","148071","0.0-154.0-0.0","CAN_126","126","","","","","","615","<button class=""jspsych-btn""><img src=""stimuli/blue.png"" style=""width: 200px;height: 200px;""></button>","0","blue","yellow","[""blue"",""yellow"",""high nameability""]","left-right","[""blue"",""yellow"",""high nameability""]","5","high nameability","41","left","response","1"
"html-audio-button-response","199","148275","0.0-154.0-1.0","CAN_126","126","","","","","","null","stimuli/bleep.m4a","null","blue","yellow","[""blue"",""yellow"",""high nameability""]","left-right","[""blue"",""yellow"",""high nameability""]","5","high nameability","41","left","audio_feedback","1"
"html-button-response","200","148798","0.0-155.0","CAN_126","126","","","","","","null","<button class=""jspsych-btn""><img src=""stimuli/white_square.png"" style=""width: 200px;height: 200px;""></button>","null","blue","yellow","[""blue"",""yellow"",""high nameability""]","left-right","[""blue"",""yellow"",""high nameability""]","5","high nameability","41","left","iti",""
"html-button-response","201","149249","0.0-156.0","CAN_126","126","","","","","","430","","0","pink","mustard","[""pink"",""mustard"",""low nameability""]","right-left","[""mustard"",""pink""]","5","low nameability","42","right","trigger",""
"html-button-response","202","149846","0.0-157.0-0.0","CAN_126","126","","","","","","591","<button class=""jspsych-btn""><img src=""stimuli/pink.png"" style=""width: 200px;height: 200px;""></button>","1","pink","mustard","[""pink"",""mustard"",""low nameability""]","right-left","[""mustard"",""pink""]","5","low nameability","42","right","response","1"
"html-audio-button-response","203","150046","0.0-157.0-1.0","CAN_126","126","","","","","","null","stimuli/bleep.m4a","null","pink","mustard","[""pink"",""mustard"",""low nameability""]","right-left","[""mustard"",""pink""]","5","low nameability","42","right","audio_feedback","1"
"html-button-response","204","150568","0.0-158.0","CAN_126","126","","","","","","null","<button class=""jspsych-btn""><img src=""stimuli/white_square.png"" style=""width: 200px;height: 200px;""></button>","null","pink","mustard","[""pink"",""mustard"",""low nameability""]","right-left","[""mustard"",""pink""]","5","low nameability","42","right","iti",""
"html-button-response","205","150927","0.0-159.0","CAN_126","126","","","","","","342","","0","neonyellow","lightred","[""neonyellow"",""lightred"",""low nameability""]","left-right","[""neonyellow"",""lightred"",""low nameability""]","5","low nameability","43","left","trigger",""
"html-button-response","206","151532","0.0-160.0-0.0","CAN_126","126","","","","","","598","<button class=""jspsych-btn""><img src=""stimuli/neonyellow.png"" style=""width: 200px;height: 200px;""></button>","0","neonyellow","lightred","[""neonyellow"",""lightred"",""low nameability""]","left-right","[""neonyellow"",""lightred"",""low nameability""]","5","low nameability","43","left","response","1"
"html-audio-button-response","207","151736","0.0-160.0-1.0","CAN_126","126","","","","","","null","stimuli/bleep.m4a","null","neonyellow","lightred","[""neonyellow"",""lightred"",""low nameability""]","left-right","[""neonyellow"",""lightred"",""low nameability""]","5","low nameability","43","left","audio_feedback","1"
"html-button-response","208","152256","0.0-161.0","CAN_126","126","","","","","","null","<button class=""jspsych-btn""><img src=""stimuli/white_square.png"" style=""width: 200px;height: 200px;""></button>","null","neonyellow","lightred","[""neonyellow"",""lightred"",""low nameability""]","left-right","[""neonyellow"",""lightred"",""low nameability""]","5","low nameability","43","left","iti",""
"html-button-response","209","152674","0.0-162.0","CAN_126","126","","","","","","398","","0","neonyellow","pink","[""neonyellow"",""pink"",""low nameability""]","left-right","[""neonyellow"",""pink"",""low nameability""]","5","low nameability","44","left","trigger",""
"html-button-response","210","153267","0.0-163.0-0.0","CAN_126","126","","","","","","588","<button class=""jspsych-btn""><img src=""stimuli/neonyellow.png"" style=""width: 200px;height: 200px;""></button>","0","neonyellow","pink","[""neonyellow"",""pink"",""low nameability""]","left-right","[""neonyellow"",""pink"",""low nameability""]","5","low nameability","44","left","response","1"
"html-audio-button-response","211","153475","0.0-163.0-1.0","CAN_126","126","","","","","","null","stimuli/bleep.m4a","null","neonyellow","pink","[""neonyellow"",""pink"",""low nameability""]","left-right","[""neonyellow"",""pink"",""low nameability""]","5","low nameability","44","left","audio_feedback","1"
"html-button-response","212","153996","0.0-164.0","CAN_126","126","","","","","","null","<button class=""jspsych-btn""><img src=""stimuli/white_square.png"" style=""width: 200px;height: 200px;""></button>","null","neonyellow","pink","[""neonyellow"",""pink"",""low nameability""]","left-right","[""neonyellow"",""pink"",""low nameability""]","5","low nameability","44","left","iti",""
"html-button-response","213","154446","0.0-165.0","CAN_126","126","","","","","","432","","0","red","blue","[""red"",""blue"",""high nameability""]","left-right","[""red"",""blue"",""high nameability""]","5","high nameability","45","left","trigger",""
"html-button-response","214","154971","0.0-166.0-0.0","CAN_126","126","","","","","","517","<button class=""jspsych-btn""><img src=""stimuli/red.png"" style=""width: 200px;height: 200px;""></button>","0","red","blue","[""red"",""blue"",""high nameability""]","left-right","[""red"",""blue"",""high nameability""]","5","high nameability","45","left","response","1"
"html-audio-button-response","215","155175","0.0-166.0-1.0","CAN_126","126","","","","","","null","stimuli/bleep.m4a","null","red","blue","[""red"",""blue"",""high nameability""]","left-right","[""red"",""blue"",""high nameability""]","5","high nameability","45","left","audio_feedback","1"
"html-button-response","216","155692","0.0-167.0","CAN_126","126","","","","","","null","<button class=""jspsych-btn""><img src=""stimuli/white_square.png"" style=""width: 200px;height: 200px;""></button>","null","red","blue","[""red"",""blue"",""high nameability""]","left-right","[""red"",""blue"",""high nameability""]","5","high nameability","45","left","iti",""
"html-button-response","217","156159","0.0-168.0","CAN_126","126","","","","","","447","","0","brown","red","[""brown"",""red"",""high nameability""]","right-left","[""red"",""brown""]","5","high nameability","46","right","trigger",""
"html-button-response","218","156768","0.0-169.0-0.0","CAN_126","126","","","","","","598","<button class=""jspsych-btn""><img src=""stimuli/brown.png"" style=""width: 200px;height: 200px;""></button>","1","brown","red","[""brown"",""red"",""high nameability""]","right-left","[""red"",""brown""]","5","high nameability","46","right","response","1"
"html-audio-button-response","219","156986","0.0-169.0-1.0","CAN_126","126","","","","","","null","stimuli/bleep.m4a","null","brown","red","[""brown"",""red"",""high nameability""]","right-left","[""red"",""brown""]","5","high nameability","46","right","audio_feedback","1"
"html-button-response","220","157519","0.0-170.0","CAN_126","126","","","","","","null","<button class=""jspsych-btn""><img src=""stimuli/white_square.png"" style=""width: 200px;height: 200px;""></button>","null","brown","red","[""brown"",""red"",""high nameability""]","right-left","[""red"",""brown""]","5","high nameability","46","right","iti",""
"html-button-response","221","157907","0.0-171.0","CAN_126","126","","","","","","359","","0","red","yellow","[""red"",""yellow"",""high nameability""]","right-left","[""yellow"",""red""]","5","high nameability","47","right","trigger",""
"html-button-response","222","158453","0.0-172.0-0.0","CAN_126","126","","","","","","535","<button class=""jspsych-btn""><img src=""stimuli/red.png"" style=""width: 200px;height: 200px;""></button>","1","red","yellow","[""red"",""yellow"",""high nameability""]","right-left","[""yellow"",""red""]","5","high nameability","47","right","response","1"
"html-audio-button-response","223","158673","0.0-172.0-1.0","CAN_126","126","","","","","","null","stimuli/bleep.m4a","null","red","yellow","[""red"",""yellow"",""high nameability""]","right-left","[""yellow"",""red""]","5","high nameability","47","right","audio_feedback","1"
"html-button-response","224","159193","0.0-173.0","CAN_126","126","","","","","","null","<button class=""jspsych-btn""><img src=""stimuli/white_square.png"" style=""width: 200px;height: 200px;""></button>","null","red","yellow","[""red"",""yellow"",""high nameability""]","right-left","[""yellow"",""red""]","5","high nameability","47","right","iti",""
"html-button-response","225","159634","0.0-174.0","CAN_126","126","","","","","","422","","0","blue","brown","[""blue"",""brown"",""high nameability""]","right-left","[""brown"",""blue""]","5","high nameability","48","right","trigger",""
"html-button-response","226","160207","0.0-175.0-0.0","CAN_126","126","","","","","","564","<button class=""jspsych-btn""><img src=""stimuli/blue.png"" style=""width: 200px;height: 200px;""></button>","1","blue","brown","[""blue"",""brown"",""high nameability""]","right-left","[""brown"",""blue""]","5","high nameability","48","right","response","1"
"html-audio-button-response","227","160414","0.0-175.0-1.0","CAN_126","126","","","","","","null","stimuli/bleep.m4a","null","blue","brown","[""blue"",""brown"",""high nameability""]","right-left","[""brown"",""blue""]","5","high nameability","48","right","audio_feedback","1"
"html-button-response","228","160944","0.0-176.0","CAN_126","126","","","","","","null","<button class=""jspsych-btn""><img src=""stimuli/white_square.png"" style=""width: 200px;height: 200px;""></button>","null","blue","brown","[""blue"",""brown"",""high nameability""]","right-left","[""brown"",""blue""]","5","high nameability","48","right","iti",""
"html-button-response","229","161360","0.0-177.0","CAN_126","126","","","","","","383","","0","darkgreenblue","lightred","[""darkgreenblue"",""lightred"",""low nameability""]","right-left","[""lightred"",""darkgreenblue""]","5","low nameability","49","right","trigger",""
"html-button-response","230","161973","0.0-178.0-0.0","CAN_126","126","","","","","","593","<button class=""jspsych-btn""><img src=""stimuli/darkgreenblue.png"" style=""width: 200px;height: 200px;""></button>","1","darkgreenblue","lightred","[""darkgreenblue"",""lightred"",""low nameability""]","right-left","[""lightred"",""darkgreenblue""]","5","low nameability","49","right","response","1"
"html-audio-button-response","231","162189","0.0-178.0-1.0","CAN_126","126","","","","","","null","stimuli/bleep.m4a","null","darkgreenblue","lightred","[""darkgreenblue"",""lightred"",""low nameability""]","right-left","[""lightred"",""darkgreenblue""]","5","low nameability","49","right","audio_feedback","1"
"html-button-response","232","162726","0.0-179.0","CAN_126","126","","","","","","null","<button class=""jspsych-btn""><img src=""stimuli/white_square.png"" style=""width: 200px;height: 200px;""></button>","null","darkgreenblue","lightred","[""darkgreenblue"",""lightred"",""low nameability""]","right-left","[""lightred"",""darkgreenblue""]","5","low nameability","49","right","iti",""
"html-button-response","233","163154","0.0-180.0","CAN_126","126","","","","","","404","","0","brown","orange","[""brown"",""orange"",""high nameability""]","right-left","[""orange"",""brown""]","5","high nameability","50","right","trigger",""
"html-button-response","234","163806","0.0-181.0-0.0","CAN_126","126","","","","","","638","<button class=""jspsych-btn""><img src=""stimuli/brown.png"" style=""width: 200px;height: 200px;""></button>","1","brown","orange","[""brown"",""orange"",""high nameability""]","right-left","[""orange"",""brown""]","5","high nameability","50","right","response","1"
"html-audio-button-response","235","164019","0.0-181.0-1.0","CAN_126","126","","","","","","null","stimuli/bleep.m4a","null","brown","orange","[""brown"",""orange"",""high nameability""]","right-left","[""orange"",""brown""]","5","high nameability","50","right","audio_feedback","1"
"html-button-response","236","164542","0.0-182.0","CAN_126","126","","","","","","null","<button class=""jspsych-btn""><img src=""stimuli/white_square.png"" style=""width: 200px;height: 200px;""></button>","null","brown","orange","[""brown"",""orange"",""high nameability""]","right-left","[""orange"",""brown""]","5","high nameability","50","right","iti",""
"pavlovia","237","164678","0.0-183.0","CAN_126","126","","","","","","","","","","","","","","","","","","",""
"pavlovia","238","164694","0.0-184.0","CAN_126","126","","","","","","","","","","","","","","","","","","",""
"html-audio-button-response","239","165885","0.0-185.0","CAN_126","126","","","","","","1339","stimuli/tada.m4a","0","","","","","","","","","","",""
"html-button-response","240","166389","0.0-186.0","CAN_126","126","","","","","","496","","0","","","","","","","","","","",""
"html-button-response","241","166972","0.0-187.0","CAN_126","126","","","","","","578","","0","purple","yellow","[""purple"",""yellow"",""high nameability""]","left-right","[""purple"",""yellow"",""high nameability""]","6","high nameability","51","left","trigger",""
"html-button-response","242","167600","0.0-188.0-0.0","CAN_126","126","","","","","","620","<button class=""jspsych-btn""><img src=""stimuli/purple.png"" style=""width: 200px;height: 200px;""></button>","0","purple","yellow","[""purple"",""yellow"",""high nameability""]","left-right","[""purple"",""yellow"",""high nameability""]","6","high nameability","51","left","response","1"
"html-audio-button-response","243","167803","0.0-188.0-1.0","CAN_126","126","","","","","","null","stimuli/bleep.m4a","null","purple","yellow","[""purple"",""yellow"",""high nameability""]","left-right","[""purple"",""yellow"",""high nameability""]","6","high nameability","51","left","audio_feedback","1"
"html-button-response","244","168326","0.0-189.0","CAN_126","126","","","","","","null","<button class=""jspsych-btn""><img src=""stimuli/white_square.png"" style=""width: 200px;height: 200px;""></button>","null","purple","yellow","[""purple"",""yellow"",""high nameability""]","left-right","[""purple"",""yellow"",""high nameability""]","6","high nameability","51","left","iti",""
"html-button-response","245","168764","0.0-190.0","CAN_126","126","","","","","","421","","0","orange","yellow","[""orange"",""yellow"",""high nameability""]","left-right","[""orange"",""yellow"",""high nameability""]","6","high nameability","52","left","trigger",""
"html-button-response","246","170174","0.0-191.0-0.0","CAN_126","126","","","","","","1399","<button class=""jspsych-btn""><img src=""stimuli/orange.png"" style=""width: 200px;height: 200px;""></button>","0","orange","yellow","[""orange"",""yellow"",""high nameability""]","left-right","[""orange"",""yellow"",""high nameability""]","6","high nameability","52","left","response","1"
"html-audio-button-response","247","170383","0.0-191.0-1.0","CAN_126","126","","","","","","null","stimuli/bleep.m4a","null","orange","yellow","[""orange"",""yellow"",""high nameability""]","left-right","[""orange"",""yellow"",""high nameability""]","6","high nameability","52","left","audio_feedback","1"
"html-button-response","248","170912","0.0-192.0","CAN_126","126","","","","","","null","<button class=""jspsych-btn""><img src=""stimuli/white_square.png"" style=""width: 200px;height: 200px;""></button>","null","orange","yellow","[""orange"",""yellow"",""high nameability""]","left-right","[""orange"",""yellow"",""high nameability""]","6","high nameability","52","left","iti",""
"html-button-response","249","171433","0.0-193.0","CAN_126","126","","","","","","502","","0","darkgreenblue","mustard","[""darkgreenblue"",""mustard"",""low nameability""]","left-right","[""darkgreenblue"",""mustard"",""low nameability""]","6","low nameability","53","left","trigger",""
"html-button-response","250","172083","0.0-194.0-0.0","CAN_126","126","","","","","","644","<button class=""jspsych-btn""><img src=""stimuli/darkgreenblue.png"" style=""width: 200px;height: 200px;""></button>","0","darkgreenblue","mustard","[""darkgreenblue"",""mustard"",""low nameability""]","left-right","[""darkgreenblue"",""mustard"",""low nameability""]","6","low nameability","53","left","response","1"
"html-audio-button-response","251","172287","0.0-194.0-1.0","CAN_126","126","","","","","","null","stimuli/bleep.m4a","null","darkgreenblue","mustard","[""darkgreenblue"",""mustard"",""low nameability""]","left-right","[""darkgreenblue"",""mustard"",""low nameability""]","6","low nameability","53","left","audio_feedback","1"
"html-button-response","252","172810","0.0-195.0","CAN_126","126","","","","","","null","<button class=""jspsych-btn""><img src=""stimuli/white_square.png"" style=""width: 200px;height: 200px;""></button>","null","darkgreenblue","mustard","[""darkgreenblue"",""mustard"",""low nameability""]","left-right","[""darkgreenblue"",""mustard"",""low nameability""]","6","low nameability","53","left","iti",""
"html-button-response","253","173225","0.0-196.0","CAN_126","126","","","","","","386","","0","pink","darkgreenblue","[""pink"",""darkgreenblue"",""low nameability""]","right-left","[""darkgreenblue"",""pink""]","6","low nameability","54","right","trigger",""
"html-button-response","254","174457","0.0-197.0-0.0","CAN_126","126","","","","","","1220","<button class=""jspsych-btn""><img src=""stimuli/pink.png"" style=""width: 200px;height: 200px;""></button>","1","pink","darkgreenblue","[""pink"",""darkgreenblue"",""low nameability""]","right-left","[""darkgreenblue"",""pink""]","6","low nameability","54","right","response","1"
"html-audio-button-response","255","174663","0.0-197.0-1.0","CAN_126","126","","","","","","null","stimuli/bleep.m4a","null","pink","darkgreenblue","[""pink"",""darkgreenblue"",""low nameability""]","right-left","[""darkgreenblue"",""pink""]","6","low nameability","54","right","audio_feedback","1"
"html-button-response","256","175182","0.0-198.0","CAN_126","126","","","","","","null","<button class=""jspsych-btn""><img src=""stimuli/white_square.png"" style=""width: 200px;height: 200px;""></button>","null","pink","darkgreenblue","[""pink"",""darkgreenblue"",""low nameability""]","right-left","[""darkgreenblue"",""pink""]","6","low nameability","54","right","iti",""
"html-button-response","257","175686","0.0-199.0","CAN_126","126","","","","","","483","","0","red","brown","[""red"",""brown"",""high nameability""]","right-left","[""brown"",""red""]","6","high nameability","55","right","trigger",""
"html-button-response","258","176274","0.0-200.0-0.0","CAN_126","126","","","","","","579","<button class=""jspsych-btn""><img src=""stimuli/red.png"" style=""width: 200px;height: 200px;""></button>","1","red","brown","[""red"",""brown"",""high nameability""]","right-left","[""brown"",""red""]","6","high nameability","55","right","response","1"
"html-audio-button-response","259","176481","0.0-200.0-1.0","CAN_126","126","","","","","","null","stimuli/bleep.m4a","null","red","brown","[""red"",""brown"",""high nameability""]","right-left","[""brown"",""red""]","6","high nameability","55","right","audio_feedback","1"
"html-button-response","260","177003","0.0-201.0","CAN_126","126","","","","","","null","<button class=""jspsych-btn""><img src=""stimuli/white_square.png"" style=""width: 200px;height: 200px;""></button>","null","red","brown","[""red"",""brown"",""high nameability""]","right-left","[""brown"",""red""]","6","high nameability","55","right","iti",""
"html-button-response","261","177464","0.0-202.0","CAN_126","126","","","","","","441","","0","neonyellow","turquoise","[""neonyellow"",""turquoise"",""low nameability""]","left-right","[""neonyellow"",""turquoise"",""low nameability""]","6","low nameability","56","left","trigger",""
"html-button-response","262","178099","0.0-203.0-0.0","CAN_126","126","","","","","","626","<button class=""jspsych-btn""><img src=""stimuli/neonyellow.png"" style=""width: 200px;height: 200px;""></button>","0","neonyellow","turquoise","[""neonyellow"",""turquoise"",""low nameability""]","left-right","[""neonyellow"",""turquoise"",""low nameability""]","6","low nameability","56","left","response","1"
"html-audio-button-response","263","178307","0.0-203.0-1.0","CAN_126","126","","","","","","null","stimuli/bleep.m4a","null","neonyellow","turquoise","[""neonyellow"",""turquoise"",""low nameability""]","left-right","[""neonyellow"",""turquoise"",""low nameability""]","6","low nameability","56","left","audio_feedback","1"
"html-button-response","264","178832","0.0-204.0","CAN_126","126","","","","","","null","<button class=""jspsych-btn""><img src=""stimuli/white_square.png"" style=""width: 200px;height: 200px;""></button>","null","neonyellow","turquoise","[""neonyellow"",""turquoise"",""low nameability""]","left-right","[""neonyellow"",""turquoise"",""low nameability""]","6","low nameability","56","left","iti",""
"html-button-response","265","179355","0.0-205.0","CAN_126","126","","","","","","502","","0","blue","purple","[""blue"",""purple"",""high nameability""]","right-left","[""purple"",""blue""]","6","high nameability","57","right","trigger",""
"html-button-response","266","179872","0.0-206.0-0.0","CAN_126","126","","","","","","511","<button class=""jspsych-btn""><img src=""stimuli/blue.png"" style=""width: 200px;height: 200px;""></button>","1","blue","purple","[""blue"",""purple"",""high nameability""]","right-left","[""purple"",""blue""]","6","high nameability","57","right","response","1"
"html-audio-button-response","267","180080","0.0-206.0-1.0","CAN_126","126","","","","","","null","stimuli/bleep.m4a","null","blue","purple","[""blue"",""purple"",""high nameability""]","right-left","[""purple"",""blue""]","6","high nameability","57","right","audio_feedback","1"
"html-button-response","268","180604","0.0-207.0","CAN_126","126","","","","","","null","<button class=""jspsych-btn""><img src=""stimuli/white_square.png"" style=""width: 200px;height: 200px;""></button>","null","blue","purple","[""blue"",""purple"",""high nameability""]","right-left","[""purple"",""blue""]","6","high nameability","57","right","iti",""
"html-button-response","269","181059","0.0-208.0","CAN_126","126","","","","","","428","","0","blue","orange","[""blue"",""orange"",""high nameability""]","left-right","[""blue"",""orange"",""high nameability""]","6","high nameability","58","left","trigger",""
"html-button-response","270","181617","0.0-209.0-0.0","CAN_126","126","","","","","","550","<button class=""jspsych-btn""><img src=""stimuli/blue.png"" style=""width: 200px;height: 200px;""></button>","0","blue","orange","[""blue"",""orange"",""high nameability""]","left-right","[""blue"",""orange"",""high nameability""]","6","high nameability","58","left","response","1"
"html-audio-button-response","271","181826","0.0-209.0-1.0","CAN_126","126","","","","","","null","stimuli/bleep.m4a","null","blue","orange","[""blue"",""orange"",""high nameability""]","left-right","[""blue"",""orange"",""high nameability""]","6","high nameability","58","left","audio_feedback","1"
"html-button-response","272","182346","0.0-210.0","CAN_126","126","","","","","","null","<button class=""jspsych-btn""><img src=""stimuli/white_square.png"" style=""width: 200px;height: 200px;""></button>","null","blue","orange","[""blue"",""orange"",""high nameability""]","left-right","[""blue"",""orange"",""high nameability""]","6","high nameability","58","left","iti",""
"html-button-response","273","182769","0.0-211.0","CAN_126","126","","","","","","408","","0","orange","brown","[""orange"",""brown"",""high nameability""]","left-right","[""orange"",""brown"",""high nameability""]","6","high nameability","59","left","trigger",""
"html-button-response","274","184433","0.0-212.0-0.0","CAN_126","126","","","","","","1655","<button class=""jspsych-btn""><img src=""stimuli/orange.png"" style=""width: 200px;height: 200px;""></button>","0","orange","brown","[""orange"",""brown"",""high nameability""]","left-right","[""orange"",""brown"",""high nameability""]","6","high nameability","59","left","response","1"
"html-audio-button-response","275","184637","0.0-212.0-1.0","CAN_126","126","","","","","","null","stimuli/bleep.m4a","null","orange","brown","[""orange"",""brown"",""high nameability""]","left-right","[""orange"",""brown"",""high nameability""]","6","high nameability","59","left","audio_feedback","1"
"html-button-response","276","185154","0.0-213.0","CAN_126","126","","","","","","null","<button class=""jspsych-btn""><img src=""stimuli/white_square.png"" style=""width: 200px;height: 200px;""></button>","null","orange","brown","[""orange"",""brown"",""high nameability""]","left-right","[""orange"",""brown"",""high nameability""]","6","high nameability","59","left","iti",""
"html-button-response","277","185685","0.0-214.0","CAN_126","126","","","","","","512","","0","yellow","orange","[""yellow"",""orange"",""high nameability""]","left-right","[""yellow"",""orange"",""high nameability""]","6","high nameability","60","left","trigger",""
"html-button-response","278","186331","0.0-215.0-0.0","CAN_126","126","","","","","","639","<button class=""jspsych-btn""><img src=""stimuli/yellow.png"" style=""width: 200px;height: 200px;""></button>","0","yellow","orange","[""yellow"",""orange"",""high nameability""]","left-right","[""yellow"",""orange"",""high nameability""]","6","high nameability","60","left","response","1"
"html-audio-button-response","279","186535","0.0-215.0-1.0","CAN_126","126","","","","","","null","stimuli/bleep.m4a","null","yellow","orange","[""yellow"",""orange"",""high nameability""]","left-right","[""yellow"",""orange"",""high nameability""]","6","high nameability","60","left","audio_feedback","1"
"html-button-response","280","187058","0.0-216.0","CAN_126","126","","","","","","null","<button class=""jspsych-btn""><img src=""stimuli/white_square.png"" style=""width: 200px;height: 200px;""></button>","null","yellow","orange","[""yellow"",""orange"",""high nameability""]","left-right","[""yellow"",""orange"",""high nameability""]","6","high nameability","60","left","iti",""
