"trial_type","trial_index","time_elapsed","internal_node_id","subject_id","seed","success","timeout","failed_images","failed_audio","failed_video","rt","stimulus","response","target","foil","choices","combination_order","choices_in_order","round","condition","trial_counter","target_location","trial_kind","correct"
"pavlovia","0","22","0.0-0.0","CAN_106","106","","","","","","","","","","","","","","","","","","",""
"preload","1","737","0.0-1.0","CAN_106","106","true","false","[]","[]","[]","","","","","","","","","","","","","",""
"fullscreen","2","331228","0.0-2.0","CAN_106","106","true","","","","","","","","","","","","","","","","","",""
"html-button-response","3","379235","0.0-3.0","CAN_106","106","","","","","","47975","","0","","","","","","","","","","",""
"html-button-response","4","384373","0.0-4.0","CAN_106","106","","","","","","5124","","0","star","square","[""square"",""star""]","left-right","[""square"",""star""]","1","practice","1","right","trigger",""
"html-button-response","5","388599","0.0-5.0-0.0","CAN_106","106","","","","","","4210","<button class=""jspsych-btn""><img src=""stimuli/star.png"" style=""width: 200px;height: 200px;""></button>","1","star","square","[""square"",""star""]","left-right","[""square"",""star""]","1","practice","1","right","response","1"
"html-audio-button-response","6","388814","0.0-5.0-1.0","CAN_106","106","","","","","","null","stimuli/bleep.m4a","null","star","square","[""square"",""star""]","left-right","[""square"",""star""]","1","practice","1","right","audio_feedback","1"
"html-button-response","7","389351","0.0-6.0","CAN_106","106","","","","","","null","<button class=""jspsych-btn""><img src=""stimuli/white_square.png"" style=""width: 200px;height: 200px;""></button>","null","star","square","[""square"",""star""]","left-right","[""square"",""star""]","1","practice","1","right","iti",""
"html-button-response","8","393086","0.0-7.0","CAN_106","106","","","","","","3712","","0","triangle","pentagram","[""triangle"",""pentagram""]","left-right","[""triangle"",""pentagram""]","1","practice","1","left","trigger",""
"html-button-response","9","393913","0.0-8.0-0.0","CAN_106","106","","","","","","819","<button class=""jspsych-btn""><img src=""stimuli/triangle.png"" style=""width: 200px;height: 200px;""></button>","0","triangle","pentagram","[""triangle"",""pentagram""]","left-right","[""triangle"",""pentagram""]","1","practice","1","left","response","1"
"html-audio-button-response","10","394123","0.0-8.0-1.0","CAN_106","106","","","","","","null","stimuli/bleep.m4a","null","triangle","pentagram","[""triangle"",""pentagram""]","left-right","[""triangle"",""pentagram""]","1","practice","1","left","audio_feedback","1"
"html-button-response","11","394651","0.0-9.0","CAN_106","106","","","","","","null","<button class=""jspsych-btn""><img src=""stimuli/white_square.png"" style=""width: 200px;height: 200px;""></button>","null","triangle","pentagram","[""triangle"",""pentagram""]","left-right","[""triangle"",""pentagram""]","1","practice","1","left","iti",""
"html-button-response","12","395460","0.0-10.0","CAN_106","106","","","","","","784","","0","diamond","rectangle","[""rectangle"",""diamond""]","left-right","[""rectangle"",""diamond""]","1","practice","1","right","trigger",""
"html-button-response","13","396206","0.0-11.0-0.0","CAN_106","106","","","","","","737","<button class=""jspsych-btn""><img src=""stimuli/diamond.png"" style=""width: 200px;height: 200px;""></button>","1","diamond","rectangle","[""rectangle"",""diamond""]","left-right","[""rectangle"",""diamond""]","1","practice","1","right","response","1"
"html-audio-button-response","14","396414","0.0-11.0-1.0","CAN_106","106","","","","","","null","stimuli/bleep.m4a","null","diamond","rectangle","[""rectangle"",""diamond""]","left-right","[""rectangle"",""diamond""]","1","practice","1","right","audio_feedback","1"
"html-button-response","15","396939","0.0-12.0","CAN_106","106","","","","","","null","<button class=""jspsych-btn""><img src=""stimuli/white_square.png"" style=""width: 200px;height: 200px;""></button>","null","diamond","rectangle","[""rectangle"",""diamond""]","left-right","[""rectangle"",""diamond""]","1","practice","1","right","iti",""
"html-button-response","16","397815","0.0-13.0","CAN_106","106","","","","","","857","","0","pentagram","star","[""pentagram"",""star""]","left-right","[""pentagram"",""star""]","1","practice","1","left","trigger",""
"html-button-response","17","398551","0.0-14.0-0.0","CAN_106","106","","","","","","726","<button class=""jspsych-btn""><img src=""stimuli/pentagram.png"" style=""width: 200px;height: 200px;""></button>","0","pentagram","star","[""pentagram"",""star""]","left-right","[""pentagram"",""star""]","1","practice","1","left","response","1"
"html-audio-button-response","18","398757","0.0-14.0-1.0","CAN_106","106","","","","","","null","stimuli/bleep.m4a","null","pentagram","star","[""pentagram"",""star""]","left-right","[""pentagram"",""star""]","1","practice","1","left","audio_feedback","1"
"html-button-response","19","399280","0.0-15.0","CAN_106","106","","","","","","null","<button class=""jspsych-btn""><img src=""stimuli/white_square.png"" style=""width: 200px;height: 200px;""></button>","null","pentagram","star","[""pentagram"",""star""]","left-right","[""pentagram"",""star""]","1","practice","1","left","iti",""
"html-button-response","20","406293","0.0-16.0","CAN_106","106","","","","","","6994","","0","","","","","","","","","","",""
"html-button-response","21","407171","0.0-17.0","CAN_106","106","","","","","","867","","0","pink","neonyellow","[""pink"",""neonyellow"",""low nameability""]","right-left","[""neonyellow"",""pink""]","1","low nameability","1","right","trigger",""
"html-button-response","22","407862","0.0-18.0-0.0","CAN_106","106","","","","","","679","<button class=""jspsych-btn""><img src=""stimuli/pink.png"" style=""width: 200px;height: 200px;""></button>","1","pink","neonyellow","[""pink"",""neonyellow"",""low nameability""]","right-left","[""neonyellow"",""pink""]","1","low nameability","1","right","response","1"
"html-audio-button-response","23","408067","0.0-18.0-1.0","CAN_106","106","","","","","","null","stimuli/bleep.m4a","null","pink","neonyellow","[""pink"",""neonyellow"",""low nameability""]","right-left","[""neonyellow"",""pink""]","1","low nameability","1","right","audio_feedback","1"
"html-button-response","24","408585","0.0-19.0","CAN_106","106","","","","","","null","<button class=""jspsych-btn""><img src=""stimuli/white_square.png"" style=""width: 200px;height: 200px;""></button>","null","pink","neonyellow","[""pink"",""neonyellow"",""low nameability""]","right-left","[""neonyellow"",""pink""]","1","low nameability","1","right","iti",""
"html-button-response","25","409109","0.0-20.0","CAN_106","106","","","","","","507","","0","blue","purple","[""blue"",""purple"",""high nameability""]","right-left","[""purple"",""blue""]","1","high nameability","2","right","trigger",""
"html-button-response","26","409800","0.0-21.0-0.0","CAN_106","106","","","","","","685","<button class=""jspsych-btn""><img src=""stimuli/blue.png"" style=""width: 200px;height: 200px;""></button>","1","blue","purple","[""blue"",""purple"",""high nameability""]","right-left","[""purple"",""blue""]","1","high nameability","2","right","response","1"
"html-audio-button-response","27","410005","0.0-21.0-1.0","CAN_106","106","","","","","","null","stimuli/bleep.m4a","null","blue","purple","[""blue"",""purple"",""high nameability""]","right-left","[""purple"",""blue""]","1","high nameability","2","right","audio_feedback","1"
"html-button-response","28","410533","0.0-22.0","CAN_106","106","","","","","","null","<button class=""jspsych-btn""><img src=""stimuli/white_square.png"" style=""width: 200px;height: 200px;""></button>","null","blue","purple","[""blue"",""purple"",""high nameability""]","right-left","[""purple"",""blue""]","1","high nameability","2","right","iti",""
"html-button-response","29","411047","0.0-23.0","CAN_106","106","","","","","","498","","0","turquoise","pink","[""turquoise"",""pink"",""low nameability""]","left-right","[""turquoise"",""pink"",""low nameability""]","1","low nameability","3","left","trigger",""
"html-button-response","30","411819","0.0-24.0-0.0","CAN_106","106","","","","","","764","<button class=""jspsych-btn""><img src=""stimuli/turquoise.png"" style=""width: 200px;height: 200px;""></button>","0","turquoise","pink","[""turquoise"",""pink"",""low nameability""]","left-right","[""turquoise"",""pink"",""low nameability""]","1","low nameability","3","left","response","1"
"html-audio-button-response","31","412021","0.0-24.0-1.0","CAN_106","106","","","","","","null","stimuli/bleep.m4a","null","turquoise","pink","[""turquoise"",""pink"",""low nameability""]","left-right","[""turquoise"",""pink"",""low nameability""]","1","low nameability","3","left","audio_feedback","1"
"html-button-response","32","412541","0.0-25.0","CAN_106","106","","","","","","null","<button class=""jspsych-btn""><img src=""stimuli/white_square.png"" style=""width: 200px;height: 200px;""></button>","null","turquoise","pink","[""turquoise"",""pink"",""low nameability""]","left-right","[""turquoise"",""pink"",""low nameability""]","1","low nameability","3","left","iti",""
"html-button-response","33","413059","0.0-26.0","CAN_106","106","","","","","","495","","0","turquoise","mustard","[""turquoise"",""mustard"",""low nameability""]","left-right","[""turquoise"",""mustard"",""low nameability""]","1","low nameability","4","left","trigger",""
"html-button-response","34","413810","0.0-27.0-0.0","CAN_106","106","","","","","","744","<button class=""jspsych-btn""><img src=""stimuli/turquoise.png"" style=""width: 200px;height: 200px;""></button>","0","turquoise","mustard","[""turquoise"",""mustard"",""low nameability""]","left-right","[""turquoise"",""mustard"",""low nameability""]","1","low nameability","4","left","response","1"
"html-audio-button-response","35","414014","0.0-27.0-1.0","CAN_106","106","","","","","","null","stimuli/bleep.m4a","null","turquoise","mustard","[""turquoise"",""mustard"",""low nameability""]","left-right","[""turquoise"",""mustard"",""low nameability""]","1","low nameability","4","left","audio_feedback","1"
"html-button-response","36","414535","0.0-28.0","CAN_106","106","","","","","","null","<button class=""jspsych-btn""><img src=""stimuli/white_square.png"" style=""width: 200px;height: 200px;""></button>","null","turquoise","mustard","[""turquoise"",""mustard"",""low nameability""]","left-right","[""turquoise"",""mustard"",""low nameability""]","1","low nameability","4","left","iti",""
"html-button-response","37","415083","0.0-29.0","CAN_106","106","","","","","","531","","0","orange","blue","[""orange"",""blue"",""high nameability""]","right-left","[""blue"",""orange""]","1","high nameability","5","right","trigger",""
"html-button-response","38","415793","0.0-30.0-0.0","CAN_106","106","","","","","","704","<button class=""jspsych-btn""><img src=""stimuli/orange.png"" style=""width: 200px;height: 200px;""></button>","1","orange","blue","[""orange"",""blue"",""high nameability""]","right-left","[""blue"",""orange""]","1","high nameability","5","right","response","1"
"html-audio-button-response","39","415997","0.0-30.0-1.0","CAN_106","106","","","","","","null","stimuli/bleep.m4a","null","orange","blue","[""orange"",""blue"",""high nameability""]","right-left","[""blue"",""orange""]","1","high nameability","5","right","audio_feedback","1"
"html-button-response","40","416517","0.0-31.0","CAN_106","106","","","","","","null","<button class=""jspsych-btn""><img src=""stimuli/white_square.png"" style=""width: 200px;height: 200px;""></button>","null","orange","blue","[""orange"",""blue"",""high nameability""]","right-left","[""blue"",""orange""]","1","high nameability","5","right","iti",""
"html-button-response","41","417099","0.0-32.0","CAN_106","106","","","","","","564","","0","pink","mustard","[""pink"",""mustard"",""low nameability""]","right-left","[""mustard"",""pink""]","1","low nameability","6","right","trigger",""
"html-button-response","42","417827","0.0-33.0-0.0","CAN_106","106","","","","","","720","<button class=""jspsych-btn""><img src=""stimuli/pink.png"" style=""width: 200px;height: 200px;""></button>","1","pink","mustard","[""pink"",""mustard"",""low nameability""]","right-left","[""mustard"",""pink""]","1","low nameability","6","right","response","1"
"html-audio-button-response","43","418029","0.0-33.0-1.0","CAN_106","106","","","","","","null","stimuli/bleep.m4a","null","pink","mustard","[""pink"",""mustard"",""low nameability""]","right-left","[""mustard"",""pink""]","1","low nameability","6","right","audio_feedback","1"
"html-button-response","44","418547","0.0-34.0","CAN_106","106","","","","","","null","<button class=""jspsych-btn""><img src=""stimuli/white_square.png"" style=""width: 200px;height: 200px;""></button>","null","pink","mustard","[""pink"",""mustard"",""low nameability""]","right-left","[""mustard"",""pink""]","1","low nameability","6","right","iti",""
"html-button-response","45","419106","0.0-35.0","CAN_106","106","","","","","","538","","0","darkgreenblue","pink","[""darkgreenblue"",""pink"",""low nameability""]","right-left","[""pink"",""darkgreenblue""]","1","low nameability","7","right","trigger",""
"html-button-response","46","419826","0.0-36.0-0.0","CAN_106","106","","","","","","714","<button class=""jspsych-btn""><img src=""stimuli/darkgreenblue.png"" style=""width: 200px;height: 200px;""></button>","1","darkgreenblue","pink","[""darkgreenblue"",""pink"",""low nameability""]","right-left","[""pink"",""darkgreenblue""]","1","low nameability","7","right","response","1"
"html-audio-button-response","47","420034","0.0-36.0-1.0","CAN_106","106","","","","","","null","stimuli/bleep.m4a","null","darkgreenblue","pink","[""darkgreenblue"",""pink"",""low nameability""]","right-left","[""pink"",""darkgreenblue""]","1","low nameability","7","right","audio_feedback","1"
"html-button-response","48","420563","0.0-37.0","CAN_106","106","","","","","","null","<button class=""jspsych-btn""><img src=""stimuli/white_square.png"" style=""width: 200px;height: 200px;""></button>","null","darkgreenblue","pink","[""darkgreenblue"",""pink"",""low nameability""]","right-left","[""pink"",""darkgreenblue""]","1","low nameability","7","right","iti",""
"html-button-response","49","421108","0.0-38.0","CAN_106","106","","","","","","517","","0","turquoise","lightred","[""turquoise"",""lightred"",""low nameability""]","right-left","[""lightred"",""turquoise""]","1","low nameability","8","right","trigger",""
"html-button-response","50","421737","0.0-39.0-0.0","CAN_106","106","","","","","","624","<button class=""jspsych-btn""><img src=""stimuli/turquoise.png"" style=""width: 200px;height: 200px;""></button>","1","turquoise","lightred","[""turquoise"",""lightred"",""low nameability""]","right-left","[""lightred"",""turquoise""]","1","low nameability","8","right","response","1"
"html-audio-button-response","51","421945","0.0-39.0-1.0","CAN_106","106","","","","","","null","stimuli/bleep.m4a","null","turquoise","lightred","[""turquoise"",""lightred"",""low nameability""]","right-left","[""lightred"",""turquoise""]","1","low nameability","8","right","audio_feedback","1"
"html-button-response","52","422464","0.0-40.0","CAN_106","106","","","","","","null","<button class=""jspsych-btn""><img src=""stimuli/white_square.png"" style=""width: 200px;height: 200px;""></button>","null","turquoise","lightred","[""turquoise"",""lightred"",""low nameability""]","right-left","[""lightred"",""turquoise""]","1","low nameability","8","right","iti",""
"html-button-response","53","423034","0.0-41.0","CAN_106","106","","","","","","546","","0","blue","red","[""blue"",""red"",""high nameability""]","right-left","[""red"",""blue""]","1","high nameability","9","right","trigger",""
"html-button-response","54","423616","0.0-42.0-0.0","CAN_106","106","","","","","","574","<button class=""jspsych-btn""><img src=""stimuli/blue.png"" style=""width: 200px;height: 200px;""></button>","1","blue","red","[""blue"",""red"",""high nameability""]","right-left","[""red"",""blue""]","1","high nameability","9","right","response","1"
"html-audio-button-response","55","423819","0.0-42.0-1.0","CAN_106","106","","","","","","null","stimuli/bleep.m4a","null","blue","red","[""blue"",""red"",""high nameability""]","right-left","[""red"",""blue""]","1","high nameability","9","right","audio_feedback","1"
"html-button-response","56","424332","0.0-43.0","CAN_106","106","","","","","","null","<button class=""jspsych-btn""><img src=""stimuli/white_square.png"" style=""width: 200px;height: 200px;""></button>","null","blue","red","[""blue"",""red"",""high nameability""]","right-left","[""red"",""blue""]","1","high nameability","9","right","iti",""
"html-button-response","57","424936","0.0-44.0","CAN_106","106","","","","","","592","","0","pink","darkgreenblue","[""pink"",""darkgreenblue"",""low nameability""]","left-right","[""pink"",""darkgreenblue"",""low nameability""]","1","low nameability","10","left","trigger",""
"html-button-response","58","425599","0.0-45.0-0.0","CAN_106","106","","","","","","656","<button class=""jspsych-btn""><img src=""stimuli/pink.png"" style=""width: 200px;height: 200px;""></button>","0","pink","darkgreenblue","[""pink"",""darkgreenblue"",""low nameability""]","left-right","[""pink"",""darkgreenblue"",""low nameability""]","1","low nameability","10","left","response","1"
"html-audio-button-response","59","425803","0.0-45.0-1.0","CAN_106","106","","","","","","null","stimuli/bleep.m4a","null","pink","darkgreenblue","[""pink"",""darkgreenblue"",""low nameability""]","left-right","[""pink"",""darkgreenblue"",""low nameability""]","1","low nameability","10","left","audio_feedback","1"
"html-button-response","60","426322","0.0-46.0","CAN_106","106","","","","","","null","<button class=""jspsych-btn""><img src=""stimuli/white_square.png"" style=""width: 200px;height: 200px;""></button>","null","pink","darkgreenblue","[""pink"",""darkgreenblue"",""low nameability""]","left-right","[""pink"",""darkgreenblue"",""low nameability""]","1","low nameability","10","left","iti",""
"pavlovia","61","426408","0.0-47.0","CAN_106","106","","","","","","","","","","","","","","","","","","",""
"pavlovia","62","426424","0.0-48.0","CAN_106","106","","","","","","","","","","","","","","","","","","",""
"html-audio-button-response","63","428743","0.0-49.0","CAN_106","106","","","","","","2424","stimuli/tada.m4a","0","","","","","","","","","","",""
"html-button-response","64","429420","0.0-50.0","CAN_106","106","","","","","","670","","0","","","","","","","","","","",""
"html-button-response","65","429976","0.0-51.0","CAN_106","106","","","","","","550","","0","purple","brown","[""purple"",""brown"",""high nameability""]","right-left","[""brown"",""purple""]","2","high nameability","11","right","trigger",""
"html-button-response","66","430587","0.0-52.0-0.0","CAN_106","106","","","","","","601","<button class=""jspsych-btn""><img src=""stimuli/purple.png"" style=""width: 200px;height: 200px;""></button>","1","purple","brown","[""purple"",""brown"",""high nameability""]","right-left","[""brown"",""purple""]","2","high nameability","11","right","response","1"
"html-audio-button-response","67","430792","0.0-52.0-1.0","CAN_106","106","","","","","","null","stimuli/bleep.m4a","null","purple","brown","[""purple"",""brown"",""high nameability""]","right-left","[""brown"",""purple""]","2","high nameability","11","right","audio_feedback","1"
"html-button-response","68","431304","0.0-53.0","CAN_106","106","","","","","","null","<button class=""jspsych-btn""><img src=""stimuli/white_square.png"" style=""width: 200px;height: 200px;""></button>","null","purple","brown","[""purple"",""brown"",""high nameability""]","right-left","[""brown"",""purple""]","2","high nameability","11","right","iti",""
"html-button-response","69","431351","0.0-54.0","CAN_106","106","","","","","","39","","0","orange","brown","[""orange"",""brown"",""high nameability""]","left-right","[""orange"",""brown"",""high nameability""]","2","high nameability","12","left","trigger",""
"html-button-response","70","432092","0.0-55.0-0.0","CAN_106","106","","","","","","734","<button class=""jspsych-btn""><img src=""stimuli/orange.png"" style=""width: 200px;height: 200px;""></button>","0","orange","brown","[""orange"",""brown"",""high nameability""]","left-right","[""orange"",""brown"",""high nameability""]","2","high nameability","12","left","response","1"
"html-audio-button-response","71","432298","0.0-55.0-1.0","CAN_106","106","","","","","","null","stimuli/bleep.m4a","null","orange","brown","[""orange"",""brown"",""high nameability""]","left-right","[""orange"",""brown"",""high nameability""]","2","high nameability","12","left","audio_feedback","1"
"html-button-response","72","432826","0.0-56.0","CAN_106","106","","","","","","null","<button class=""jspsych-btn""><img src=""stimuli/white_square.png"" style=""width: 200px;height: 200px;""></button>","null","orange","brown","[""orange"",""brown"",""high nameability""]","left-right","[""orange"",""brown"",""high nameability""]","2","high nameability","12","left","iti",""
"html-button-response","73","433279","0.0-57.0","CAN_106","106","","","","","","434","","0","red","blue","[""red"",""blue"",""high nameability""]","left-right","[""red"",""blue"",""high nameability""]","2","high nameability","13","left","trigger",""
"html-button-response","74","433895","0.0-58.0-0.0","CAN_106","106","","","","","","608","<button class=""jspsych-btn""><img src=""stimuli/red.png"" style=""width: 200px;height: 200px;""></button>","0","red","blue","[""red"",""blue"",""high nameability""]","left-right","[""red"",""blue"",""high nameability""]","2","high nameability","13","left","response","1"
"html-audio-button-response","75","434097","0.0-58.0-1.0","CAN_106","106","","","","","","null","stimuli/bleep.m4a","null","red","blue","[""red"",""blue"",""high nameability""]","left-right","[""red"",""blue"",""high nameability""]","2","high nameability","13","left","audio_feedback","1"
"html-button-response","76","434616","0.0-59.0","CAN_106","106","","","","","","null","<button class=""jspsych-btn""><img src=""stimuli/white_square.png"" style=""width: 200px;height: 200px;""></button>","null","red","blue","[""red"",""blue"",""high nameability""]","left-right","[""red"",""blue"",""high nameability""]","2","high nameability","13","left","iti",""
"html-button-response","77","435035","0.0-60.0","CAN_106","106","","","","","","394","","0","lightred","mustard","[""lightred"",""mustard"",""low nameability""]","right-left","[""mustard"",""lightred""]","2","low nameability","14","right","trigger",""
"html-button-response","78","435704","0.0-61.0-0.0","CAN_106","106","","","","","","661","<button class=""jspsych-btn""><img src=""stimuli/lightred.png"" style=""width: 200px;height: 200px;""></button>","1","lightred","mustard","[""lightred"",""mustard"",""low nameability""]","right-left","[""mustard"",""lightred""]","2","low nameability","14","right","response","1"
"html-audio-button-response","79","435909","0.0-61.0-1.0","CAN_106","106","","","","","","null","stimuli/bleep.m4a","null","lightred","mustard","[""lightred"",""mustard"",""low nameability""]","right-left","[""mustard"",""lightred""]","2","low nameability","14","right","audio_feedback","1"
"html-button-response","80","436434","0.0-62.0","CAN_106","106","","","","","","null","<button class=""jspsych-btn""><img src=""stimuli/white_square.png"" style=""width: 200px;height: 200px;""></button>","null","lightred","mustard","[""lightred"",""mustard"",""low nameability""]","right-left","[""mustard"",""lightred""]","2","low nameability","14","right","iti",""
"html-button-response","81","436689","0.0-63.0","CAN_106","106","","","","","","232","","0","yellow","purple","[""yellow"",""purple"",""high nameability""]","left-right","[""yellow"",""purple"",""high nameability""]","2","high nameability","15","left","trigger",""
"html-button-response","82","437378","0.0-64.0-0.0","CAN_106","106","","","","","","681","<button class=""jspsych-btn""><img src=""stimuli/yellow.png"" style=""width: 200px;height: 200px;""></button>","0","yellow","purple","[""yellow"",""purple"",""high nameability""]","left-right","[""yellow"",""purple"",""high nameability""]","2","high nameability","15","left","response","1"
"html-audio-button-response","83","437585","0.0-64.0-1.0","CAN_106","106","","","","","","null","stimuli/bleep.m4a","null","yellow","purple","[""yellow"",""purple"",""high nameability""]","left-right","[""yellow"",""purple"",""high nameability""]","2","high nameability","15","left","audio_feedback","1"
"html-button-response","84","438103","0.0-65.0","CAN_106","106","","","","","","null","<button class=""jspsych-btn""><img src=""stimuli/white_square.png"" style=""width: 200px;height: 200px;""></button>","null","yellow","purple","[""yellow"",""purple"",""high nameability""]","left-right","[""yellow"",""purple"",""high nameability""]","2","high nameability","15","left","iti",""
"html-button-response","85","438546","0.0-66.0","CAN_106","106","","","","","","425","","0","orange","red","[""orange"",""red"",""high nameability""]","left-right","[""orange"",""red"",""high nameability""]","2","high nameability","16","left","trigger",""
"html-button-response","86","439197","0.0-67.0-0.0","CAN_106","106","","","","","","644","<button class=""jspsych-btn""><img src=""stimuli/orange.png"" style=""width: 200px;height: 200px;""></button>","0","orange","red","[""orange"",""red"",""high nameability""]","left-right","[""orange"",""red"",""high nameability""]","2","high nameability","16","left","response","1"
"html-audio-button-response","87","439401","0.0-67.0-1.0","CAN_106","106","","","","","","null","stimuli/bleep.m4a","null","orange","red","[""orange"",""red"",""high nameability""]","left-right","[""orange"",""red"",""high nameability""]","2","high nameability","16","left","audio_feedback","1"
"html-button-response","88","439919","0.0-68.0","CAN_106","106","","","","","","null","<button class=""jspsych-btn""><img src=""stimuli/white_square.png"" style=""width: 200px;height: 200px;""></button>","null","orange","red","[""orange"",""red"",""high nameability""]","left-right","[""orange"",""red"",""high nameability""]","2","high nameability","16","left","iti",""
"html-button-response","89","440389","0.0-69.0","CAN_106","106","","","","","","453","","0","darkgreenblue","lightred","[""darkgreenblue"",""lightred"",""low nameability""]","left-right","[""darkgreenblue"",""lightred"",""low nameability""]","2","low nameability","17","left","trigger",""
"html-button-response","90","441075","0.0-70.0-0.0","CAN_106","106","","","","","","678","<button class=""jspsych-btn""><img src=""stimuli/darkgreenblue.png"" style=""width: 200px;height: 200px;""></button>","0","darkgreenblue","lightred","[""darkgreenblue"",""lightred"",""low nameability""]","left-right","[""darkgreenblue"",""lightred"",""low nameability""]","2","low nameability","17","left","response","1"
"html-audio-button-response","91","441277","0.0-70.0-1.0","CAN_106","106","","","","","","null","stimuli/bleep.m4a","null","darkgreenblue","lightred","[""darkgreenblue"",""lightred"",""low nameability""]","left-right","[""darkgreenblue"",""lightred"",""low nameability""]","2","low nameability","17","left","audio_feedback","1"
"html-button-response","92","441796","0.0-71.0","CAN_106","106","","","","","","null","<button class=""jspsych-btn""><img src=""stimuli/white_square.png"" style=""width: 200px;height: 200px;""></button>","null","darkgreenblue","lightred","[""darkgreenblue"",""lightred"",""low nameability""]","left-right","[""darkgreenblue"",""lightred"",""low nameability""]","2","low nameability","17","left","iti",""
"html-button-response","93","442315","0.0-72.0","CAN_106","106","","","","","","495","","0","brown","purple","[""brown"",""purple"",""high nameability""]","right-left","[""purple"",""brown""]","2","high nameability","18","right","trigger",""
"html-button-response","94","442956","0.0-73.0-0.0","CAN_106","106","","","","","","634","<button class=""jspsych-btn""><img src=""stimuli/brown.png"" style=""width: 200px;height: 200px;""></button>","1","brown","purple","[""brown"",""purple"",""high nameability""]","right-left","[""purple"",""brown""]","2","high nameability","18","right","response","1"
"html-audio-button-response","95","443161","0.0-73.0-1.0","CAN_106","106","","","","","","null","stimuli/bleep.m4a","null","brown","purple","[""brown"",""purple"",""high nameability""]","right-left","[""purple"",""brown""]","2","high nameability","18","right","audio_feedback","1"
"html-button-response","96","443685","0.0-74.0","CAN_106","106","","","","","","null","<button class=""jspsych-btn""><img src=""stimuli/white_square.png"" style=""width: 200px;height: 200px;""></button>","null","brown","purple","[""brown"",""purple"",""high nameability""]","right-left","[""purple"",""brown""]","2","high nameability","18","right","iti",""
"html-button-response","97","444217","0.0-75.0","CAN_106","106","","","","","","503","","0","mustard","neonyellow","[""mustard"",""neonyellow"",""low nameability""]","right-left","[""neonyellow"",""mustard""]","2","low nameability","19","right","trigger",""
"html-button-response","98","444980","0.0-76.0-0.0","CAN_106","106","","","","","","757","<button class=""jspsych-btn""><img src=""stimuli/mustard.png"" style=""width: 200px;height: 200px;""></button>","1","mustard","neonyellow","[""mustard"",""neonyellow"",""low nameability""]","right-left","[""neonyellow"",""mustard""]","2","low nameability","19","right","response","1"
"html-audio-button-response","99","445184","0.0-76.0-1.0","CAN_106","106","","","","","","null","stimuli/bleep.m4a","null","mustard","neonyellow","[""mustard"",""neonyellow"",""low nameability""]","right-left","[""neonyellow"",""mustard""]","2","low nameability","19","right","audio_feedback","1"
"html-button-response","100","445703","0.0-77.0","CAN_106","106","","","","","","null","<button class=""jspsych-btn""><img src=""stimuli/white_square.png"" style=""width: 200px;height: 200px;""></button>","null","mustard","neonyellow","[""mustard"",""neonyellow"",""low nameability""]","right-left","[""neonyellow"",""mustard""]","2","low nameability","19","right","iti",""
"html-button-response","101","446302","0.0-78.0","CAN_106","106","","","","","","581","","0","brown","blue","[""brown"",""blue"",""high nameability""]","left-right","[""brown"",""blue"",""high nameability""]","2","high nameability","20","left","trigger",""
"html-button-response","102","447034","0.0-79.0-0.0","CAN_106","106","","","","","","724","<button class=""jspsych-btn""><img src=""stimuli/brown.png"" style=""width: 200px;height: 200px;""></button>","0","brown","blue","[""brown"",""blue"",""high nameability""]","left-right","[""brown"",""blue"",""high nameability""]","2","high nameability","20","left","response","1"
"html-audio-button-response","103","447238","0.0-79.0-1.0","CAN_106","106","","","","","","null","stimuli/bleep.m4a","null","brown","blue","[""brown"",""blue"",""high nameability""]","left-right","[""brown"",""blue"",""high nameability""]","2","high nameability","20","left","audio_feedback","1"
"html-button-response","104","447759","0.0-80.0","CAN_106","106","","","","","","null","<button class=""jspsych-btn""><img src=""stimuli/white_square.png"" style=""width: 200px;height: 200px;""></button>","null","brown","blue","[""brown"",""blue"",""high nameability""]","left-right","[""brown"",""blue"",""high nameability""]","2","high nameability","20","left","iti",""
"pavlovia","105","447828","0.0-81.0","CAN_106","106","","","","","","","","","","","","","","","","","","",""
"pavlovia","106","447839","0.0-82.0","CAN_106","106","","","","","","","","","","","","","","","","","","",""
"html-audio-button-response","107","449456","0.0-83.0","CAN_106","106","","","","","","1693","stimuli/tada.m4a","0","","","","","","","","","","",""
"html-button-response","108","450334","0.0-84.0","CAN_106","106","","","","","","871","","0","","","","","","","","","","",""
"html-button-response","109","450936","0.0-85.0","CAN_106","106","","","","","","596","","0","yellow","orange","[""yellow"",""orange"",""high nameability""]","left-right","[""yellow"",""orange"",""high nameability""]","3","high nameability","21","left","trigger",""
"html-button-response","110","451645","0.0-86.0-0.0","CAN_106","106","","","","","","703","<button class=""jspsych-btn""><img src=""stimuli/yellow.png"" style=""width: 200px;height: 200px;""></button>","0","yellow","orange","[""yellow"",""orange"",""high nameability""]","left-right","[""yellow"",""orange"",""high nameability""]","3","high nameability","21","left","response","1"
"html-audio-button-response","111","451854","0.0-86.0-1.0","CAN_106","106","","","","","","null","stimuli/bleep.m4a","null","yellow","orange","[""yellow"",""orange"",""high nameability""]","left-right","[""yellow"",""orange"",""high nameability""]","3","high nameability","21","left","audio_feedback","1"
"html-button-response","112","452374","0.0-87.0","CAN_106","106","","","","","","null","<button class=""jspsych-btn""><img src=""stimuli/white_square.png"" style=""width: 200px;height: 200px;""></button>","null","yellow","orange","[""yellow"",""orange"",""high nameability""]","left-right","[""yellow"",""orange"",""high nameability""]","3","high nameability","21","left","iti",""
"html-button-response","113","452850","0.0-88.0","CAN_106","106","","","","","","461","","0","brown","orange","[""brown"",""orange"",""high nameability""]","left-right","[""brown"",""orange"",""high nameability""]","3","high nameability","22","left","trigger",""
"html-button-response","114","453529","0.0-89.0-0.0","CAN_106","106","","","","","","673","<button class=""jspsych-btn""><img src=""stimuli/brown.png"" style=""width: 200px;height: 200px;""></button>","0","brown","orange","[""brown"",""orange"",""high nameability""]","left-right","[""brown"",""orange"",""high nameability""]","3","high nameability","22","left","response","1"
"html-audio-button-response","115","453734","0.0-89.0-1.0","CAN_106","106","","","","","","null","stimuli/bleep.m4a","null","brown","orange","[""brown"",""orange"",""high nameability""]","left-right","[""brown"",""orange"",""high nameability""]","3","high nameability","22","left","audio_feedback","1"
"html-button-response","116","454250","0.0-90.0","CAN_106","106","","","","","","null","<button class=""jspsych-btn""><img src=""stimuli/white_square.png"" style=""width: 200px;height: 200px;""></button>","null","brown","orange","[""brown"",""orange"",""high nameability""]","left-right","[""brown"",""orange"",""high nameability""]","3","high nameability","22","left","iti",""
"html-button-response","117","454681","0.0-91.0","CAN_106","106","","","","","","411","","0","brown","yellow","[""brown"",""yellow"",""high nameability""]","right-left","[""yellow"",""brown""]","3","high nameability","23","right","trigger",""
"html-button-response","118","455374","0.0-92.0-0.0","CAN_106","106","","","","","","687","<button class=""jspsych-btn""><img src=""stimuli/brown.png"" style=""width: 200px;height: 200px;""></button>","1","brown","yellow","[""brown"",""yellow"",""high nameability""]","right-left","[""yellow"",""brown""]","3","high nameability","23","right","response","1"
"html-audio-button-response","119","455577","0.0-92.0-1.0","CAN_106","106","","","","","","null","stimuli/bleep.m4a","null","brown","yellow","[""brown"",""yellow"",""high nameability""]","right-left","[""yellow"",""brown""]","3","high nameability","23","right","audio_feedback","1"
"html-button-response","120","456096","0.0-93.0","CAN_106","106","","","","","","null","<button class=""jspsych-btn""><img src=""stimuli/white_square.png"" style=""width: 200px;height: 200px;""></button>","null","brown","yellow","[""brown"",""yellow"",""high nameability""]","right-left","[""yellow"",""brown""]","3","high nameability","23","right","iti",""
"html-button-response","121","456573","0.0-94.0","CAN_106","106","","","","","","458","","0","purple","blue","[""purple"",""blue"",""high nameability""]","left-right","[""purple"",""blue"",""high nameability""]","3","high nameability","24","left","trigger",""
"html-button-response","122","457231","0.0-95.0-0.0","CAN_106","106","","","","","","649","<button class=""jspsych-btn""><img src=""stimuli/purple.png"" style=""width: 200px;height: 200px;""></button>","0","purple","blue","[""purple"",""blue"",""high nameability""]","left-right","[""purple"",""blue"",""high nameability""]","3","high nameability","24","left","response","1"
"html-audio-button-response","123","457434","0.0-95.0-1.0","CAN_106","106","","","","","","null","stimuli/bleep.m4a","null","purple","blue","[""purple"",""blue"",""high nameability""]","left-right","[""purple"",""blue"",""high nameability""]","3","high nameability","24","left","audio_feedback","1"
"html-button-response","124","457953","0.0-96.0","CAN_106","106","","","","","","null","<button class=""jspsych-btn""><img src=""stimuli/white_square.png"" style=""width: 200px;height: 200px;""></button>","null","purple","blue","[""purple"",""blue"",""high nameability""]","left-right","[""purple"",""blue"",""high nameability""]","3","high nameability","24","left","iti",""
"html-button-response","125","458510","0.0-97.0","CAN_106","106","","","","","","529","","0","lightred","turquoise","[""lightred"",""turquoise"",""low nameability""]","right-left","[""turquoise"",""lightred""]","3","low nameability","25","right","trigger",""
"html-button-response","126","459132","0.0-98.0-0.0","CAN_106","106","","","","","","614","<button class=""jspsych-btn""><img src=""stimuli/lightred.png"" style=""width: 200px;height: 200px;""></button>","1","lightred","turquoise","[""lightred"",""turquoise"",""low nameability""]","right-left","[""turquoise"",""lightred""]","3","low nameability","25","right","response","1"
"html-audio-button-response","127","459335","0.0-98.0-1.0","CAN_106","106","","","","","","null","stimuli/bleep.m4a","null","lightred","turquoise","[""lightred"",""turquoise"",""low nameability""]","right-left","[""turquoise"",""lightred""]","3","low nameability","25","right","audio_feedback","1"
"html-button-response","128","459849","0.0-99.0","CAN_106","106","","","","","","null","<button class=""jspsych-btn""><img src=""stimuli/white_square.png"" style=""width: 200px;height: 200px;""></button>","null","lightred","turquoise","[""lightred"",""turquoise"",""low nameability""]","right-left","[""turquoise"",""lightred""]","3","low nameability","25","right","iti",""
"html-button-response","129","460327","0.0-100.0","CAN_106","106","","","","","","460","","0","darkgreenblue","neonyellow","[""darkgreenblue"",""neonyellow"",""low nameability""]","right-left","[""neonyellow"",""darkgreenblue""]","3","low nameability","26","right","trigger",""
"html-button-response","130","461030","0.0-101.0-0.0","CAN_106","106","","","","","","695","<button class=""jspsych-btn""><img src=""stimuli/darkgreenblue.png"" style=""width: 200px;height: 200px;""></button>","1","darkgreenblue","neonyellow","[""darkgreenblue"",""neonyellow"",""low nameability""]","right-left","[""neonyellow"",""darkgreenblue""]","3","low nameability","26","right","response","1"
"html-audio-button-response","131","461239","0.0-101.0-1.0","CAN_106","106","","","","","","null","stimuli/bleep.m4a","null","darkgreenblue","neonyellow","[""darkgreenblue"",""neonyellow"",""low nameability""]","right-left","[""neonyellow"",""darkgreenblue""]","3","low nameability","26","right","audio_feedback","1"
"html-button-response","132","461765","0.0-102.0","CAN_106","106","","","","","","null","<button class=""jspsych-btn""><img src=""stimuli/white_square.png"" style=""width: 200px;height: 200px;""></button>","null","darkgreenblue","neonyellow","[""darkgreenblue"",""neonyellow"",""low nameability""]","right-left","[""neonyellow"",""darkgreenblue""]","3","low nameability","26","right","iti",""
"html-button-response","133","462278","0.0-103.0","CAN_106","106","","","","","","494","","0","turquoise","darkgreenblue","[""turquoise"",""darkgreenblue"",""low nameability""]","left-right","[""turquoise"",""darkgreenblue"",""low nameability""]","3","low nameability","27","left","trigger",""
"html-button-response","134","463016","0.0-104.0-0.0","CAN_106","106","","","","","","723","<button class=""jspsych-btn""><img src=""stimuli/turquoise.png"" style=""width: 200px;height: 200px;""></button>","0","turquoise","darkgreenblue","[""turquoise"",""darkgreenblue"",""low nameability""]","left-right","[""turquoise"",""darkgreenblue"",""low nameability""]","3","low nameability","27","left","response","1"
"html-audio-button-response","135","463220","0.0-104.0-1.0","CAN_106","106","","","","","","null","stimuli/bleep.m4a","null","turquoise","darkgreenblue","[""turquoise"",""darkgreenblue"",""low nameability""]","left-right","[""turquoise"",""darkgreenblue"",""low nameability""]","3","low nameability","27","left","audio_feedback","1"
"html-button-response","136","463735","0.0-105.0","CAN_106","106","","","","","","null","<button class=""jspsych-btn""><img src=""stimuli/white_square.png"" style=""width: 200px;height: 200px;""></button>","null","turquoise","darkgreenblue","[""turquoise"",""darkgreenblue"",""low nameability""]","left-right","[""turquoise"",""darkgreenblue"",""low nameability""]","3","low nameability","27","left","iti",""
"html-button-response","137","464220","0.0-106.0","CAN_106","106","","","","","","465","","0","lightred","neonyellow","[""lightred"",""neonyellow"",""low nameability""]","right-left","[""neonyellow"",""lightred""]","3","low nameability","28","right","trigger",""
"html-button-response","138","464980","0.0-107.0-0.0","CAN_106","106","","","","","","750","<button class=""jspsych-btn""><img src=""stimuli/lightred.png"" style=""width: 200px;height: 200px;""></button>","1","lightred","neonyellow","[""lightred"",""neonyellow"",""low nameability""]","right-left","[""neonyellow"",""lightred""]","3","low nameability","28","right","response","1"
"html-audio-button-response","139","465183","0.0-107.0-1.0","CAN_106","106","","","","","","null","stimuli/bleep.m4a","null","lightred","neonyellow","[""lightred"",""neonyellow"",""low nameability""]","right-left","[""neonyellow"",""lightred""]","3","low nameability","28","right","audio_feedback","1"
"html-button-response","140","465700","0.0-108.0","CAN_106","106","","","","","","null","<button class=""jspsych-btn""><img src=""stimuli/white_square.png"" style=""width: 200px;height: 200px;""></button>","null","lightred","neonyellow","[""lightred"",""neonyellow"",""low nameability""]","right-left","[""neonyellow"",""lightred""]","3","low nameability","28","right","iti",""
"html-button-response","141","466229","0.0-109.0","CAN_106","106","","","","","","511","","0","orange","purple","[""orange"",""purple"",""high nameability""]","right-left","[""purple"",""orange""]","3","high nameability","29","right","trigger",""
"html-button-response","142","466895","0.0-110.0-0.0","CAN_106","106","","","","","","659","<button class=""jspsych-btn""><img src=""stimuli/orange.png"" style=""width: 200px;height: 200px;""></button>","1","orange","purple","[""orange"",""purple"",""high nameability""]","right-left","[""purple"",""orange""]","3","high nameability","29","right","response","1"
"html-audio-button-response","143","467101","0.0-110.0-1.0","CAN_106","106","","","","","","null","stimuli/bleep.m4a","null","orange","purple","[""orange"",""purple"",""high nameability""]","right-left","[""purple"",""orange""]","3","high nameability","29","right","audio_feedback","1"
"html-button-response","144","467620","0.0-111.0","CAN_106","106","","","","","","null","<button class=""jspsych-btn""><img src=""stimuli/white_square.png"" style=""width: 200px;height: 200px;""></button>","null","orange","purple","[""orange"",""purple"",""high nameability""]","right-left","[""purple"",""orange""]","3","high nameability","29","right","iti",""
"html-button-response","145","468142","0.0-112.0","CAN_106","106","","","","","","502","","0","neonyellow","darkgreenblue","[""neonyellow"",""darkgreenblue"",""low nameability""]","left-right","[""neonyellow"",""darkgreenblue"",""low nameability""]","3","low nameability","30","left","trigger",""
"html-button-response","146","469473","0.0-113.0-0.0","CAN_106","106","","","","","","1325","<button class=""jspsych-btn""><img src=""stimuli/neonyellow.png"" style=""width: 200px;height: 200px;""></button>","0","neonyellow","darkgreenblue","[""neonyellow"",""darkgreenblue"",""low nameability""]","left-right","[""neonyellow"",""darkgreenblue"",""low nameability""]","3","low nameability","30","left","response","1"
"html-audio-button-response","147","469679","0.0-113.0-1.0","CAN_106","106","","","","","","null","stimuli/bleep.m4a","null","neonyellow","darkgreenblue","[""neonyellow"",""darkgreenblue"",""low nameability""]","left-right","[""neonyellow"",""darkgreenblue"",""low nameability""]","3","low nameability","30","left","audio_feedback","1"
"html-button-response","148","470196","0.0-114.0","CAN_106","106","","","","","","null","<button class=""jspsych-btn""><img src=""stimuli/white_square.png"" style=""width: 200px;height: 200px;""></button>","null","neonyellow","darkgreenblue","[""neonyellow"",""darkgreenblue"",""low nameability""]","left-right","[""neonyellow"",""darkgreenblue"",""low nameability""]","3","low nameability","30","left","iti",""
"pavlovia","149","470244","0.0-115.0","CAN_106","106","","","","","","","","","","","","","","","","","","",""
"pavlovia","150","470251","0.0-116.0","CAN_106","106","","","","","","","","","","","","","","","","","","",""
"html-audio-button-response","151","471869","0.0-117.0","CAN_106","106","","","","","","1675","stimuli/tada.m4a","0","","","","","","","","","","",""
"html-button-response","152","472497","0.0-118.0","CAN_106","106","","","","","","620","","0","","","","","","","","","","",""
"html-button-response","153","473195","0.0-119.0","CAN_106","106","","","","","","690","","0","red","yellow","[""red"",""yellow"",""high nameability""]","left-right","[""red"",""yellow"",""high nameability""]","4","high nameability","31","left","trigger",""
"html-button-response","154","473829","0.0-120.0-0.0","CAN_106","106","","","","","","626","<button class=""jspsych-btn""><img src=""stimuli/red.png"" style=""width: 200px;height: 200px;""></button>","0","red","yellow","[""red"",""yellow"",""high nameability""]","left-right","[""red"",""yellow"",""high nameability""]","4","high nameability","31","left","response","1"
"html-audio-button-response","155","474033","0.0-120.0-1.0","CAN_106","106","","","","","","null","stimuli/bleep.m4a","null","red","yellow","[""red"",""yellow"",""high nameability""]","left-right","[""red"",""yellow"",""high nameability""]","4","high nameability","31","left","audio_feedback","1"
"html-button-response","156","474554","0.0-121.0","CAN_106","106","","","","","","null","<button class=""jspsych-btn""><img src=""stimuli/white_square.png"" style=""width: 200px;height: 200px;""></button>","null","red","yellow","[""red"",""yellow"",""high nameability""]","left-right","[""red"",""yellow"",""high nameability""]","4","high nameability","31","left","iti",""
"html-button-response","157","475005","0.0-122.0","CAN_106","106","","","","","","428","","0","yellow","red","[""yellow"",""red"",""high nameability""]","right-left","[""red"",""yellow""]","4","high nameability","32","right","trigger",""
"html-button-response","158","475573","0.0-123.0-0.0","CAN_106","106","","","","","","559","<button class=""jspsych-btn""><img src=""stimuli/yellow.png"" style=""width: 200px;height: 200px;""></button>","1","yellow","red","[""yellow"",""red"",""high nameability""]","right-left","[""red"",""yellow""]","4","high nameability","32","right","response","1"
"html-audio-button-response","159","475777","0.0-123.0-1.0","CAN_106","106","","","","","","null","stimuli/bleep.m4a","null","yellow","red","[""yellow"",""red"",""high nameability""]","right-left","[""red"",""yellow""]","4","high nameability","32","right","audio_feedback","1"
"html-button-response","160","476295","0.0-124.0","CAN_106","106","","","","","","null","<button class=""jspsych-btn""><img src=""stimuli/white_square.png"" style=""width: 200px;height: 200px;""></button>","null","yellow","red","[""yellow"",""red"",""high nameability""]","right-left","[""red"",""yellow""]","4","high nameability","32","right","iti",""
"html-button-response","161","476561","0.0-125.0","CAN_106","106","","","","","","248","","0","purple","orange","[""purple"",""orange"",""high nameability""]","right-left","[""orange"",""purple""]","4","high nameability","33","right","trigger",""
"html-button-response","162","477238","0.0-126.0-0.0","CAN_106","106","","","","","","668","<button class=""jspsych-btn""><img src=""stimuli/purple.png"" style=""width: 200px;height: 200px;""></button>","1","purple","orange","[""purple"",""orange"",""high nameability""]","right-left","[""orange"",""purple""]","4","high nameability","33","right","response","1"
"html-audio-button-response","163","477445","0.0-126.0-1.0","CAN_106","106","","","","","","null","stimuli/bleep.m4a","null","purple","orange","[""purple"",""orange"",""high nameability""]","right-left","[""orange"",""purple""]","4","high nameability","33","right","audio_feedback","1"
"html-button-response","164","477969","0.0-127.0","CAN_106","106","","","","","","null","<button class=""jspsych-btn""><img src=""stimuli/white_square.png"" style=""width: 200px;height: 200px;""></button>","null","purple","orange","[""purple"",""orange"",""high nameability""]","right-left","[""orange"",""purple""]","4","high nameability","33","right","iti",""
"html-button-response","165","478230","0.0-128.0","CAN_106","106","","","","","","243","","0","darkgreenblue","turquoise","[""darkgreenblue"",""turquoise"",""low nameability""]","left-right","[""darkgreenblue"",""turquoise"",""low nameability""]","4","low nameability","34","left","trigger",""
"html-button-response","166","478902","0.0-129.0-0.0","CAN_106","106","","","","","","666","<button class=""jspsych-btn""><img src=""stimuli/darkgreenblue.png"" style=""width: 200px;height: 200px;""></button>","0","darkgreenblue","turquoise","[""darkgreenblue"",""turquoise"",""low nameability""]","left-right","[""darkgreenblue"",""turquoise"",""low nameability""]","4","low nameability","34","left","response","1"
"html-audio-button-response","167","479108","0.0-129.0-1.0","CAN_106","106","","","","","","null","stimuli/bleep.m4a","null","darkgreenblue","turquoise","[""darkgreenblue"",""turquoise"",""low nameability""]","left-right","[""darkgreenblue"",""turquoise"",""low nameability""]","4","low nameability","34","left","audio_feedback","1"
"html-button-response","168","479629","0.0-130.0","CAN_106","106","","","","","","null","<button class=""jspsych-btn""><img src=""stimuli/white_square.png"" style=""width: 200px;height: 200px;""></button>","null","darkgreenblue","turquoise","[""darkgreenblue"",""turquoise"",""low nameability""]","left-right","[""darkgreenblue"",""turquoise"",""low nameability""]","4","low nameability","34","left","iti",""
"html-button-response","169","480044","0.0-131.0","CAN_106","106","","","","","","397","","0","yellow","brown","[""yellow"",""brown"",""high nameability""]","right-left","[""brown"",""yellow""]","4","high nameability","35","right","trigger",""
"html-button-response","170","480624","0.0-132.0-0.0","CAN_106","106","","","","","","570","<button class=""jspsych-btn""><img src=""stimuli/yellow.png"" style=""width: 200px;height: 200px;""></button>","1","yellow","brown","[""yellow"",""brown"",""high nameability""]","right-left","[""brown"",""yellow""]","4","high nameability","35","right","response","1"
"html-audio-button-response","171","480830","0.0-132.0-1.0","CAN_106","106","","","","","","null","stimuli/bleep.m4a","null","yellow","brown","[""yellow"",""brown"",""high nameability""]","right-left","[""brown"",""yellow""]","4","high nameability","35","right","audio_feedback","1"
"html-button-response","172","481348","0.0-133.0","CAN_106","106","","","","","","null","<button class=""jspsych-btn""><img src=""stimuli/white_square.png"" style=""width: 200px;height: 200px;""></button>","null","yellow","brown","[""yellow"",""brown"",""high nameability""]","right-left","[""brown"",""yellow""]","4","high nameability","35","right","iti",""
"html-button-response","173","481767","0.0-134.0","CAN_106","106","","","","","","392","","0","purple","red","[""purple"",""red"",""high nameability""]","right-left","[""red"",""purple""]","4","high nameability","36","right","trigger",""
"html-button-response","174","482349","0.0-135.0-0.0","CAN_106","106","","","","","","573","<button class=""jspsych-btn""><img src=""stimuli/purple.png"" style=""width: 200px;height: 200px;""></button>","1","purple","red","[""purple"",""red"",""high nameability""]","right-left","[""red"",""purple""]","4","high nameability","36","right","response","1"
"html-audio-button-response","175","482557","0.0-135.0-1.0","CAN_106","106","","","","","","null","stimuli/bleep.m4a","null","purple","red","[""purple"",""red"",""high nameability""]","right-left","[""red"",""purple""]","4","high nameability","36","right","audio_feedback","1"
"html-button-response","176","483084","0.0-136.0","CAN_106","106","","","","","","null","<button class=""jspsych-btn""><img src=""stimuli/white_square.png"" style=""width: 200px;height: 200px;""></button>","null","purple","red","[""purple"",""red"",""high nameability""]","right-left","[""red"",""purple""]","4","high nameability","36","right","iti",""
"html-button-response","177","483528","0.0-137.0","CAN_106","106","","","","","","406","","0","lightred","darkgreenblue","[""lightred"",""darkgreenblue"",""low nameability""]","left-right","[""lightred"",""darkgreenblue"",""low nameability""]","4","low nameability","37","left","trigger",""
"html-button-response","178","484154","0.0-138.0-0.0","CAN_106","106","","","","","","611","<button class=""jspsych-btn""><img src=""stimuli/lightred.png"" style=""width: 200px;height: 200px;""></button>","0","lightred","darkgreenblue","[""lightred"",""darkgreenblue"",""low nameability""]","left-right","[""lightred"",""darkgreenblue"",""low nameability""]","4","low nameability","37","left","response","1"
"html-audio-button-response","179","484362","0.0-138.0-1.0","CAN_106","106","","","","","","null","stimuli/bleep.m4a","null","lightred","darkgreenblue","[""lightred"",""darkgreenblue"",""low nameability""]","left-right","[""lightred"",""darkgreenblue"",""low nameability""]","4","low nameability","37","left","audio_feedback","1"
"html-button-response","180","484886","0.0-139.0","CAN_106","106","","","","","","null","<button class=""jspsych-btn""><img src=""stimuli/white_square.png"" style=""width: 200px;height: 200px;""></button>","null","lightred","darkgreenblue","[""lightred"",""darkgreenblue"",""low nameability""]","left-right","[""lightred"",""darkgreenblue"",""low nameability""]","4","low nameability","37","left","iti",""
"html-button-response","181","485199","0.0-140.0","CAN_106","106","","","","","","299","","0","mustard","turquoise","[""mustard"",""turquoise"",""low nameability""]","right-left","[""turquoise"",""mustard""]","4","low nameability","38","right","trigger",""
"html-button-response","182","485853","0.0-141.0-0.0","CAN_106","106","","","","","","646","<button class=""jspsych-btn""><img src=""stimuli/mustard.png"" style=""width: 200px;height: 200px;""></button>","1","mustard","turquoise","[""mustard"",""turquoise"",""low nameability""]","right-left","[""turquoise"",""mustard""]","4","low nameability","38","right","response","1"
"html-audio-button-response","183","486070","0.0-141.0-1.0","CAN_106","106","","","","","","null","stimuli/bleep.m4a","null","mustard","turquoise","[""mustard"",""turquoise"",""low nameability""]","right-left","[""turquoise"",""mustard""]","4","low nameability","38","right","audio_feedback","1"
"html-button-response","184","486594","0.0-142.0","CAN_106","106","","","","","","null","<button class=""jspsych-btn""><img src=""stimuli/white_square.png"" style=""width: 200px;height: 200px;""></button>","null","mustard","turquoise","[""mustard"",""turquoise"",""low nameability""]","right-left","[""turquoise"",""mustard""]","4","low nameability","38","right","iti",""
"html-button-response","185","486957","0.0-143.0","CAN_106","106","","","","","","343","","0","lightred","pink","[""lightred"",""pink"",""low nameability""]","left-right","[""lightred"",""pink"",""low nameability""]","4","low nameability","39","left","trigger",""
"html-button-response","186","487664","0.0-144.0-0.0","CAN_106","106","","","","","","697","<button class=""jspsych-btn""><img src=""stimuli/lightred.png"" style=""width: 200px;height: 200px;""></button>","0","lightred","pink","[""lightred"",""pink"",""low nameability""]","left-right","[""lightred"",""pink"",""low nameability""]","4","low nameability","39","left","response","1"
"html-audio-button-response","187","487870","0.0-144.0-1.0","CAN_106","106","","","","","","null","stimuli/bleep.m4a","null","lightred","pink","[""lightred"",""pink"",""low nameability""]","left-right","[""lightred"",""pink"",""low nameability""]","4","low nameability","39","left","audio_feedback","1"
"html-button-response","188","488391","0.0-145.0","CAN_106","106","","","","","","null","<button class=""jspsych-btn""><img src=""stimuli/white_square.png"" style=""width: 200px;height: 200px;""></button>","null","lightred","pink","[""lightred"",""pink"",""low nameability""]","left-right","[""lightred"",""pink"",""low nameability""]","4","low nameability","39","left","iti",""
"html-button-response","189","488672","0.0-146.0","CAN_106","106","","","","","","262","","0","red","orange","[""red"",""orange"",""high nameability""]","right-left","[""orange"",""red""]","4","high nameability","40","right","trigger",""
"html-button-response","190","489457","0.0-147.0-0.0","CAN_106","106","","","","","","778","<button class=""jspsych-btn""><img src=""stimuli/red.png"" style=""width: 200px;height: 200px;""></button>","1","red","orange","[""red"",""orange"",""high nameability""]","right-left","[""orange"",""red""]","4","high nameability","40","right","response","1"
"html-audio-button-response","191","489661","0.0-147.0-1.0","CAN_106","106","","","","","","null","stimuli/bleep.m4a","null","red","orange","[""red"",""orange"",""high nameability""]","right-left","[""orange"",""red""]","4","high nameability","40","right","audio_feedback","1"
"html-button-response","192","490180","0.0-148.0","CAN_106","106","","","","","","null","<button class=""jspsych-btn""><img src=""stimuli/white_square.png"" style=""width: 200px;height: 200px;""></button>","null","red","orange","[""red"",""orange"",""high nameability""]","right-left","[""orange"",""red""]","4","high nameability","40","right","iti",""
"pavlovia","193","490236","0.0-149.0","CAN_106","106","","","","","","","","","","","","","","","","","","",""
"pavlovia","194","490243","0.0-150.0","CAN_106","106","","","","","","","","","","","","","","","","","","",""
"html-audio-button-response","195","491757","0.0-151.0","CAN_106","106","","","","","","1581","stimuli/tada.m4a","0","","","","","","","","","","",""
"html-button-response","196","492361","0.0-152.0","CAN_106","106","","","","","","599","","0","","","","","","","","","","",""
"html-button-response","197","493098","0.0-153.0","CAN_106","106","","","","","","731","","0","pink","turquoise","[""pink"",""turquoise"",""low nameability""]","right-left","[""turquoise"",""pink""]","5","low nameability","41","right","trigger",""
"html-button-response","198","493738","0.0-154.0-0.0","CAN_106","106","","","","","","631","<button class=""jspsych-btn""><img src=""stimuli/pink.png"" style=""width: 200px;height: 200px;""></button>","1","pink","turquoise","[""pink"",""turquoise"",""low nameability""]","right-left","[""turquoise"",""pink""]","5","low nameability","41","right","response","1"
"html-audio-button-response","199","493943","0.0-154.0-1.0","CAN_106","106","","","","","","null","stimuli/bleep.m4a","null","pink","turquoise","[""pink"",""turquoise"",""low nameability""]","right-left","[""turquoise"",""pink""]","5","low nameability","41","right","audio_feedback","1"
"html-button-response","200","494455","0.0-155.0","CAN_106","106","","","","","","null","<button class=""jspsych-btn""><img src=""stimuli/white_square.png"" style=""width: 200px;height: 200px;""></button>","null","pink","turquoise","[""pink"",""turquoise"",""low nameability""]","right-left","[""turquoise"",""pink""]","5","low nameability","41","right","iti",""
"html-button-response","201","494727","0.0-156.0","CAN_106","106","","","","","","251","","0","mustard","darkgreenblue","[""mustard"",""darkgreenblue"",""low nameability""]","right-left","[""darkgreenblue"",""mustard""]","5","low nameability","42","right","trigger",""
"html-button-response","202","495438","0.0-157.0-0.0","CAN_106","106","","","","","","701","<button class=""jspsych-btn""><img src=""stimuli/mustard.png"" style=""width: 200px;height: 200px;""></button>","1","mustard","darkgreenblue","[""mustard"",""darkgreenblue"",""low nameability""]","right-left","[""darkgreenblue"",""mustard""]","5","low nameability","42","right","response","1"
"html-audio-button-response","203","495646","0.0-157.0-1.0","CAN_106","106","","","","","","null","stimuli/bleep.m4a","null","mustard","darkgreenblue","[""mustard"",""darkgreenblue"",""low nameability""]","right-left","[""darkgreenblue"",""mustard""]","5","low nameability","42","right","audio_feedback","1"
"html-button-response","204","496162","0.0-158.0","CAN_106","106","","","","","","null","<button class=""jspsych-btn""><img src=""stimuli/white_square.png"" style=""width: 200px;height: 200px;""></button>","null","mustard","darkgreenblue","[""mustard"",""darkgreenblue"",""low nameability""]","right-left","[""darkgreenblue"",""mustard""]","5","low nameability","42","right","iti",""
"html-button-response","205","496691","0.0-159.0","CAN_106","106","","","","","","508","","0","blue","orange","[""blue"",""orange"",""high nameability""]","left-right","[""blue"",""orange"",""high nameability""]","5","high nameability","43","left","trigger",""
"html-button-response","206","497339","0.0-160.0-0.0","CAN_106","106","","","","","","641","<button class=""jspsych-btn""><img src=""stimuli/blue.png"" style=""width: 200px;height: 200px;""></button>","0","blue","orange","[""blue"",""orange"",""high nameability""]","left-right","[""blue"",""orange"",""high nameability""]","5","high nameability","43","left","response","1"
"html-audio-button-response","207","497541","0.0-160.0-1.0","CAN_106","106","","","","","","null","stimuli/bleep.m4a","null","blue","orange","[""blue"",""orange"",""high nameability""]","left-right","[""blue"",""orange"",""high nameability""]","5","high nameability","43","left","audio_feedback","1"
"html-button-response","208","498059","0.0-161.0","CAN_106","106","","","","","","null","<button class=""jspsych-btn""><img src=""stimuli/white_square.png"" style=""width: 200px;height: 200px;""></button>","null","blue","orange","[""blue"",""orange"",""high nameability""]","left-right","[""blue"",""orange"",""high nameability""]","5","high nameability","43","left","iti",""
"html-button-response","209","498506","0.0-162.0","CAN_106","106","","","","","","430","","0","red","purple","[""red"",""purple"",""high nameability""]","left-right","[""red"",""purple"",""high nameability""]","5","high nameability","44","left","trigger",""
"html-button-response","210","499222","0.0-163.0-0.0","CAN_106","106","","","","","","709","<button class=""jspsych-btn""><img src=""stimuli/red.png"" style=""width: 200px;height: 200px;""></button>","0","red","purple","[""red"",""purple"",""high nameability""]","left-right","[""red"",""purple"",""high nameability""]","5","high nameability","44","left","response","1"
"html-audio-button-response","211","499425","0.0-163.0-1.0","CAN_106","106","","","","","","null","stimuli/bleep.m4a","null","red","purple","[""red"",""purple"",""high nameability""]","left-right","[""red"",""purple"",""high nameability""]","5","high nameability","44","left","audio_feedback","1"
"html-button-response","212","499944","0.0-164.0","CAN_106","106","","","","","","null","<button class=""jspsych-btn""><img src=""stimuli/white_square.png"" style=""width: 200px;height: 200px;""></button>","null","red","purple","[""red"",""purple"",""high nameability""]","left-right","[""red"",""purple"",""high nameability""]","5","high nameability","44","left","iti",""
"html-button-response","213","500171","0.0-165.0","CAN_106","106","","","","","","210","","0","orange","yellow","[""orange"",""yellow"",""high nameability""]","left-right","[""orange"",""yellow"",""high nameability""]","5","high nameability","45","left","trigger",""
"html-button-response","214","500881","0.0-166.0-0.0","CAN_106","106","","","","","","703","<button class=""jspsych-btn""><img src=""stimuli/orange.png"" style=""width: 200px;height: 200px;""></button>","0","orange","yellow","[""orange"",""yellow"",""high nameability""]","left-right","[""orange"",""yellow"",""high nameability""]","5","high nameability","45","left","response","1"
"html-audio-button-response","215","501083","0.0-166.0-1.0","CAN_106","106","","","","","","null","stimuli/bleep.m4a","null","orange","yellow","[""orange"",""yellow"",""high nameability""]","left-right","[""orange"",""yellow"",""high nameability""]","5","high nameability","45","left","audio_feedback","1"
"html-button-response","216","501605","0.0-167.0","CAN_106","106","","","","","","null","<button class=""jspsych-btn""><img src=""stimuli/white_square.png"" style=""width: 200px;height: 200px;""></button>","null","orange","yellow","[""orange"",""yellow"",""high nameability""]","left-right","[""orange"",""yellow"",""high nameability""]","5","high nameability","45","left","iti",""
"html-button-response","217","502048","0.0-168.0","CAN_106","106","","","","","","426","","0","red","brown","[""red"",""brown"",""high nameability""]","left-right","[""red"",""brown"",""high nameability""]","5","high nameability","46","left","trigger",""
"html-button-response","218","502750","0.0-169.0-0.0","CAN_106","106","","","","","","695","<button class=""jspsych-btn""><img src=""stimuli/red.png"" style=""width: 200px;height: 200px;""></button>","0","red","brown","[""red"",""brown"",""high nameability""]","left-right","[""red"",""brown"",""high nameability""]","5","high nameability","46","left","response","1"
"html-audio-button-response","219","502954","0.0-169.0-1.0","CAN_106","106","","","","","","null","stimuli/bleep.m4a","null","red","brown","[""red"",""brown"",""high nameability""]","left-right","[""red"",""brown"",""high nameability""]","5","high nameability","46","left","audio_feedback","1"
"html-button-response","220","503468","0.0-170.0","CAN_106","106","","","","","","null","<button class=""jspsych-btn""><img src=""stimuli/white_square.png"" style=""width: 200px;height: 200px;""></button>","null","red","brown","[""red"",""brown"",""high nameability""]","left-right","[""red"",""brown"",""high nameability""]","5","high nameability","46","left","iti",""
"html-button-response","221","503928","0.0-171.0","CAN_106","106","","","","","","446","","0","blue","yellow","[""blue"",""yellow"",""high nameability""]","left-right","[""blue"",""yellow"",""high nameability""]","5","high nameability","47","left","trigger",""
"html-button-response","222","504718","0.0-172.0-0.0","CAN_106","106","","","","","","783","<button class=""jspsych-btn""><img src=""stimuli/blue.png"" style=""width: 200px;height: 200px;""></button>","0","blue","yellow","[""blue"",""yellow"",""high nameability""]","left-right","[""blue"",""yellow"",""high nameability""]","5","high nameability","47","left","response","1"
"html-audio-button-response","223","504922","0.0-172.0-1.0","CAN_106","106","","","","","","null","stimuli/bleep.m4a","null","blue","yellow","[""blue"",""yellow"",""high nameability""]","left-right","[""blue"",""yellow"",""high nameability""]","5","high nameability","47","left","audio_feedback","1"
"html-button-response","224","505442","0.0-173.0","CAN_106","106","","","","","","null","<button class=""jspsych-btn""><img src=""stimuli/white_square.png"" style=""width: 200px;height: 200px;""></button>","null","blue","yellow","[""blue"",""yellow"",""high nameability""]","left-right","[""blue"",""yellow"",""high nameability""]","5","high nameability","47","left","iti",""
"html-button-response","225","505915","0.0-174.0","CAN_106","106","","","","","","456","","0","turquoise","neonyellow","[""turquoise"",""neonyellow"",""low nameability""]","right-left","[""neonyellow"",""turquoise""]","5","low nameability","48","right","trigger",""
"html-button-response","226","506558","0.0-175.0-0.0","CAN_106","106","","","","","","635","<button class=""jspsych-btn""><img src=""stimuli/turquoise.png"" style=""width: 200px;height: 200px;""></button>","1","turquoise","neonyellow","[""turquoise"",""neonyellow"",""low nameability""]","right-left","[""neonyellow"",""turquoise""]","5","low nameability","48","right","response","1"
"html-audio-button-response","227","506761","0.0-175.0-1.0","CAN_106","106","","","","","","null","stimuli/bleep.m4a","null","turquoise","neonyellow","[""turquoise"",""neonyellow"",""low nameability""]","right-left","[""neonyellow"",""turquoise""]","5","low nameability","48","right","audio_feedback","1"
"html-button-response","228","507277","0.0-176.0","CAN_106","106","","","","","","null","<button class=""jspsych-btn""><img src=""stimuli/white_square.png"" style=""width: 200px;height: 200px;""></button>","null","turquoise","neonyellow","[""turquoise"",""neonyellow"",""low nameability""]","right-left","[""neonyellow"",""turquoise""]","5","low nameability","48","right","iti",""
"html-button-response","229","507806","0.0-177.0","CAN_106","106","","","","","","511","","0","neonyellow","turquoise","[""neonyellow"",""turquoise"",""low nameability""]","left-right","[""neonyellow"",""turquoise"",""low nameability""]","5","low nameability","49","left","trigger",""
"html-button-response","230","508532","0.0-178.0-0.0","CAN_106","106","","","","","","717","<button class=""jspsych-btn""><img src=""stimuli/neonyellow.png"" style=""width: 200px;height: 200px;""></button>","0","neonyellow","turquoise","[""neonyellow"",""turquoise"",""low nameability""]","left-right","[""neonyellow"",""turquoise"",""low nameability""]","5","low nameability","49","left","response","1"
"html-audio-button-response","231","508737","0.0-178.0-1.0","CAN_106","106","","","","","","null","stimuli/bleep.m4a","null","neonyellow","turquoise","[""neonyellow"",""turquoise"",""low nameability""]","left-right","[""neonyellow"",""turquoise"",""low nameability""]","5","low nameability","49","left","audio_feedback","1"
"html-button-response","232","509254","0.0-179.0","CAN_106","106","","","","","","null","<button class=""jspsych-btn""><img src=""stimuli/white_square.png"" style=""width: 200px;height: 200px;""></button>","null","neonyellow","turquoise","[""neonyellow"",""turquoise"",""low nameability""]","left-right","[""neonyellow"",""turquoise"",""low nameability""]","5","low nameability","49","left","iti",""
"html-button-response","233","509686","0.0-180.0","CAN_106","106","","","","","","406","","0","blue","brown","[""blue"",""brown"",""high nameability""]","right-left","[""brown"",""blue""]","5","high nameability","50","right","trigger",""
"html-button-response","234","510268","0.0-181.0-0.0","CAN_106","106","","","","","","575","<button class=""jspsych-btn""><img src=""stimuli/blue.png"" style=""width: 200px;height: 200px;""></button>","1","blue","brown","[""blue"",""brown"",""high nameability""]","right-left","[""brown"",""blue""]","5","high nameability","50","right","response","1"
"html-audio-button-response","235","510474","0.0-181.0-1.0","CAN_106","106","","","","","","null","stimuli/bleep.m4a","null","blue","brown","[""blue"",""brown"",""high nameability""]","right-left","[""brown"",""blue""]","5","high nameability","50","right","audio_feedback","1"
"html-button-response","236","510995","0.0-182.0","CAN_106","106","","","","","","null","<button class=""jspsych-btn""><img src=""stimuli/white_square.png"" style=""width: 200px;height: 200px;""></button>","null","blue","brown","[""blue"",""brown"",""high nameability""]","right-left","[""brown"",""blue""]","5","high nameability","50","right","iti",""
"pavlovia","237","511060","0.0-183.0","CAN_106","106","","","","","","","","","","","","","","","","","","",""
"pavlovia","238","511071","0.0-184.0","CAN_106","106","","","","","","","","","","","","","","","","","","",""
"html-audio-button-response","239","512804","0.0-185.0","CAN_106","106","","","","","","1813","stimuli/tada.m4a","0","","","","","","","","","","",""
"html-button-response","240","513780","0.0-186.0","CAN_106","106","","","","","","970","","0","","","","","","","","","","",""
"html-button-response","241","514383","0.0-187.0","CAN_106","106","","","","","","596","","0","yellow","blue","[""yellow"",""blue"",""high nameability""]","right-left","[""blue"",""yellow""]","6","high nameability","51","right","trigger",""
"html-button-response","242","514975","0.0-188.0-0.0","CAN_106","106","","","","","","584","<button class=""jspsych-btn""><img src=""stimuli/yellow.png"" style=""width: 200px;height: 200px;""></button>","1","yellow","blue","[""yellow"",""blue"",""high nameability""]","right-left","[""blue"",""yellow""]","6","high nameability","51","right","response","1"
"html-audio-button-response","243","515176","0.0-188.0-1.0","CAN_106","106","","","","","","null","stimuli/bleep.m4a","null","yellow","blue","[""yellow"",""blue"",""high nameability""]","right-left","[""blue"",""yellow""]","6","high nameability","51","right","audio_feedback","1"
"html-button-response","244","515692","0.0-189.0","CAN_106","106","","","","","","null","<button class=""jspsych-btn""><img src=""stimuli/white_square.png"" style=""width: 200px;height: 200px;""></button>","null","yellow","blue","[""yellow"",""blue"",""high nameability""]","right-left","[""blue"",""yellow""]","6","high nameability","51","right","iti",""
"html-button-response","245","516365","0.0-190.0","CAN_106","106","","","","","","667","","0","purple","yellow","[""purple"",""yellow"",""high nameability""]","left-right","[""purple"",""yellow"",""high nameability""]","6","high nameability","52","left","trigger",""
"html-button-response","246","517067","0.0-191.0-0.0","CAN_106","106","","","","","","695","<button class=""jspsych-btn""><img src=""stimuli/purple.png"" style=""width: 200px;height: 200px;""></button>","0","purple","yellow","[""purple"",""yellow"",""high nameability""]","left-right","[""purple"",""yellow"",""high nameability""]","6","high nameability","52","left","response","1"
"html-audio-button-response","247","517269","0.0-191.0-1.0","CAN_106","106","","","","","","null","stimuli/bleep.m4a","null","purple","yellow","[""purple"",""yellow"",""high nameability""]","left-right","[""purple"",""yellow"",""high nameability""]","6","high nameability","52","left","audio_feedback","1"
"html-button-response","248","517792","0.0-192.0","CAN_106","106","","","","","","null","<button class=""jspsych-btn""><img src=""stimuli/white_square.png"" style=""width: 200px;height: 200px;""></button>","null","purple","yellow","[""purple"",""yellow"",""high nameability""]","left-right","[""purple"",""yellow"",""high nameability""]","6","high nameability","52","left","iti",""
"html-button-response","249","518265","0.0-193.0","CAN_106","106","","","","","","459","","0","neonyellow","mustard","[""neonyellow"",""mustard"",""low nameability""]","left-right","[""neonyellow"",""mustard"",""low nameability""]","6","low nameability","53","left","trigger",""
"html-button-response","250","518989","0.0-194.0-0.0","CAN_106","106","","","","","","717","<button class=""jspsych-btn""><img src=""stimuli/neonyellow.png"" style=""width: 200px;height: 200px;""></button>","0","neonyellow","mustard","[""neonyellow"",""mustard"",""low nameability""]","left-right","[""neonyellow"",""mustard"",""low nameability""]","6","low nameability","53","left","response","1"
"html-audio-button-response","251","519193","0.0-194.0-1.0","CAN_106","106","","","","","","null","stimuli/bleep.m4a","null","neonyellow","mustard","[""neonyellow"",""mustard"",""low nameability""]","left-right","[""neonyellow"",""mustard"",""low nameability""]","6","low nameability","53","left","audio_feedback","1"
"html-button-response","252","519711","0.0-195.0","CAN_106","106","","","","","","null","<button class=""jspsych-btn""><img src=""stimuli/white_square.png"" style=""width: 200px;height: 200px;""></button>","null","neonyellow","mustard","[""neonyellow"",""mustard"",""low nameability""]","left-right","[""neonyellow"",""mustard"",""low nameability""]","6","low nameability","53","left","iti",""
"html-button-response","253","520194","0.0-196.0","CAN_106","106","","","","","","466","","0","pink","lightred","[""pink"",""lightred"",""low nameability""]","right-left","[""lightred"",""pink""]","6","low nameability","54","right","trigger",""
"html-button-response","254","520896","0.0-197.0-0.0","CAN_106","106","","","","","","697","<button class=""jspsych-btn""><img src=""stimuli/pink.png"" style=""width: 200px;height: 200px;""></button>","1","pink","lightred","[""pink"",""lightred"",""low nameability""]","right-left","[""lightred"",""pink""]","6","low nameability","54","right","response","1"
"html-audio-button-response","255","521098","0.0-197.0-1.0","CAN_106","106","","","","","","null","stimuli/bleep.m4a","null","pink","lightred","[""pink"",""lightred"",""low nameability""]","right-left","[""lightred"",""pink""]","6","low nameability","54","right","audio_feedback","1"
"html-button-response","256","521617","0.0-198.0","CAN_106","106","","","","","","null","<button class=""jspsych-btn""><img src=""stimuli/white_square.png"" style=""width: 200px;height: 200px;""></button>","null","pink","lightred","[""pink"",""lightred"",""low nameability""]","right-left","[""lightred"",""pink""]","6","low nameability","54","right","iti",""
"html-button-response","257","522062","0.0-199.0","CAN_106","106","","","","","","431","","0","mustard","pink","[""mustard"",""pink"",""low nameability""]","right-left","[""pink"",""mustard""]","6","low nameability","55","right","trigger",""
"html-button-response","258","522861","0.0-200.0-0.0","CAN_106","106","","","","","","790","<button class=""jspsych-btn""><img src=""stimuli/mustard.png"" style=""width: 200px;height: 200px;""></button>","1","mustard","pink","[""mustard"",""pink"",""low nameability""]","right-left","[""pink"",""mustard""]","6","low nameability","55","right","response","1"
"html-audio-button-response","259","523068","0.0-200.0-1.0","CAN_106","106","","","","","","null","stimuli/bleep.m4a","null","mustard","pink","[""mustard"",""pink"",""low nameability""]","right-left","[""pink"",""mustard""]","6","low nameability","55","right","audio_feedback","1"
"html-button-response","260","523595","0.0-201.0","CAN_106","106","","","","","","null","<button class=""jspsych-btn""><img src=""stimuli/white_square.png"" style=""width: 200px;height: 200px;""></button>","null","mustard","pink","[""mustard"",""pink"",""low nameability""]","right-left","[""pink"",""mustard""]","6","low nameability","55","right","iti",""
"html-button-response","261","524140","0.0-202.0","CAN_106","106","","","","","","530","","0","darkgreenblue","mustard","[""darkgreenblue"",""mustard"",""low nameability""]","right-left","[""mustard"",""darkgreenblue""]","6","low nameability","56","right","trigger",""
"html-button-response","262","524819","0.0-203.0-0.0","CAN_106","106","","","","","","673","<button class=""jspsych-btn""><img src=""stimuli/darkgreenblue.png"" style=""width: 200px;height: 200px;""></button>","1","darkgreenblue","mustard","[""darkgreenblue"",""mustard"",""low nameability""]","right-left","[""mustard"",""darkgreenblue""]","6","low nameability","56","right","response","1"
"html-audio-button-response","263","525022","0.0-203.0-1.0","CAN_106","106","","","","","","null","stimuli/bleep.m4a","null","darkgreenblue","mustard","[""darkgreenblue"",""mustard"",""low nameability""]","right-left","[""mustard"",""darkgreenblue""]","6","low nameability","56","right","audio_feedback","1"
"html-button-response","264","525545","0.0-204.0","CAN_106","106","","","","","","null","<button class=""jspsych-btn""><img src=""stimuli/white_square.png"" style=""width: 200px;height: 200px;""></button>","null","darkgreenblue","mustard","[""darkgreenblue"",""mustard"",""low nameability""]","right-left","[""mustard"",""darkgreenblue""]","6","low nameability","56","right","iti",""
"html-button-response","265","526095","0.0-205.0","CAN_106","106","","","","","","533","","0","mustard","lightred","[""mustard"",""lightred"",""low nameability""]","left-right","[""mustard"",""lightred"",""low nameability""]","6","low nameability","57","left","trigger",""
"html-button-response","266","526768","0.0-206.0-0.0","CAN_106","106","","","","","","667","<button class=""jspsych-btn""><img src=""stimuli/mustard.png"" style=""width: 200px;height: 200px;""></button>","0","mustard","lightred","[""mustard"",""lightred"",""low nameability""]","left-right","[""mustard"",""lightred"",""low nameability""]","6","low nameability","57","left","response","1"
"html-audio-button-response","267","526972","0.0-206.0-1.0","CAN_106","106","","","","","","null","stimuli/bleep.m4a","null","mustard","lightred","[""mustard"",""lightred"",""low nameability""]","left-right","[""mustard"",""lightred"",""low nameability""]","6","low nameability","57","left","audio_feedback","1"
"html-button-response","268","527490","0.0-207.0","CAN_106","106","","","","","","null","<button class=""jspsych-btn""><img src=""stimuli/white_square.png"" style=""width: 200px;height: 200px;""></button>","null","mustard","lightred","[""mustard"",""lightred"",""low nameability""]","left-right","[""mustard"",""lightred"",""low nameability""]","6","low nameability","57","left","iti",""
"html-button-response","269","528020","0.0-208.0","CAN_106","106","","","","","","515","","0","neonyellow","pink","[""neonyellow"",""pink"",""low nameability""]","left-right","[""neonyellow"",""pink"",""low nameability""]","6","low nameability","58","left","trigger",""
"html-button-response","270","528734","0.0-209.0-0.0","CAN_106","106","","","","","","707","<button class=""jspsych-btn""><img src=""stimuli/neonyellow.png"" style=""width: 200px;height: 200px;""></button>","0","neonyellow","pink","[""neonyellow"",""pink"",""low nameability""]","left-right","[""neonyellow"",""pink"",""low nameability""]","6","low nameability","58","left","response","1"
"html-audio-button-response","271","528938","0.0-209.0-1.0","CAN_106","106","","","","","","null","stimuli/bleep.m4a","null","neonyellow","pink","[""neonyellow"",""pink"",""low nameability""]","left-right","[""neonyellow"",""pink"",""low nameability""]","6","low nameability","58","left","audio_feedback","1"
"html-button-response","272","529458","0.0-210.0","CAN_106","106","","","","","","null","<button class=""jspsych-btn""><img src=""stimuli/white_square.png"" style=""width: 200px;height: 200px;""></button>","null","neonyellow","pink","[""neonyellow"",""pink"",""low nameability""]","left-right","[""neonyellow"",""pink"",""low nameability""]","6","low nameability","58","left","iti",""
"html-button-response","273","530019","0.0-211.0","CAN_106","106","","","","","","536","","0","brown","red","[""brown"",""red"",""high nameability""]","left-right","[""brown"",""red"",""high nameability""]","6","high nameability","59","left","trigger",""
"html-button-response","274","530746","0.0-212.0-0.0","CAN_106","106","","","","","","707","<button class=""jspsych-btn""><img src=""stimuli/brown.png"" style=""width: 200px;height: 200px;""></button>","0","brown","red","[""brown"",""red"",""high nameability""]","left-right","[""brown"",""red"",""high nameability""]","6","high nameability","59","left","response","1"
"html-audio-button-response","275","530962","0.0-212.0-1.0","CAN_106","106","","","","","","null","stimuli/bleep.m4a","null","brown","red","[""brown"",""red"",""high nameability""]","left-right","[""brown"",""red"",""high nameability""]","6","high nameability","59","left","audio_feedback","1"
"html-button-response","276","531503","0.0-213.0","CAN_106","106","","","","","","null","<button class=""jspsych-btn""><img src=""stimuli/white_square.png"" style=""width: 200px;height: 200px;""></button>","null","brown","red","[""brown"",""red"",""high nameability""]","left-right","[""brown"",""red"",""high nameability""]","6","high nameability","59","left","iti",""
"html-button-response","277","532019","0.0-214.0","CAN_106","106","","","","","","486","","0","neonyellow","lightred","[""neonyellow"",""lightred"",""low nameability""]","left-right","[""neonyellow"",""lightred"",""low nameability""]","6","low nameability","60","left","trigger",""
"html-button-response","278","532805","0.0-215.0-0.0","CAN_106","106","","","","","","774","<button class=""jspsych-btn""><img src=""stimuli/neonyellow.png"" style=""width: 200px;height: 200px;""></button>","0","neonyellow","lightred","[""neonyellow"",""lightred"",""low nameability""]","left-right","[""neonyellow"",""lightred"",""low nameability""]","6","low nameability","60","left","response","1"
"html-audio-button-response","279","533019","0.0-215.0-1.0","CAN_106","106","","","","","","null","stimuli/bleep.m4a","null","neonyellow","lightred","[""neonyellow"",""lightred"",""low nameability""]","left-right","[""neonyellow"",""lightred"",""low nameability""]","6","low nameability","60","left","audio_feedback","1"
"html-button-response","280","533548","0.0-216.0","CAN_106","106","","","","","","null","<button class=""jspsych-btn""><img src=""stimuli/white_square.png"" style=""width: 200px;height: 200px;""></button>","null","neonyellow","lightred","[""neonyellow"",""lightred"",""low nameability""]","left-right","[""neonyellow"",""lightred"",""low nameability""]","6","low nameability","60","left","iti",""
