"trial_type","trial_index","time_elapsed","internal_node_id","subject_id","seed","success","timeout","failed_images","failed_audio","failed_video","rt","stimulus","response","target","foil","choices","combination_order","choices_in_order","round","condition","trial_counter","target_location","trial_kind","correct"
"pavlovia","0","36","0.0-0.0","CAN_150","150","","","","","","","","","","","","","","","","","","",""
"preload","1","906","0.0-1.0","CAN_150","150","true","false","[]","[]","[]","","","","","","","","","","","","","",""
"fullscreen","2","3467","0.0-2.0","CAN_150","150","true","","","","","","","","","","","","","","","","","",""
"html-button-response","3","60452","0.0-3.0","CAN_150","150","","","","","","56964","","0","","","","","","","","","","",""
"html-button-response","4","62604","0.0-4.0","CAN_150","150","","","","","","2136","","0","star","square","[""square"",""star""]","left-right","[""square"",""star""]","1","practice","1","right","trigger",""
"html-button-response","5","64037","0.0-5.0-0.0","CAN_150","150","","","","","","1413","<button class=""jspsych-btn""><img src=""stimuli/star.png"" style=""width: 200px;height: 200px;""></button>","1","star","square","[""square"",""star""]","left-right","[""square"",""star""]","1","practice","1","right","response","1"
"html-audio-button-response","6","64252","0.0-5.0-1.0","CAN_150","150","","","","","","null","stimuli/bleep.m4a","null","star","square","[""square"",""star""]","left-right","[""square"",""star""]","1","practice","1","right","audio_feedback","1"
"html-button-response","7","64777","0.0-6.0","CAN_150","150","","","","","","null","<button class=""jspsych-btn""><img src=""stimuli/white_square.png"" style=""width: 200px;height: 200px;""></button>","null","star","square","[""square"",""star""]","left-right","[""square"",""star""]","1","practice","1","right","iti",""
"html-button-response","8","65656","0.0-7.0","CAN_150","150","","","","","","852","","0","triangle","pentagram","[""triangle"",""pentagram""]","left-right","[""triangle"",""pentagram""]","1","practice","1","left","trigger",""
"html-button-response","9","66690","0.0-8.0-0.0","CAN_150","150","","","","","","1026","<button class=""jspsych-btn""><img src=""stimuli/triangle.png"" style=""width: 200px;height: 200px;""></button>","0","triangle","pentagram","[""triangle"",""pentagram""]","left-right","[""triangle"",""pentagram""]","1","practice","1","left","response","1"
"html-audio-button-response","10","66903","0.0-8.0-1.0","CAN_150","150","","","","","","null","stimuli/bleep.m4a","null","triangle","pentagram","[""triangle"",""pentagram""]","left-right","[""triangle"",""pentagram""]","1","practice","1","left","audio_feedback","1"
"html-button-response","11","67425","0.0-9.0","CAN_150","150","","","","","","null","<button class=""jspsych-btn""><img src=""stimuli/white_square.png"" style=""width: 200px;height: 200px;""></button>","null","triangle","pentagram","[""triangle"",""pentagram""]","left-right","[""triangle"",""pentagram""]","1","practice","1","left","iti",""
"html-button-response","12","68172","0.0-10.0","CAN_150","150","","","","","","725","","0","diamond","rectangle","[""rectangle"",""diamond""]","left-right","[""rectangle"",""diamond""]","1","practice","1","right","trigger",""
"html-button-response","13","69034","0.0-11.0-0.0","CAN_150","150","","","","","","851","<button class=""jspsych-btn""><img src=""stimuli/diamond.png"" style=""width: 200px;height: 200px;""></button>","1","diamond","rectangle","[""rectangle"",""diamond""]","left-right","[""rectangle"",""diamond""]","1","practice","1","right","response","1"
"html-audio-button-response","14","69240","0.0-11.0-1.0","CAN_150","150","","","","","","null","stimuli/bleep.m4a","null","diamond","rectangle","[""rectangle"",""diamond""]","left-right","[""rectangle"",""diamond""]","1","practice","1","right","audio_feedback","1"
"html-button-response","15","69758","0.0-12.0","CAN_150","150","","","","","","null","<button class=""jspsych-btn""><img src=""stimuli/white_square.png"" style=""width: 200px;height: 200px;""></button>","null","diamond","rectangle","[""rectangle"",""diamond""]","left-right","[""rectangle"",""diamond""]","1","practice","1","right","iti",""
"html-button-response","16","70533","0.0-13.0","CAN_150","150","","","","","","768","","0","pentagram","star","[""pentagram"",""star""]","left-right","[""pentagram"",""star""]","1","practice","1","left","trigger",""
"html-button-response","17","71385","0.0-14.0-0.0","CAN_150","150","","","","","","842","<button class=""jspsych-btn""><img src=""stimuli/pentagram.png"" style=""width: 200px;height: 200px;""></button>","0","pentagram","star","[""pentagram"",""star""]","left-right","[""pentagram"",""star""]","1","practice","1","left","response","1"
"html-audio-button-response","18","71592","0.0-14.0-1.0","CAN_150","150","","","","","","null","stimuli/bleep.m4a","null","pentagram","star","[""pentagram"",""star""]","left-right","[""pentagram"",""star""]","1","practice","1","left","audio_feedback","1"
"html-button-response","19","72113","0.0-15.0","CAN_150","150","","","","","","null","<button class=""jspsych-btn""><img src=""stimuli/white_square.png"" style=""width: 200px;height: 200px;""></button>","null","pentagram","star","[""pentagram"",""star""]","left-right","[""pentagram"",""star""]","1","practice","1","left","iti",""
"html-button-response","20","80722","0.0-16.0","CAN_150","150","","","","","","8588","","0","","","","","","","","","","",""
"html-button-response","21","81893","0.0-17.0","CAN_150","150","","","","","","1158","","0","lightred","pink","[""lightred"",""pink"",""low nameability""]","left-right","[""lightred"",""pink"",""low nameability""]","1","low nameability","1","left","trigger",""
"html-button-response","22","82697","0.0-18.0-0.0","CAN_150","150","","","","","","791","<button class=""jspsych-btn""><img src=""stimuli/lightred.png"" style=""width: 200px;height: 200px;""></button>","0","lightred","pink","[""lightred"",""pink"",""low nameability""]","left-right","[""lightred"",""pink"",""low nameability""]","1","low nameability","1","left","response","1"
"html-audio-button-response","23","82905","0.0-18.0-1.0","CAN_150","150","","","","","","null","stimuli/bleep.m4a","null","lightred","pink","[""lightred"",""pink"",""low nameability""]","left-right","[""lightred"",""pink"",""low nameability""]","1","low nameability","1","left","audio_feedback","1"
"html-button-response","24","83426","0.0-19.0","CAN_150","150","","","","","","null","<button class=""jspsych-btn""><img src=""stimuli/white_square.png"" style=""width: 200px;height: 200px;""></button>","null","lightred","pink","[""lightred"",""pink"",""low nameability""]","left-right","[""lightred"",""pink"",""low nameability""]","1","low nameability","1","left","iti",""
"html-button-response","25","84015","0.0-20.0","CAN_150","150","","","","","","564","","0","mustard","neonyellow","[""mustard"",""neonyellow"",""low nameability""]","left-right","[""mustard"",""neonyellow"",""low nameability""]","1","low nameability","2","left","trigger",""
"html-button-response","26","84835","0.0-21.0-0.0","CAN_150","150","","","","","","811","<button class=""jspsych-btn""><img src=""stimuli/mustard.png"" style=""width: 200px;height: 200px;""></button>","0","mustard","neonyellow","[""mustard"",""neonyellow"",""low nameability""]","left-right","[""mustard"",""neonyellow"",""low nameability""]","1","low nameability","2","left","response","1"
"html-audio-button-response","27","85045","0.0-21.0-1.0","CAN_150","150","","","","","","null","stimuli/bleep.m4a","null","mustard","neonyellow","[""mustard"",""neonyellow"",""low nameability""]","left-right","[""mustard"",""neonyellow"",""low nameability""]","1","low nameability","2","left","audio_feedback","1"
"html-button-response","28","85566","0.0-22.0","CAN_150","150","","","","","","null","<button class=""jspsych-btn""><img src=""stimuli/white_square.png"" style=""width: 200px;height: 200px;""></button>","null","mustard","neonyellow","[""mustard"",""neonyellow"",""low nameability""]","left-right","[""mustard"",""neonyellow"",""low nameability""]","1","low nameability","2","left","iti",""
"html-button-response","29","86143","0.0-23.0","CAN_150","150","","","","","","557","","0","yellow","purple","[""yellow"",""purple"",""high nameability""]","left-right","[""yellow"",""purple"",""high nameability""]","1","high nameability","3","left","trigger",""
"html-button-response","30","86956","0.0-24.0-0.0","CAN_150","150","","","","","","805","<button class=""jspsych-btn""><img src=""stimuli/yellow.png"" style=""width: 200px;height: 200px;""></button>","0","yellow","purple","[""yellow"",""purple"",""high nameability""]","left-right","[""yellow"",""purple"",""high nameability""]","1","high nameability","3","left","response","1"
"html-audio-button-response","31","87162","0.0-24.0-1.0","CAN_150","150","","","","","","null","stimuli/bleep.m4a","null","yellow","purple","[""yellow"",""purple"",""high nameability""]","left-right","[""yellow"",""purple"",""high nameability""]","1","high nameability","3","left","audio_feedback","1"
"html-button-response","32","87681","0.0-25.0","CAN_150","150","","","","","","null","<button class=""jspsych-btn""><img src=""stimuli/white_square.png"" style=""width: 200px;height: 200px;""></button>","null","yellow","purple","[""yellow"",""purple"",""high nameability""]","left-right","[""yellow"",""purple"",""high nameability""]","1","high nameability","3","left","iti",""
"html-button-response","33","88490","0.0-26.0","CAN_150","150","","","","","","785","","0","pink","neonyellow","[""pink"",""neonyellow"",""low nameability""]","left-right","[""pink"",""neonyellow"",""low nameability""]","1","low nameability","4","left","trigger",""
"html-button-response","34","89310","0.0-27.0-0.0","CAN_150","150","","","","","","810","<button class=""jspsych-btn""><img src=""stimuli/pink.png"" style=""width: 200px;height: 200px;""></button>","0","pink","neonyellow","[""pink"",""neonyellow"",""low nameability""]","left-right","[""pink"",""neonyellow"",""low nameability""]","1","low nameability","4","left","response","1"
"html-audio-button-response","35","89515","0.0-27.0-1.0","CAN_150","150","","","","","","null","stimuli/bleep.m4a","null","pink","neonyellow","[""pink"",""neonyellow"",""low nameability""]","left-right","[""pink"",""neonyellow"",""low nameability""]","1","low nameability","4","left","audio_feedback","1"
"html-button-response","36","90029","0.0-28.0","CAN_150","150","","","","","","null","<button class=""jspsych-btn""><img src=""stimuli/white_square.png"" style=""width: 200px;height: 200px;""></button>","null","pink","neonyellow","[""pink"",""neonyellow"",""low nameability""]","left-right","[""pink"",""neonyellow"",""low nameability""]","1","low nameability","4","left","iti",""
"html-button-response","37","90785","0.0-29.0","CAN_150","150","","","","","","744","","0","darkgreenblue","mustard","[""darkgreenblue"",""mustard"",""low nameability""]","left-right","[""darkgreenblue"",""mustard"",""low nameability""]","1","low nameability","5","left","trigger",""
"html-button-response","38","91582","0.0-30.0-0.0","CAN_150","150","","","","","","789","<button class=""jspsych-btn""><img src=""stimuli/darkgreenblue.png"" style=""width: 200px;height: 200px;""></button>","0","darkgreenblue","mustard","[""darkgreenblue"",""mustard"",""low nameability""]","left-right","[""darkgreenblue"",""mustard"",""low nameability""]","1","low nameability","5","left","response","1"
"html-audio-button-response","39","91789","0.0-30.0-1.0","CAN_150","150","","","","","","null","stimuli/bleep.m4a","null","darkgreenblue","mustard","[""darkgreenblue"",""mustard"",""low nameability""]","left-right","[""darkgreenblue"",""mustard"",""low nameability""]","1","low nameability","5","left","audio_feedback","1"
"html-button-response","40","92308","0.0-31.0","CAN_150","150","","","","","","null","<button class=""jspsych-btn""><img src=""stimuli/white_square.png"" style=""width: 200px;height: 200px;""></button>","null","darkgreenblue","mustard","[""darkgreenblue"",""mustard"",""low nameability""]","left-right","[""darkgreenblue"",""mustard"",""low nameability""]","1","low nameability","5","left","iti",""
"html-button-response","41","92998","0.0-32.0","CAN_150","150","","","","","","671","","0","mustard","lightred","[""mustard"",""lightred"",""low nameability""]","left-right","[""mustard"",""lightred"",""low nameability""]","1","low nameability","6","left","trigger",""
"html-button-response","42","93734","0.0-33.0-0.0","CAN_150","150","","","","","","726","<button class=""jspsych-btn""><img src=""stimuli/mustard.png"" style=""width: 200px;height: 200px;""></button>","0","mustard","lightred","[""mustard"",""lightred"",""low nameability""]","left-right","[""mustard"",""lightred"",""low nameability""]","1","low nameability","6","left","response","1"
"html-audio-button-response","43","93939","0.0-33.0-1.0","CAN_150","150","","","","","","null","stimuli/bleep.m4a","null","mustard","lightred","[""mustard"",""lightred"",""low nameability""]","left-right","[""mustard"",""lightred"",""low nameability""]","1","low nameability","6","left","audio_feedback","1"
"html-button-response","44","94461","0.0-34.0","CAN_150","150","","","","","","null","<button class=""jspsych-btn""><img src=""stimuli/white_square.png"" style=""width: 200px;height: 200px;""></button>","null","mustard","lightred","[""mustard"",""lightred"",""low nameability""]","left-right","[""mustard"",""lightred"",""low nameability""]","1","low nameability","6","left","iti",""
"html-button-response","45","95079","0.0-35.0","CAN_150","150","","","","","","600","","0","blue","yellow","[""blue"",""yellow"",""high nameability""]","right-left","[""yellow"",""blue""]","1","high nameability","7","right","trigger",""
"html-button-response","46","95743","0.0-36.0-0.0","CAN_150","150","","","","","","656","<button class=""jspsych-btn""><img src=""stimuli/blue.png"" style=""width: 200px;height: 200px;""></button>","1","blue","yellow","[""blue"",""yellow"",""high nameability""]","right-left","[""yellow"",""blue""]","1","high nameability","7","right","response","1"
"html-audio-button-response","47","95952","0.0-36.0-1.0","CAN_150","150","","","","","","null","stimuli/bleep.m4a","null","blue","yellow","[""blue"",""yellow"",""high nameability""]","right-left","[""yellow"",""blue""]","1","high nameability","7","right","audio_feedback","1"
"html-button-response","48","96470","0.0-37.0","CAN_150","150","","","","","","null","<button class=""jspsych-btn""><img src=""stimuli/white_square.png"" style=""width: 200px;height: 200px;""></button>","null","blue","yellow","[""blue"",""yellow"",""high nameability""]","right-left","[""yellow"",""blue""]","1","high nameability","7","right","iti",""
"html-button-response","49","97206","0.0-38.0","CAN_150","150","","","","","","717","","0","orange","red","[""orange"",""red"",""high nameability""]","right-left","[""red"",""orange""]","1","high nameability","8","right","trigger",""
"html-button-response","50","97997","0.0-39.0-0.0","CAN_150","150","","","","","","784","<button class=""jspsych-btn""><img src=""stimuli/orange.png"" style=""width: 200px;height: 200px;""></button>","1","orange","red","[""orange"",""red"",""high nameability""]","right-left","[""red"",""orange""]","1","high nameability","8","right","response","1"
"html-audio-button-response","51","98203","0.0-39.0-1.0","CAN_150","150","","","","","","null","stimuli/bleep.m4a","null","orange","red","[""orange"",""red"",""high nameability""]","right-left","[""red"",""orange""]","1","high nameability","8","right","audio_feedback","1"
"html-button-response","52","98722","0.0-40.0","CAN_150","150","","","","","","null","<button class=""jspsych-btn""><img src=""stimuli/white_square.png"" style=""width: 200px;height: 200px;""></button>","null","orange","red","[""orange"",""red"",""high nameability""]","right-left","[""red"",""orange""]","1","high nameability","8","right","iti",""
"html-button-response","53","99467","0.0-41.0","CAN_150","150","","","","","","724","","0","yellow","orange","[""yellow"",""orange"",""high nameability""]","left-right","[""yellow"",""orange"",""high nameability""]","1","high nameability","9","left","trigger",""
"html-button-response","54","100157","0.0-42.0-0.0","CAN_150","150","","","","","","683","<button class=""jspsych-btn""><img src=""stimuli/yellow.png"" style=""width: 200px;height: 200px;""></button>","0","yellow","orange","[""yellow"",""orange"",""high nameability""]","left-right","[""yellow"",""orange"",""high nameability""]","1","high nameability","9","left","response","1"
"html-audio-button-response","55","100359","0.0-42.0-1.0","CAN_150","150","","","","","","null","stimuli/bleep.m4a","null","yellow","orange","[""yellow"",""orange"",""high nameability""]","left-right","[""yellow"",""orange"",""high nameability""]","1","high nameability","9","left","audio_feedback","1"
"html-button-response","56","100877","0.0-43.0","CAN_150","150","","","","","","null","<button class=""jspsych-btn""><img src=""stimuli/white_square.png"" style=""width: 200px;height: 200px;""></button>","null","yellow","orange","[""yellow"",""orange"",""high nameability""]","left-right","[""yellow"",""orange"",""high nameability""]","1","high nameability","9","left","iti",""
"html-button-response","57","101590","0.0-44.0","CAN_150","150","","","","","","694","","0","pink","mustard","[""pink"",""mustard"",""low nameability""]","right-left","[""mustard"",""pink""]","1","low nameability","10","right","trigger",""
"html-button-response","58","102446","0.0-45.0-0.0","CAN_150","150","","","","","","847","<button class=""jspsych-btn""><img src=""stimuli/pink.png"" style=""width: 200px;height: 200px;""></button>","1","pink","mustard","[""pink"",""mustard"",""low nameability""]","right-left","[""mustard"",""pink""]","1","low nameability","10","right","response","1"
"html-audio-button-response","59","102652","0.0-45.0-1.0","CAN_150","150","","","","","","null","stimuli/bleep.m4a","null","pink","mustard","[""pink"",""mustard"",""low nameability""]","right-left","[""mustard"",""pink""]","1","low nameability","10","right","audio_feedback","1"
"html-button-response","60","103181","0.0-46.0","CAN_150","150","","","","","","null","<button class=""jspsych-btn""><img src=""stimuli/white_square.png"" style=""width: 200px;height: 200px;""></button>","null","pink","mustard","[""pink"",""mustard"",""low nameability""]","right-left","[""mustard"",""pink""]","1","low nameability","10","right","iti",""
"pavlovia","61","103281","0.0-47.0","CAN_150","150","","","","","","","","","","","","","","","","","","",""
"pavlovia","62","103300","0.0-48.0","CAN_150","150","","","","","","","","","","","","","","","","","","",""
"html-audio-button-response","63","105165","0.0-49.0","CAN_150","150","","","","","","1989","stimuli/tada.m4a","0","","","","","","","","","","",""
"html-button-response","64","105996","0.0-50.0","CAN_150","150","","","","","","824","","0","","","","","","","","","","",""
"html-button-response","65","107004","0.0-51.0","CAN_150","150","","","","","","997","","0","darkgreenblue","lightred","[""darkgreenblue"",""lightred"",""low nameability""]","left-right","[""darkgreenblue"",""lightred"",""low nameability""]","2","low nameability","11","left","trigger",""
"html-button-response","66","107768","0.0-52.0-0.0","CAN_150","150","","","","","","754","<button class=""jspsych-btn""><img src=""stimuli/darkgreenblue.png"" style=""width: 200px;height: 200px;""></button>","0","darkgreenblue","lightred","[""darkgreenblue"",""lightred"",""low nameability""]","left-right","[""darkgreenblue"",""lightred"",""low nameability""]","2","low nameability","11","left","response","1"
"html-audio-button-response","67","107975","0.0-52.0-1.0","CAN_150","150","","","","","","null","stimuli/bleep.m4a","null","darkgreenblue","lightred","[""darkgreenblue"",""lightred"",""low nameability""]","left-right","[""darkgreenblue"",""lightred"",""low nameability""]","2","low nameability","11","left","audio_feedback","1"
"html-button-response","68","108497","0.0-53.0","CAN_150","150","","","","","","null","<button class=""jspsych-btn""><img src=""stimuli/white_square.png"" style=""width: 200px;height: 200px;""></button>","null","darkgreenblue","lightred","[""darkgreenblue"",""lightred"",""low nameability""]","left-right","[""darkgreenblue"",""lightred"",""low nameability""]","2","low nameability","11","left","iti",""
"html-button-response","69","109216","0.0-54.0","CAN_150","150","","","","","","703","","0","neonyellow","lightred","[""neonyellow"",""lightred"",""low nameability""]","right-left","[""lightred"",""neonyellow""]","2","low nameability","12","right","trigger",""
"html-button-response","70","109837","0.0-55.0-0.0","CAN_150","150","","","","","","613","<button class=""jspsych-btn""><img src=""stimuli/neonyellow.png"" style=""width: 200px;height: 200px;""></button>","1","neonyellow","lightred","[""neonyellow"",""lightred"",""low nameability""]","right-left","[""lightred"",""neonyellow""]","2","low nameability","12","right","response","1"
"html-audio-button-response","71","110043","0.0-55.0-1.0","CAN_150","150","","","","","","null","stimuli/bleep.m4a","null","neonyellow","lightred","[""neonyellow"",""lightred"",""low nameability""]","right-left","[""lightred"",""neonyellow""]","2","low nameability","12","right","audio_feedback","1"
"html-button-response","72","110561","0.0-56.0","CAN_150","150","","","","","","null","<button class=""jspsych-btn""><img src=""stimuli/white_square.png"" style=""width: 200px;height: 200px;""></button>","null","neonyellow","lightred","[""neonyellow"",""lightred"",""low nameability""]","right-left","[""lightred"",""neonyellow""]","2","low nameability","12","right","iti",""
"html-button-response","73","111169","0.0-57.0","CAN_150","150","","","","","","587","","0","neonyellow","turquoise","[""neonyellow"",""turquoise"",""low nameability""]","left-right","[""neonyellow"",""turquoise"",""low nameability""]","2","low nameability","13","left","trigger",""
"html-button-response","74","111927","0.0-58.0-0.0","CAN_150","150","","","","","","750","<button class=""jspsych-btn""><img src=""stimuli/neonyellow.png"" style=""width: 200px;height: 200px;""></button>","0","neonyellow","turquoise","[""neonyellow"",""turquoise"",""low nameability""]","left-right","[""neonyellow"",""turquoise"",""low nameability""]","2","low nameability","13","left","response","1"
"html-audio-button-response","75","112136","0.0-58.0-1.0","CAN_150","150","","","","","","null","stimuli/bleep.m4a","null","neonyellow","turquoise","[""neonyellow"",""turquoise"",""low nameability""]","left-right","[""neonyellow"",""turquoise"",""low nameability""]","2","low nameability","13","left","audio_feedback","1"
"html-button-response","76","112658","0.0-59.0","CAN_150","150","","","","","","null","<button class=""jspsych-btn""><img src=""stimuli/white_square.png"" style=""width: 200px;height: 200px;""></button>","null","neonyellow","turquoise","[""neonyellow"",""turquoise"",""low nameability""]","left-right","[""neonyellow"",""turquoise"",""low nameability""]","2","low nameability","13","left","iti",""
"html-button-response","77","113382","0.0-60.0","CAN_150","150","","","","","","702","","0","purple","orange","[""purple"",""orange"",""high nameability""]","right-left","[""orange"",""purple""]","2","high nameability","14","right","trigger",""
"html-button-response","78","114010","0.0-61.0-0.0","CAN_150","150","","","","","","620","<button class=""jspsych-btn""><img src=""stimuli/purple.png"" style=""width: 200px;height: 200px;""></button>","1","purple","orange","[""purple"",""orange"",""high nameability""]","right-left","[""orange"",""purple""]","2","high nameability","14","right","response","1"
"html-audio-button-response","79","114216","0.0-61.0-1.0","CAN_150","150","","","","","","null","stimuli/bleep.m4a","null","purple","orange","[""purple"",""orange"",""high nameability""]","right-left","[""orange"",""purple""]","2","high nameability","14","right","audio_feedback","1"
"html-button-response","80","114733","0.0-62.0","CAN_150","150","","","","","","null","<button class=""jspsych-btn""><img src=""stimuli/white_square.png"" style=""width: 200px;height: 200px;""></button>","null","purple","orange","[""purple"",""orange"",""high nameability""]","right-left","[""orange"",""purple""]","2","high nameability","14","right","iti",""
"html-button-response","81","115380","0.0-63.0","CAN_150","150","","","","","","623","","0","purple","yellow","[""purple"",""yellow"",""high nameability""]","left-right","[""purple"",""yellow"",""high nameability""]","2","high nameability","15","left","trigger",""
"html-button-response","82","116162","0.0-64.0-0.0","CAN_150","150","","","","","","773","<button class=""jspsych-btn""><img src=""stimuli/purple.png"" style=""width: 200px;height: 200px;""></button>","0","purple","yellow","[""purple"",""yellow"",""high nameability""]","left-right","[""purple"",""yellow"",""high nameability""]","2","high nameability","15","left","response","1"
"html-audio-button-response","83","116367","0.0-64.0-1.0","CAN_150","150","","","","","","null","stimuli/bleep.m4a","null","purple","yellow","[""purple"",""yellow"",""high nameability""]","left-right","[""purple"",""yellow"",""high nameability""]","2","high nameability","15","left","audio_feedback","1"
"html-button-response","84","116884","0.0-65.0","CAN_150","150","","","","","","null","<button class=""jspsych-btn""><img src=""stimuli/white_square.png"" style=""width: 200px;height: 200px;""></button>","null","purple","yellow","[""purple"",""yellow"",""high nameability""]","left-right","[""purple"",""yellow"",""high nameability""]","2","high nameability","15","left","iti",""
"html-button-response","85","117579","0.0-66.0","CAN_150","150","","","","","","679","","0","mustard","turquoise","[""mustard"",""turquoise"",""low nameability""]","right-left","[""turquoise"",""mustard""]","2","low nameability","16","right","trigger",""
"html-button-response","86","118259","0.0-67.0-0.0","CAN_150","150","","","","","","670","<button class=""jspsych-btn""><img src=""stimuli/mustard.png"" style=""width: 200px;height: 200px;""></button>","1","mustard","turquoise","[""mustard"",""turquoise"",""low nameability""]","right-left","[""turquoise"",""mustard""]","2","low nameability","16","right","response","1"
"html-audio-button-response","87","118463","0.0-67.0-1.0","CAN_150","150","","","","","","null","stimuli/bleep.m4a","null","mustard","turquoise","[""mustard"",""turquoise"",""low nameability""]","right-left","[""turquoise"",""mustard""]","2","low nameability","16","right","audio_feedback","1"
"html-button-response","88","118989","0.0-68.0","CAN_150","150","","","","","","null","<button class=""jspsych-btn""><img src=""stimuli/white_square.png"" style=""width: 200px;height: 200px;""></button>","null","mustard","turquoise","[""mustard"",""turquoise"",""low nameability""]","right-left","[""turquoise"",""mustard""]","2","low nameability","16","right","iti",""
"html-button-response","89","119514","0.0-69.0","CAN_150","150","","","","","","514","","0","yellow","blue","[""yellow"",""blue"",""high nameability""]","right-left","[""blue"",""yellow""]","2","high nameability","17","right","trigger",""
"html-button-response","90","120144","0.0-70.0-0.0","CAN_150","150","","","","","","623","<button class=""jspsych-btn""><img src=""stimuli/yellow.png"" style=""width: 200px;height: 200px;""></button>","1","yellow","blue","[""yellow"",""blue"",""high nameability""]","right-left","[""blue"",""yellow""]","2","high nameability","17","right","response","1"
"html-audio-button-response","91","120350","0.0-70.0-1.0","CAN_150","150","","","","","","null","stimuli/bleep.m4a","null","yellow","blue","[""yellow"",""blue"",""high nameability""]","right-left","[""blue"",""yellow""]","2","high nameability","17","right","audio_feedback","1"
"html-button-response","92","120865","0.0-71.0","CAN_150","150","","","","","","null","<button class=""jspsych-btn""><img src=""stimuli/white_square.png"" style=""width: 200px;height: 200px;""></button>","null","yellow","blue","[""yellow"",""blue"",""high nameability""]","right-left","[""blue"",""yellow""]","2","high nameability","17","right","iti",""
"html-button-response","93","121513","0.0-72.0","CAN_150","150","","","","","","626","","0","mustard","darkgreenblue","[""mustard"",""darkgreenblue"",""low nameability""]","left-right","[""mustard"",""darkgreenblue"",""low nameability""]","2","low nameability","18","left","trigger",""
"html-button-response","94","122229","0.0-73.0-0.0","CAN_150","150","","","","","","708","<button class=""jspsych-btn""><img src=""stimuli/mustard.png"" style=""width: 200px;height: 200px;""></button>","0","mustard","darkgreenblue","[""mustard"",""darkgreenblue"",""low nameability""]","left-right","[""mustard"",""darkgreenblue"",""low nameability""]","2","low nameability","18","left","response","1"
"html-audio-button-response","95","122440","0.0-73.0-1.0","CAN_150","150","","","","","","null","stimuli/bleep.m4a","null","mustard","darkgreenblue","[""mustard"",""darkgreenblue"",""low nameability""]","left-right","[""mustard"",""darkgreenblue"",""low nameability""]","2","low nameability","18","left","audio_feedback","1"
"html-button-response","96","122961","0.0-74.0","CAN_150","150","","","","","","null","<button class=""jspsych-btn""><img src=""stimuli/white_square.png"" style=""width: 200px;height: 200px;""></button>","null","mustard","darkgreenblue","[""mustard"",""darkgreenblue"",""low nameability""]","left-right","[""mustard"",""darkgreenblue"",""low nameability""]","2","low nameability","18","left","iti",""
"html-button-response","97","123637","0.0-75.0","CAN_150","150","","","","","","656","","0","turquoise","mustard","[""turquoise"",""mustard"",""low nameability""]","right-left","[""mustard"",""turquoise""]","2","low nameability","19","right","trigger",""
"html-button-response","98","124322","0.0-76.0-0.0","CAN_150","150","","","","","","680","<button class=""jspsych-btn""><img src=""stimuli/turquoise.png"" style=""width: 200px;height: 200px;""></button>","1","turquoise","mustard","[""turquoise"",""mustard"",""low nameability""]","right-left","[""mustard"",""turquoise""]","2","low nameability","19","right","response","1"
"html-audio-button-response","99","124527","0.0-76.0-1.0","CAN_150","150","","","","","","null","stimuli/bleep.m4a","null","turquoise","mustard","[""turquoise"",""mustard"",""low nameability""]","right-left","[""mustard"",""turquoise""]","2","low nameability","19","right","audio_feedback","1"
"html-button-response","100","125048","0.0-77.0","CAN_150","150","","","","","","null","<button class=""jspsych-btn""><img src=""stimuli/white_square.png"" style=""width: 200px;height: 200px;""></button>","null","turquoise","mustard","[""turquoise"",""mustard"",""low nameability""]","right-left","[""mustard"",""turquoise""]","2","low nameability","19","right","iti",""
"html-button-response","101","125653","0.0-78.0","CAN_150","150","","","","","","588","","0","lightred","neonyellow","[""lightred"",""neonyellow"",""low nameability""]","right-left","[""neonyellow"",""lightred""]","2","low nameability","20","right","trigger",""
"html-button-response","102","126294","0.0-79.0-0.0","CAN_150","150","","","","","","631","<button class=""jspsych-btn""><img src=""stimuli/lightred.png"" style=""width: 200px;height: 200px;""></button>","1","lightred","neonyellow","[""lightred"",""neonyellow"",""low nameability""]","right-left","[""neonyellow"",""lightred""]","2","low nameability","20","right","response","1"
"html-audio-button-response","103","126504","0.0-79.0-1.0","CAN_150","150","","","","","","null","stimuli/bleep.m4a","null","lightred","neonyellow","[""lightred"",""neonyellow"",""low nameability""]","right-left","[""neonyellow"",""lightred""]","2","low nameability","20","right","audio_feedback","1"
"html-button-response","104","127027","0.0-80.0","CAN_150","150","","","","","","null","<button class=""jspsych-btn""><img src=""stimuli/white_square.png"" style=""width: 200px;height: 200px;""></button>","null","lightred","neonyellow","[""lightred"",""neonyellow"",""low nameability""]","right-left","[""neonyellow"",""lightred""]","2","low nameability","20","right","iti",""
"pavlovia","105","127103","0.0-81.0","CAN_150","150","","","","","","","","","","","","","","","","","","",""
"pavlovia","106","127114","0.0-82.0","CAN_150","150","","","","","","","","","","","","","","","","","","",""
"html-audio-button-response","107","129228","0.0-83.0","CAN_150","150","","","","","","2205","stimuli/tada.m4a","0","","","","","","","","","","",""
"html-button-response","108","129835","0.0-84.0","CAN_150","150","","","","","","599","","0","","","","","","","","","","",""
"html-button-response","109","131189","0.0-85.0","CAN_150","150","","","","","","1347","","0","neonyellow","pink","[""neonyellow"",""pink"",""low nameability""]","left-right","[""neonyellow"",""pink"",""low nameability""]","3","low nameability","21","left","trigger",""
"html-button-response","110","131915","0.0-86.0-0.0","CAN_150","150","","","","","","716","<button class=""jspsych-btn""><img src=""stimuli/neonyellow.png"" style=""width: 200px;height: 200px;""></button>","0","neonyellow","pink","[""neonyellow"",""pink"",""low nameability""]","left-right","[""neonyellow"",""pink"",""low nameability""]","3","low nameability","21","left","response","1"
"html-audio-button-response","111","132125","0.0-86.0-1.0","CAN_150","150","","","","","","null","stimuli/bleep.m4a","null","neonyellow","pink","[""neonyellow"",""pink"",""low nameability""]","left-right","[""neonyellow"",""pink"",""low nameability""]","3","low nameability","21","left","audio_feedback","1"
"html-button-response","112","132643","0.0-87.0","CAN_150","150","","","","","","null","<button class=""jspsych-btn""><img src=""stimuli/white_square.png"" style=""width: 200px;height: 200px;""></button>","null","neonyellow","pink","[""neonyellow"",""pink"",""low nameability""]","left-right","[""neonyellow"",""pink"",""low nameability""]","3","low nameability","21","left","iti",""
"html-button-response","113","133269","0.0-88.0","CAN_150","150","","","","","","607","","0","red","brown","[""red"",""brown"",""high nameability""]","right-left","[""brown"",""red""]","3","high nameability","22","right","trigger",""
"html-button-response","114","133939","0.0-89.0-0.0","CAN_150","150","","","","","","660","<button class=""jspsych-btn""><img src=""stimuli/red.png"" style=""width: 200px;height: 200px;""></button>","1","red","brown","[""red"",""brown"",""high nameability""]","right-left","[""brown"",""red""]","3","high nameability","22","right","response","1"
"html-audio-button-response","115","134143","0.0-89.0-1.0","CAN_150","150","","","","","","null","stimuli/bleep.m4a","null","red","brown","[""red"",""brown"",""high nameability""]","right-left","[""brown"",""red""]","3","high nameability","22","right","audio_feedback","1"
"html-button-response","116","134658","0.0-90.0","CAN_150","150","","","","","","null","<button class=""jspsych-btn""><img src=""stimuli/white_square.png"" style=""width: 200px;height: 200px;""></button>","null","red","brown","[""red"",""brown"",""high nameability""]","right-left","[""brown"",""red""]","3","high nameability","22","right","iti",""
"html-button-response","117","135339","0.0-91.0","CAN_150","150","","","","","","663","","0","orange","purple","[""orange"",""purple"",""high nameability""]","right-left","[""purple"",""orange""]","3","high nameability","23","right","trigger",""
"html-button-response","118","135932","0.0-92.0-0.0","CAN_150","150","","","","","","582","<button class=""jspsych-btn""><img src=""stimuli/orange.png"" style=""width: 200px;height: 200px;""></button>","1","orange","purple","[""orange"",""purple"",""high nameability""]","right-left","[""purple"",""orange""]","3","high nameability","23","right","response","1"
"html-audio-button-response","119","136137","0.0-92.0-1.0","CAN_150","150","","","","","","null","stimuli/bleep.m4a","null","orange","purple","[""orange"",""purple"",""high nameability""]","right-left","[""purple"",""orange""]","3","high nameability","23","right","audio_feedback","1"
"html-button-response","120","136657","0.0-93.0","CAN_150","150","","","","","","null","<button class=""jspsych-btn""><img src=""stimuli/white_square.png"" style=""width: 200px;height: 200px;""></button>","null","orange","purple","[""orange"",""purple"",""high nameability""]","right-left","[""purple"",""orange""]","3","high nameability","23","right","iti",""
"html-button-response","121","137241","0.0-94.0","CAN_150","150","","","","","","577","","0","brown","yellow","[""brown"",""yellow"",""high nameability""]","right-left","[""yellow"",""brown""]","3","high nameability","24","right","trigger",""
"html-button-response","122","137892","0.0-95.0-0.0","CAN_150","150","","","","","","640","<button class=""jspsych-btn""><img src=""stimuli/brown.png"" style=""width: 200px;height: 200px;""></button>","1","brown","yellow","[""brown"",""yellow"",""high nameability""]","right-left","[""yellow"",""brown""]","3","high nameability","24","right","response","1"
"html-audio-button-response","123","138094","0.0-95.0-1.0","CAN_150","150","","","","","","null","stimuli/bleep.m4a","null","brown","yellow","[""brown"",""yellow"",""high nameability""]","right-left","[""yellow"",""brown""]","3","high nameability","24","right","audio_feedback","1"
"html-button-response","124","138611","0.0-96.0","CAN_150","150","","","","","","null","<button class=""jspsych-btn""><img src=""stimuli/white_square.png"" style=""width: 200px;height: 200px;""></button>","null","brown","yellow","[""brown"",""yellow"",""high nameability""]","right-left","[""yellow"",""brown""]","3","high nameability","24","right","iti",""
"html-button-response","125","139176","0.0-97.0","CAN_150","150","","","","","","543","","0","brown","red","[""brown"",""red"",""high nameability""]","right-left","[""red"",""brown""]","3","high nameability","25","right","trigger",""
"html-button-response","126","139807","0.0-98.0-0.0","CAN_150","150","","","","","","625","<button class=""jspsych-btn""><img src=""stimuli/brown.png"" style=""width: 200px;height: 200px;""></button>","1","brown","red","[""brown"",""red"",""high nameability""]","right-left","[""red"",""brown""]","3","high nameability","25","right","response","1"
"html-audio-button-response","127","140012","0.0-98.0-1.0","CAN_150","150","","","","","","null","stimuli/bleep.m4a","null","brown","red","[""brown"",""red"",""high nameability""]","right-left","[""red"",""brown""]","3","high nameability","25","right","audio_feedback","1"
"html-button-response","128","140534","0.0-99.0","CAN_150","150","","","","","","null","<button class=""jspsych-btn""><img src=""stimuli/white_square.png"" style=""width: 200px;height: 200px;""></button>","null","brown","red","[""brown"",""red"",""high nameability""]","right-left","[""red"",""brown""]","3","high nameability","25","right","iti",""
"html-button-response","129","141107","0.0-100.0","CAN_150","150","","","","","","553","","0","darkgreenblue","turquoise","[""darkgreenblue"",""turquoise"",""low nameability""]","left-right","[""darkgreenblue"",""turquoise"",""low nameability""]","3","low nameability","26","left","trigger",""
"html-button-response","130","141827","0.0-101.0-0.0","CAN_150","150","","","","","","710","<button class=""jspsych-btn""><img src=""stimuli/darkgreenblue.png"" style=""width: 200px;height: 200px;""></button>","0","darkgreenblue","turquoise","[""darkgreenblue"",""turquoise"",""low nameability""]","left-right","[""darkgreenblue"",""turquoise"",""low nameability""]","3","low nameability","26","left","response","1"
"html-audio-button-response","131","142031","0.0-101.0-1.0","CAN_150","150","","","","","","null","stimuli/bleep.m4a","null","darkgreenblue","turquoise","[""darkgreenblue"",""turquoise"",""low nameability""]","left-right","[""darkgreenblue"",""turquoise"",""low nameability""]","3","low nameability","26","left","audio_feedback","1"
"html-button-response","132","142547","0.0-102.0","CAN_150","150","","","","","","null","<button class=""jspsych-btn""><img src=""stimuli/white_square.png"" style=""width: 200px;height: 200px;""></button>","null","darkgreenblue","turquoise","[""darkgreenblue"",""turquoise"",""low nameability""]","left-right","[""darkgreenblue"",""turquoise"",""low nameability""]","3","low nameability","26","left","iti",""
"html-button-response","133","143070","0.0-103.0","CAN_150","150","","","","","","504","","0","turquoise","neonyellow","[""turquoise"",""neonyellow"",""low nameability""]","left-right","[""turquoise"",""neonyellow"",""low nameability""]","3","low nameability","27","left","trigger",""
"html-button-response","134","143752","0.0-104.0-0.0","CAN_150","150","","","","","","677","<button class=""jspsych-btn""><img src=""stimuli/turquoise.png"" style=""width: 200px;height: 200px;""></button>","0","turquoise","neonyellow","[""turquoise"",""neonyellow"",""low nameability""]","left-right","[""turquoise"",""neonyellow"",""low nameability""]","3","low nameability","27","left","response","1"
"html-audio-button-response","135","143953","0.0-104.0-1.0","CAN_150","150","","","","","","null","stimuli/bleep.m4a","null","turquoise","neonyellow","[""turquoise"",""neonyellow"",""low nameability""]","left-right","[""turquoise"",""neonyellow"",""low nameability""]","3","low nameability","27","left","audio_feedback","1"
"html-button-response","136","144470","0.0-105.0","CAN_150","150","","","","","","null","<button class=""jspsych-btn""><img src=""stimuli/white_square.png"" style=""width: 200px;height: 200px;""></button>","null","turquoise","neonyellow","[""turquoise"",""neonyellow"",""low nameability""]","left-right","[""turquoise"",""neonyellow"",""low nameability""]","3","low nameability","27","left","iti",""
"html-button-response","137","145159","0.0-106.0","CAN_150","150","","","","","","665","","0","blue","red","[""blue"",""red"",""high nameability""]","right-left","[""red"",""blue""]","3","high nameability","28","right","trigger",""
"html-button-response","138","145749","0.0-107.0-0.0","CAN_150","150","","","","","","582","<button class=""jspsych-btn""><img src=""stimuli/blue.png"" style=""width: 200px;height: 200px;""></button>","1","blue","red","[""blue"",""red"",""high nameability""]","right-left","[""red"",""blue""]","3","high nameability","28","right","response","1"
"html-audio-button-response","139","145955","0.0-107.0-1.0","CAN_150","150","","","","","","null","stimuli/bleep.m4a","null","blue","red","[""blue"",""red"",""high nameability""]","right-left","[""red"",""blue""]","3","high nameability","28","right","audio_feedback","1"
"html-button-response","140","146472","0.0-108.0","CAN_150","150","","","","","","null","<button class=""jspsych-btn""><img src=""stimuli/white_square.png"" style=""width: 200px;height: 200px;""></button>","null","blue","red","[""blue"",""red"",""high nameability""]","right-left","[""red"",""blue""]","3","high nameability","28","right","iti",""
"html-button-response","141","147056","0.0-109.0","CAN_150","150","","","","","","572","","0","turquoise","pink","[""turquoise"",""pink"",""low nameability""]","right-left","[""pink"",""turquoise""]","3","low nameability","29","right","trigger",""
"html-button-response","142","147673","0.0-110.0-0.0","CAN_150","150","","","","","","610","<button class=""jspsych-btn""><img src=""stimuli/turquoise.png"" style=""width: 200px;height: 200px;""></button>","1","turquoise","pink","[""turquoise"",""pink"",""low nameability""]","right-left","[""pink"",""turquoise""]","3","low nameability","29","right","response","1"
"html-audio-button-response","143","147877","0.0-110.0-1.0","CAN_150","150","","","","","","null","stimuli/bleep.m4a","null","turquoise","pink","[""turquoise"",""pink"",""low nameability""]","right-left","[""pink"",""turquoise""]","3","low nameability","29","right","audio_feedback","1"
"html-button-response","144","148398","0.0-111.0","CAN_150","150","","","","","","null","<button class=""jspsych-btn""><img src=""stimuli/white_square.png"" style=""width: 200px;height: 200px;""></button>","null","turquoise","pink","[""turquoise"",""pink"",""low nameability""]","right-left","[""pink"",""turquoise""]","3","low nameability","29","right","iti",""
"html-button-response","145","148990","0.0-112.0","CAN_150","150","","","","","","571","","0","blue","orange","[""blue"",""orange"",""high nameability""]","left-right","[""blue"",""orange"",""high nameability""]","3","high nameability","30","left","trigger",""
"html-button-response","146","149736","0.0-113.0-0.0","CAN_150","150","","","","","","740","<button class=""jspsych-btn""><img src=""stimuli/blue.png"" style=""width: 200px;height: 200px;""></button>","0","blue","orange","[""blue"",""orange"",""high nameability""]","left-right","[""blue"",""orange"",""high nameability""]","3","high nameability","30","left","response","1"
"html-audio-button-response","147","149935","0.0-113.0-1.0","CAN_150","150","","","","","","null","stimuli/bleep.m4a","null","blue","orange","[""blue"",""orange"",""high nameability""]","left-right","[""blue"",""orange"",""high nameability""]","3","high nameability","30","left","audio_feedback","1"
"html-button-response","148","150457","0.0-114.0","CAN_150","150","","","","","","null","<button class=""jspsych-btn""><img src=""stimuli/white_square.png"" style=""width: 200px;height: 200px;""></button>","null","blue","orange","[""blue"",""orange"",""high nameability""]","left-right","[""blue"",""orange"",""high nameability""]","3","high nameability","30","left","iti",""
"pavlovia","149","150507","0.0-115.0","CAN_150","150","","","","","","","","","","","","","","","","","","",""
"pavlovia","150","150514","0.0-116.0","CAN_150","150","","","","","","","","","","","","","","","","","","",""
"html-audio-button-response","151","152224","0.0-117.0","CAN_150","150","","","","","","1768","stimuli/tada.m4a","0","","","","","","","","","","",""
"html-button-response","152","152782","0.0-118.0","CAN_150","150","","","","","","553","","0","","","","","","","","","","",""
"html-button-response","153","153797","0.0-119.0","CAN_150","150","","","","","","1003","","0","pink","lightred","[""pink"",""lightred"",""low nameability""]","right-left","[""lightred"",""pink""]","4","low nameability","31","right","trigger",""
"html-button-response","154","154384","0.0-120.0-0.0","CAN_150","150","","","","","","575","<button class=""jspsych-btn""><img src=""stimuli/pink.png"" style=""width: 200px;height: 200px;""></button>","1","pink","lightred","[""pink"",""lightred"",""low nameability""]","right-left","[""lightred"",""pink""]","4","low nameability","31","right","response","1"
"html-audio-button-response","155","154596","0.0-120.0-1.0","CAN_150","150","","","","","","null","stimuli/bleep.m4a","null","pink","lightred","[""pink"",""lightred"",""low nameability""]","right-left","[""lightred"",""pink""]","4","low nameability","31","right","audio_feedback","1"
"html-button-response","156","155127","0.0-121.0","CAN_150","150","","","","","","null","<button class=""jspsych-btn""><img src=""stimuli/white_square.png"" style=""width: 200px;height: 200px;""></button>","null","pink","lightred","[""pink"",""lightred"",""low nameability""]","right-left","[""lightred"",""pink""]","4","low nameability","31","right","iti",""
"html-button-response","157","155718","0.0-122.0","CAN_150","150","","","","","","572","","0","yellow","brown","[""yellow"",""brown"",""high nameability""]","left-right","[""yellow"",""brown"",""high nameability""]","4","high nameability","32","left","trigger",""
"html-button-response","158","156417","0.0-123.0-0.0","CAN_150","150","","","","","","690","<button class=""jspsych-btn""><img src=""stimuli/yellow.png"" style=""width: 200px;height: 200px;""></button>","0","yellow","brown","[""yellow"",""brown"",""high nameability""]","left-right","[""yellow"",""brown"",""high nameability""]","4","high nameability","32","left","response","1"
"html-audio-button-response","159","156628","0.0-123.0-1.0","CAN_150","150","","","","","","null","stimuli/bleep.m4a","null","yellow","brown","[""yellow"",""brown"",""high nameability""]","left-right","[""yellow"",""brown"",""high nameability""]","4","high nameability","32","left","audio_feedback","1"
"html-button-response","160","157149","0.0-124.0","CAN_150","150","","","","","","null","<button class=""jspsych-btn""><img src=""stimuli/white_square.png"" style=""width: 200px;height: 200px;""></button>","null","yellow","brown","[""yellow"",""brown"",""high nameability""]","left-right","[""yellow"",""brown"",""high nameability""]","4","high nameability","32","left","iti",""
"html-button-response","161","157674","0.0-125.0","CAN_150","150","","","","","","504","","0","red","blue","[""red"",""blue"",""high nameability""]","left-right","[""red"",""blue"",""high nameability""]","4","high nameability","33","left","trigger",""
"html-button-response","162","158364","0.0-126.0-0.0","CAN_150","150","","","","","","671","<button class=""jspsych-btn""><img src=""stimuli/red.png"" style=""width: 200px;height: 200px;""></button>","0","red","blue","[""red"",""blue"",""high nameability""]","left-right","[""red"",""blue"",""high nameability""]","4","high nameability","33","left","response","1"
"html-audio-button-response","163","158585","0.0-126.0-1.0","CAN_150","150","","","","","","null","stimuli/bleep.m4a","null","red","blue","[""red"",""blue"",""high nameability""]","left-right","[""red"",""blue"",""high nameability""]","4","high nameability","33","left","audio_feedback","1"
"html-button-response","164","159118","0.0-127.0","CAN_150","150","","","","","","null","<button class=""jspsych-btn""><img src=""stimuli/white_square.png"" style=""width: 200px;height: 200px;""></button>","null","red","blue","[""red"",""blue"",""high nameability""]","left-right","[""red"",""blue"",""high nameability""]","4","high nameability","33","left","iti",""
"html-button-response","165","159687","0.0-128.0","CAN_150","150","","","","","","544","","0","red","yellow","[""red"",""yellow"",""high nameability""]","right-left","[""yellow"",""red""]","4","high nameability","34","right","trigger",""
"html-button-response","166","160218","0.0-129.0-0.0","CAN_150","150","","","","","","519","<button class=""jspsych-btn""><img src=""stimuli/red.png"" style=""width: 200px;height: 200px;""></button>","1","red","yellow","[""red"",""yellow"",""high nameability""]","right-left","[""yellow"",""red""]","4","high nameability","34","right","response","1"
"html-audio-button-response","167","160433","0.0-129.0-1.0","CAN_150","150","","","","","","null","stimuli/bleep.m4a","null","red","yellow","[""red"",""yellow"",""high nameability""]","right-left","[""yellow"",""red""]","4","high nameability","34","right","audio_feedback","1"
"html-button-response","168","160956","0.0-130.0","CAN_150","150","","","","","","null","<button class=""jspsych-btn""><img src=""stimuli/white_square.png"" style=""width: 200px;height: 200px;""></button>","null","red","yellow","[""red"",""yellow"",""high nameability""]","right-left","[""yellow"",""red""]","4","high nameability","34","right","iti",""
"html-button-response","169","161605","0.0-131.0","CAN_150","150","","","","","","630","","0","red","orange","[""red"",""orange"",""high nameability""]","left-right","[""red"",""orange"",""high nameability""]","4","high nameability","35","left","trigger",""
"html-button-response","170","162538","0.0-132.0-0.0","CAN_150","150","","","","","","923","<button class=""jspsych-btn""><img src=""stimuli/red.png"" style=""width: 200px;height: 200px;""></button>","0","red","orange","[""red"",""orange"",""high nameability""]","left-right","[""red"",""orange"",""high nameability""]","4","high nameability","35","left","response","1"
"html-audio-button-response","171","162748","0.0-132.0-1.0","CAN_150","150","","","","","","null","stimuli/bleep.m4a","null","red","orange","[""red"",""orange"",""high nameability""]","left-right","[""red"",""orange"",""high nameability""]","4","high nameability","35","left","audio_feedback","1"
"html-button-response","172","163278","0.0-133.0","CAN_150","150","","","","","","null","<button class=""jspsych-btn""><img src=""stimuli/white_square.png"" style=""width: 200px;height: 200px;""></button>","null","red","orange","[""red"",""orange"",""high nameability""]","left-right","[""red"",""orange"",""high nameability""]","4","high nameability","35","left","iti",""
"html-button-response","173","163805","0.0-134.0","CAN_150","150","","","","","","513","","0","turquoise","darkgreenblue","[""turquoise"",""darkgreenblue"",""low nameability""]","left-right","[""turquoise"",""darkgreenblue"",""low nameability""]","4","low nameability","36","left","trigger",""
"html-button-response","174","164522","0.0-135.0-0.0","CAN_150","150","","","","","","708","<button class=""jspsych-btn""><img src=""stimuli/turquoise.png"" style=""width: 200px;height: 200px;""></button>","0","turquoise","darkgreenblue","[""turquoise"",""darkgreenblue"",""low nameability""]","left-right","[""turquoise"",""darkgreenblue"",""low nameability""]","4","low nameability","36","left","response","1"
"html-audio-button-response","175","164733","0.0-135.0-1.0","CAN_150","150","","","","","","null","stimuli/bleep.m4a","null","turquoise","darkgreenblue","[""turquoise"",""darkgreenblue"",""low nameability""]","left-right","[""turquoise"",""darkgreenblue"",""low nameability""]","4","low nameability","36","left","audio_feedback","1"
"html-button-response","176","165251","0.0-136.0","CAN_150","150","","","","","","null","<button class=""jspsych-btn""><img src=""stimuli/white_square.png"" style=""width: 200px;height: 200px;""></button>","null","turquoise","darkgreenblue","[""turquoise"",""darkgreenblue"",""low nameability""]","left-right","[""turquoise"",""darkgreenblue"",""low nameability""]","4","low nameability","36","left","iti",""
"html-button-response","177","165834","0.0-137.0","CAN_150","150","","","","","","554","","0","mustard","pink","[""mustard"",""pink"",""low nameability""]","left-right","[""mustard"",""pink"",""low nameability""]","4","low nameability","37","left","trigger",""
"html-button-response","178","166540","0.0-138.0-0.0","CAN_150","150","","","","","","698","<button class=""jspsych-btn""><img src=""stimuli/mustard.png"" style=""width: 200px;height: 200px;""></button>","0","mustard","pink","[""mustard"",""pink"",""low nameability""]","left-right","[""mustard"",""pink"",""low nameability""]","4","low nameability","37","left","response","1"
"html-audio-button-response","179","166749","0.0-138.0-1.0","CAN_150","150","","","","","","null","stimuli/bleep.m4a","null","mustard","pink","[""mustard"",""pink"",""low nameability""]","left-right","[""mustard"",""pink"",""low nameability""]","4","low nameability","37","left","audio_feedback","1"
"html-button-response","180","167267","0.0-139.0","CAN_150","150","","","","","","null","<button class=""jspsych-btn""><img src=""stimuli/white_square.png"" style=""width: 200px;height: 200px;""></button>","null","mustard","pink","[""mustard"",""pink"",""low nameability""]","left-right","[""mustard"",""pink"",""low nameability""]","4","low nameability","37","left","iti",""
"html-button-response","181","167845","0.0-140.0","CAN_150","150","","","","","","562","","0","lightred","turquoise","[""lightred"",""turquoise"",""low nameability""]","right-left","[""turquoise"",""lightred""]","4","low nameability","38","right","trigger",""
"html-button-response","182","168465","0.0-141.0-0.0","CAN_150","150","","","","","","611","<button class=""jspsych-btn""><img src=""stimuli/lightred.png"" style=""width: 200px;height: 200px;""></button>","1","lightred","turquoise","[""lightred"",""turquoise"",""low nameability""]","right-left","[""turquoise"",""lightred""]","4","low nameability","38","right","response","1"
"html-audio-button-response","183","168671","0.0-141.0-1.0","CAN_150","150","","","","","","null","stimuli/bleep.m4a","null","lightred","turquoise","[""lightred"",""turquoise"",""low nameability""]","right-left","[""turquoise"",""lightred""]","4","low nameability","38","right","audio_feedback","1"
"html-button-response","184","169201","0.0-142.0","CAN_150","150","","","","","","null","<button class=""jspsych-btn""><img src=""stimuli/white_square.png"" style=""width: 200px;height: 200px;""></button>","null","lightred","turquoise","[""lightred"",""turquoise"",""low nameability""]","right-left","[""turquoise"",""lightred""]","4","low nameability","38","right","iti",""
"html-button-response","185","169846","0.0-143.0","CAN_150","150","","","","","","621","","0","lightred","darkgreenblue","[""lightred"",""darkgreenblue"",""low nameability""]","right-left","[""darkgreenblue"",""lightred""]","4","low nameability","39","right","trigger",""
"html-button-response","186","170471","0.0-144.0-0.0","CAN_150","150","","","","","","619","<button class=""jspsych-btn""><img src=""stimuli/lightred.png"" style=""width: 200px;height: 200px;""></button>","1","lightred","darkgreenblue","[""lightred"",""darkgreenblue"",""low nameability""]","right-left","[""darkgreenblue"",""lightred""]","4","low nameability","39","right","response","1"
"html-audio-button-response","187","170675","0.0-144.0-1.0","CAN_150","150","","","","","","null","stimuli/bleep.m4a","null","lightred","darkgreenblue","[""lightred"",""darkgreenblue"",""low nameability""]","right-left","[""darkgreenblue"",""lightred""]","4","low nameability","39","right","audio_feedback","1"
"html-button-response","188","171200","0.0-145.0","CAN_150","150","","","","","","null","<button class=""jspsych-btn""><img src=""stimuli/white_square.png"" style=""width: 200px;height: 200px;""></button>","null","lightred","darkgreenblue","[""lightred"",""darkgreenblue"",""low nameability""]","right-left","[""darkgreenblue"",""lightred""]","4","low nameability","39","right","iti",""
"html-button-response","189","171765","0.0-146.0","CAN_150","150","","","","","","547","","0","orange","blue","[""orange"",""blue"",""high nameability""]","right-left","[""blue"",""orange""]","4","high nameability","40","right","trigger",""
"html-button-response","190","172382","0.0-147.0-0.0","CAN_150","150","","","","","","608","<button class=""jspsych-btn""><img src=""stimuli/orange.png"" style=""width: 200px;height: 200px;""></button>","1","orange","blue","[""orange"",""blue"",""high nameability""]","right-left","[""blue"",""orange""]","4","high nameability","40","right","response","1"
"html-audio-button-response","191","172589","0.0-147.0-1.0","CAN_150","150","","","","","","null","stimuli/bleep.m4a","null","orange","blue","[""orange"",""blue"",""high nameability""]","right-left","[""blue"",""orange""]","4","high nameability","40","right","audio_feedback","1"
"html-button-response","192","173111","0.0-148.0","CAN_150","150","","","","","","null","<button class=""jspsych-btn""><img src=""stimuli/white_square.png"" style=""width: 200px;height: 200px;""></button>","null","orange","blue","[""orange"",""blue"",""high nameability""]","right-left","[""blue"",""orange""]","4","high nameability","40","right","iti",""
"pavlovia","193","173222","0.0-149.0","CAN_150","150","","","","","","","","","","","","","","","","","","",""
"pavlovia","194","173236","0.0-150.0","CAN_150","150","","","","","","","","","","","","","","","","","","",""
"html-audio-button-response","195","174706","0.0-151.0","CAN_150","150","","","","","","1597","stimuli/tada.m4a","0","","","","","","","","","","",""
"html-button-response","196","175211","0.0-152.0","CAN_150","150","","","","","","496","","0","","","","","","","","","","",""
"html-button-response","197","176128","0.0-153.0","CAN_150","150","","","","","","908","","0","neonyellow","mustard","[""neonyellow"",""mustard"",""low nameability""]","left-right","[""neonyellow"",""mustard"",""low nameability""]","5","low nameability","41","left","trigger",""
"html-button-response","198","176885","0.0-154.0-0.0","CAN_150","150","","","","","","749","<button class=""jspsych-btn""><img src=""stimuli/neonyellow.png"" style=""width: 200px;height: 200px;""></button>","0","neonyellow","mustard","[""neonyellow"",""mustard"",""low nameability""]","left-right","[""neonyellow"",""mustard"",""low nameability""]","5","low nameability","41","left","response","1"
"html-audio-button-response","199","177088","0.0-154.0-1.0","CAN_150","150","","","","","","null","stimuli/bleep.m4a","null","neonyellow","mustard","[""neonyellow"",""mustard"",""low nameability""]","left-right","[""neonyellow"",""mustard"",""low nameability""]","5","low nameability","41","left","audio_feedback","1"
"html-button-response","200","177613","0.0-155.0","CAN_150","150","","","","","","null","<button class=""jspsych-btn""><img src=""stimuli/white_square.png"" style=""width: 200px;height: 200px;""></button>","null","neonyellow","mustard","[""neonyellow"",""mustard"",""low nameability""]","left-right","[""neonyellow"",""mustard"",""low nameability""]","5","low nameability","41","left","iti",""
"html-button-response","201","178316","0.0-156.0","CAN_150","150","","","","","","686","","0","purple","blue","[""purple"",""blue"",""high nameability""]","right-left","[""blue"",""purple""]","5","high nameability","42","right","trigger",""
"html-button-response","202","178923","0.0-157.0-0.0","CAN_150","150","","","","","","597","<button class=""jspsych-btn""><img src=""stimuli/purple.png"" style=""width: 200px;height: 200px;""></button>","1","purple","blue","[""purple"",""blue"",""high nameability""]","right-left","[""blue"",""purple""]","5","high nameability","42","right","response","1"
"html-audio-button-response","203","179128","0.0-157.0-1.0","CAN_150","150","","","","","","null","stimuli/bleep.m4a","null","purple","blue","[""purple"",""blue"",""high nameability""]","right-left","[""blue"",""purple""]","5","high nameability","42","right","audio_feedback","1"
"html-button-response","204","179644","0.0-158.0","CAN_150","150","","","","","","null","<button class=""jspsych-btn""><img src=""stimuli/white_square.png"" style=""width: 200px;height: 200px;""></button>","null","purple","blue","[""purple"",""blue"",""high nameability""]","right-left","[""blue"",""purple""]","5","high nameability","42","right","iti",""
"html-button-response","205","180237","0.0-159.0","CAN_150","150","","","","","","581","","0","neonyellow","darkgreenblue","[""neonyellow"",""darkgreenblue"",""low nameability""]","right-left","[""darkgreenblue"",""neonyellow""]","5","low nameability","43","right","trigger",""
"html-button-response","206","180823","0.0-160.0-0.0","CAN_150","150","","","","","","578","<button class=""jspsych-btn""><img src=""stimuli/neonyellow.png"" style=""width: 200px;height: 200px;""></button>","1","neonyellow","darkgreenblue","[""neonyellow"",""darkgreenblue"",""low nameability""]","right-left","[""darkgreenblue"",""neonyellow""]","5","low nameability","43","right","response","1"
"html-audio-button-response","207","181027","0.0-160.0-1.0","CAN_150","150","","","","","","null","stimuli/bleep.m4a","null","neonyellow","darkgreenblue","[""neonyellow"",""darkgreenblue"",""low nameability""]","right-left","[""darkgreenblue"",""neonyellow""]","5","low nameability","43","right","audio_feedback","1"
"html-button-response","208","181553","0.0-161.0","CAN_150","150","","","","","","null","<button class=""jspsych-btn""><img src=""stimuli/white_square.png"" style=""width: 200px;height: 200px;""></button>","null","neonyellow","darkgreenblue","[""neonyellow"",""darkgreenblue"",""low nameability""]","right-left","[""darkgreenblue"",""neonyellow""]","5","low nameability","43","right","iti",""
"html-button-response","209","182094","0.0-162.0","CAN_150","150","","","","","","524","","0","pink","darkgreenblue","[""pink"",""darkgreenblue"",""low nameability""]","left-right","[""pink"",""darkgreenblue"",""low nameability""]","5","low nameability","44","left","trigger",""
"html-button-response","210","182755","0.0-163.0-0.0","CAN_150","150","","","","","","655","<button class=""jspsych-btn""><img src=""stimuli/pink.png"" style=""width: 200px;height: 200px;""></button>","0","pink","darkgreenblue","[""pink"",""darkgreenblue"",""low nameability""]","left-right","[""pink"",""darkgreenblue"",""low nameability""]","5","low nameability","44","left","response","1"
"html-audio-button-response","211","182962","0.0-163.0-1.0","CAN_150","150","","","","","","null","stimuli/bleep.m4a","null","pink","darkgreenblue","[""pink"",""darkgreenblue"",""low nameability""]","left-right","[""pink"",""darkgreenblue"",""low nameability""]","5","low nameability","44","left","audio_feedback","1"
"html-button-response","212","183481","0.0-164.0","CAN_150","150","","","","","","null","<button class=""jspsych-btn""><img src=""stimuli/white_square.png"" style=""width: 200px;height: 200px;""></button>","null","pink","darkgreenblue","[""pink"",""darkgreenblue"",""low nameability""]","left-right","[""pink"",""darkgreenblue"",""low nameability""]","5","low nameability","44","left","iti",""
"html-button-response","213","184027","0.0-165.0","CAN_150","150","","","","","","529","","0","darkgreenblue","neonyellow","[""darkgreenblue"",""neonyellow"",""low nameability""]","right-left","[""neonyellow"",""darkgreenblue""]","5","low nameability","45","right","trigger",""
"html-button-response","214","184645","0.0-166.0-0.0","CAN_150","150","","","","","","612","<button class=""jspsych-btn""><img src=""stimuli/darkgreenblue.png"" style=""width: 200px;height: 200px;""></button>","1","darkgreenblue","neonyellow","[""darkgreenblue"",""neonyellow"",""low nameability""]","right-left","[""neonyellow"",""darkgreenblue""]","5","low nameability","45","right","response","1"
"html-audio-button-response","215","184848","0.0-166.0-1.0","CAN_150","150","","","","","","null","stimuli/bleep.m4a","null","darkgreenblue","neonyellow","[""darkgreenblue"",""neonyellow"",""low nameability""]","right-left","[""neonyellow"",""darkgreenblue""]","5","low nameability","45","right","audio_feedback","1"
"html-button-response","216","185372","0.0-167.0","CAN_150","150","","","","","","null","<button class=""jspsych-btn""><img src=""stimuli/white_square.png"" style=""width: 200px;height: 200px;""></button>","null","darkgreenblue","neonyellow","[""darkgreenblue"",""neonyellow"",""low nameability""]","right-left","[""neonyellow"",""darkgreenblue""]","5","low nameability","45","right","iti",""
"html-button-response","217","186000","0.0-168.0","CAN_150","150","","","","","","608","","0","purple","red","[""purple"",""red"",""high nameability""]","left-right","[""purple"",""red"",""high nameability""]","5","high nameability","46","left","trigger",""
"html-button-response","218","186702","0.0-169.0-0.0","CAN_150","150","","","","","","694","<button class=""jspsych-btn""><img src=""stimuli/purple.png"" style=""width: 200px;height: 200px;""></button>","0","purple","red","[""purple"",""red"",""high nameability""]","left-right","[""purple"",""red"",""high nameability""]","5","high nameability","46","left","response","1"
"html-audio-button-response","219","186907","0.0-169.0-1.0","CAN_150","150","","","","","","null","stimuli/bleep.m4a","null","purple","red","[""purple"",""red"",""high nameability""]","left-right","[""purple"",""red"",""high nameability""]","5","high nameability","46","left","audio_feedback","1"
"html-button-response","220","187429","0.0-170.0","CAN_150","150","","","","","","null","<button class=""jspsych-btn""><img src=""stimuli/white_square.png"" style=""width: 200px;height: 200px;""></button>","null","purple","red","[""purple"",""red"",""high nameability""]","left-right","[""purple"",""red"",""high nameability""]","5","high nameability","46","left","iti",""
"html-button-response","221","188013","0.0-171.0","CAN_150","150","","","","","","570","","0","brown","blue","[""brown"",""blue"",""high nameability""]","right-left","[""blue"",""brown""]","5","high nameability","47","right","trigger",""
"html-button-response","222","188622","0.0-172.0-0.0","CAN_150","150","","","","","","602","<button class=""jspsych-btn""><img src=""stimuli/brown.png"" style=""width: 200px;height: 200px;""></button>","1","brown","blue","[""brown"",""blue"",""high nameability""]","right-left","[""blue"",""brown""]","5","high nameability","47","right","response","1"
"html-audio-button-response","223","188828","0.0-172.0-1.0","CAN_150","150","","","","","","null","stimuli/bleep.m4a","null","brown","blue","[""brown"",""blue"",""high nameability""]","right-left","[""blue"",""brown""]","5","high nameability","47","right","audio_feedback","1"
"html-button-response","224","189348","0.0-173.0","CAN_150","150","","","","","","null","<button class=""jspsych-btn""><img src=""stimuli/white_square.png"" style=""width: 200px;height: 200px;""></button>","null","brown","blue","[""brown"",""blue"",""high nameability""]","right-left","[""blue"",""brown""]","5","high nameability","47","right","iti",""
"html-button-response","225","189954","0.0-174.0","CAN_150","150","","","","","","585","","0","turquoise","lightred","[""turquoise"",""lightred"",""low nameability""]","right-left","[""lightred"",""turquoise""]","5","low nameability","48","right","trigger",""
"html-button-response","226","190559","0.0-175.0-0.0","CAN_150","150","","","","","","595","<button class=""jspsych-btn""><img src=""stimuli/turquoise.png"" style=""width: 200px;height: 200px;""></button>","1","turquoise","lightred","[""turquoise"",""lightred"",""low nameability""]","right-left","[""lightred"",""turquoise""]","5","low nameability","48","right","response","1"
"html-audio-button-response","227","190763","0.0-175.0-1.0","CAN_150","150","","","","","","null","stimuli/bleep.m4a","null","turquoise","lightred","[""turquoise"",""lightred"",""low nameability""]","right-left","[""lightred"",""turquoise""]","5","low nameability","48","right","audio_feedback","1"
"html-button-response","228","191288","0.0-176.0","CAN_150","150","","","","","","null","<button class=""jspsych-btn""><img src=""stimuli/white_square.png"" style=""width: 200px;height: 200px;""></button>","null","turquoise","lightred","[""turquoise"",""lightred"",""low nameability""]","right-left","[""lightred"",""turquoise""]","5","low nameability","48","right","iti",""
"html-button-response","229","191928","0.0-177.0","CAN_150","150","","","","","","622","","0","brown","orange","[""brown"",""orange"",""high nameability""]","left-right","[""brown"",""orange"",""high nameability""]","5","high nameability","49","left","trigger",""
"html-button-response","230","192614","0.0-178.0-0.0","CAN_150","150","","","","","","678","<button class=""jspsych-btn""><img src=""stimuli/brown.png"" style=""width: 200px;height: 200px;""></button>","0","brown","orange","[""brown"",""orange"",""high nameability""]","left-right","[""brown"",""orange"",""high nameability""]","5","high nameability","49","left","response","1"
"html-audio-button-response","231","192819","0.0-178.0-1.0","CAN_150","150","","","","","","null","stimuli/bleep.m4a","null","brown","orange","[""brown"",""orange"",""high nameability""]","left-right","[""brown"",""orange"",""high nameability""]","5","high nameability","49","left","audio_feedback","1"
"html-button-response","232","193331","0.0-179.0","CAN_150","150","","","","","","null","<button class=""jspsych-btn""><img src=""stimuli/white_square.png"" style=""width: 200px;height: 200px;""></button>","null","brown","orange","[""brown"",""orange"",""high nameability""]","left-right","[""brown"",""orange"",""high nameability""]","5","high nameability","49","left","iti",""
"html-button-response","233","193913","0.0-180.0","CAN_150","150","","","","","","571","","0","purple","brown","[""purple"",""brown"",""high nameability""]","left-right","[""purple"",""brown"",""high nameability""]","5","high nameability","50","left","trigger",""
"html-button-response","234","194811","0.0-181.0-0.0","CAN_150","150","","","","","","893","<button class=""jspsych-btn""><img src=""stimuli/purple.png"" style=""width: 200px;height: 200px;""></button>","0","purple","brown","[""purple"",""brown"",""high nameability""]","left-right","[""purple"",""brown"",""high nameability""]","5","high nameability","50","left","response","1"
"html-audio-button-response","235","195018","0.0-181.0-1.0","CAN_150","150","","","","","","null","stimuli/bleep.m4a","null","purple","brown","[""purple"",""brown"",""high nameability""]","left-right","[""purple"",""brown"",""high nameability""]","5","high nameability","50","left","audio_feedback","1"
"html-button-response","236","195540","0.0-182.0","CAN_150","150","","","","","","null","<button class=""jspsych-btn""><img src=""stimuli/white_square.png"" style=""width: 200px;height: 200px;""></button>","null","purple","brown","[""purple"",""brown"",""high nameability""]","left-right","[""purple"",""brown"",""high nameability""]","5","high nameability","50","left","iti",""
"pavlovia","237","195631","0.0-183.0","CAN_150","150","","","","","","","","","","","","","","","","","","",""
"pavlovia","238","195642","0.0-184.0","CAN_150","150","","","","","","","","","","","","","","","","","","",""
"html-audio-button-response","239","196970","0.0-185.0","CAN_150","150","","","","","","1437","stimuli/tada.m4a","0","","","","","","","","","","",""
"html-button-response","240","197955","0.0-186.0","CAN_150","150","","","","","","978","","0","","","","","","","","","","",""
"html-button-response","241","198917","0.0-187.0","CAN_150","150","","","","","","953","","0","red","purple","[""red"",""purple"",""high nameability""]","right-left","[""purple"",""red""]","6","high nameability","51","right","trigger",""
"html-button-response","242","199485","0.0-188.0-0.0","CAN_150","150","","","","","","562","<button class=""jspsych-btn""><img src=""stimuli/red.png"" style=""width: 200px;height: 200px;""></button>","1","red","purple","[""red"",""purple"",""high nameability""]","right-left","[""purple"",""red""]","6","high nameability","51","right","response","1"
"html-audio-button-response","243","199692","0.0-188.0-1.0","CAN_150","150","","","","","","null","stimuli/bleep.m4a","null","red","purple","[""red"",""purple"",""high nameability""]","right-left","[""purple"",""red""]","6","high nameability","51","right","audio_feedback","1"
"html-button-response","244","200210","0.0-189.0","CAN_150","150","","","","","","null","<button class=""jspsych-btn""><img src=""stimuli/white_square.png"" style=""width: 200px;height: 200px;""></button>","null","red","purple","[""red"",""purple"",""high nameability""]","right-left","[""purple"",""red""]","6","high nameability","51","right","iti",""
"html-button-response","245","200841","0.0-190.0","CAN_150","150","","","","","","608","","0","pink","turquoise","[""pink"",""turquoise"",""low nameability""]","right-left","[""turquoise"",""pink""]","6","low nameability","52","right","trigger",""
"html-button-response","246","201486","0.0-191.0-0.0","CAN_150","150","","","","","","636","<button class=""jspsych-btn""><img src=""stimuli/pink.png"" style=""width: 200px;height: 200px;""></button>","1","pink","turquoise","[""pink"",""turquoise"",""low nameability""]","right-left","[""turquoise"",""pink""]","6","low nameability","52","right","response","1"
"html-audio-button-response","247","201691","0.0-191.0-1.0","CAN_150","150","","","","","","null","stimuli/bleep.m4a","null","pink","turquoise","[""pink"",""turquoise"",""low nameability""]","right-left","[""turquoise"",""pink""]","6","low nameability","52","right","audio_feedback","1"
"html-button-response","248","202208","0.0-192.0","CAN_150","150","","","","","","null","<button class=""jspsych-btn""><img src=""stimuli/white_square.png"" style=""width: 200px;height: 200px;""></button>","null","pink","turquoise","[""pink"",""turquoise"",""low nameability""]","right-left","[""turquoise"",""pink""]","6","low nameability","52","right","iti",""
"html-button-response","249","202790","0.0-193.0","CAN_150","150","","","","","","558","","0","blue","brown","[""blue"",""brown"",""high nameability""]","left-right","[""blue"",""brown"",""high nameability""]","6","high nameability","53","left","trigger",""
"html-button-response","250","203476","0.0-194.0-0.0","CAN_150","150","","","","","","678","<button class=""jspsych-btn""><img src=""stimuli/blue.png"" style=""width: 200px;height: 200px;""></button>","0","blue","brown","[""blue"",""brown"",""high nameability""]","left-right","[""blue"",""brown"",""high nameability""]","6","high nameability","53","left","response","1"
"html-audio-button-response","251","203683","0.0-194.0-1.0","CAN_150","150","","","","","","null","stimuli/bleep.m4a","null","blue","brown","[""blue"",""brown"",""high nameability""]","left-right","[""blue"",""brown"",""high nameability""]","6","high nameability","53","left","audio_feedback","1"
"html-button-response","252","204203","0.0-195.0","CAN_150","150","","","","","","null","<button class=""jspsych-btn""><img src=""stimuli/white_square.png"" style=""width: 200px;height: 200px;""></button>","null","blue","brown","[""blue"",""brown"",""high nameability""]","left-right","[""blue"",""brown"",""high nameability""]","6","high nameability","53","left","iti",""
"html-button-response","253","204734","0.0-196.0","CAN_150","150","","","","","","514","","0","orange","yellow","[""orange"",""yellow"",""high nameability""]","left-right","[""orange"",""yellow"",""high nameability""]","6","high nameability","54","left","trigger",""
"html-button-response","254","205447","0.0-197.0-0.0","CAN_150","150","","","","","","705","<button class=""jspsych-btn""><img src=""stimuli/orange.png"" style=""width: 200px;height: 200px;""></button>","0","orange","yellow","[""orange"",""yellow"",""high nameability""]","left-right","[""orange"",""yellow"",""high nameability""]","6","high nameability","54","left","response","1"
"html-audio-button-response","255","205652","0.0-197.0-1.0","CAN_150","150","","","","","","null","stimuli/bleep.m4a","null","orange","yellow","[""orange"",""yellow"",""high nameability""]","left-right","[""orange"",""yellow"",""high nameability""]","6","high nameability","54","left","audio_feedback","1"
"html-button-response","256","206171","0.0-198.0","CAN_150","150","","","","","","null","<button class=""jspsych-btn""><img src=""stimuli/white_square.png"" style=""width: 200px;height: 200px;""></button>","null","orange","yellow","[""orange"",""yellow"",""high nameability""]","left-right","[""orange"",""yellow"",""high nameability""]","6","high nameability","54","left","iti",""
"html-button-response","257","206807","0.0-199.0","CAN_150","150","","","","","","618","","0","orange","brown","[""orange"",""brown"",""high nameability""]","right-left","[""brown"",""orange""]","6","high nameability","55","right","trigger",""
"html-button-response","258","207420","0.0-200.0-0.0","CAN_150","150","","","","","","599","<button class=""jspsych-btn""><img src=""stimuli/orange.png"" style=""width: 200px;height: 200px;""></button>","1","orange","brown","[""orange"",""brown"",""high nameability""]","right-left","[""brown"",""orange""]","6","high nameability","55","right","response","1"
"html-audio-button-response","259","207631","0.0-200.0-1.0","CAN_150","150","","","","","","null","stimuli/bleep.m4a","null","orange","brown","[""orange"",""brown"",""high nameability""]","right-left","[""brown"",""orange""]","6","high nameability","55","right","audio_feedback","1"
"html-button-response","260","208149","0.0-201.0","CAN_150","150","","","","","","null","<button class=""jspsych-btn""><img src=""stimuli/white_square.png"" style=""width: 200px;height: 200px;""></button>","null","orange","brown","[""orange"",""brown"",""high nameability""]","right-left","[""brown"",""orange""]","6","high nameability","55","right","iti",""
"html-button-response","261","208904","0.0-202.0","CAN_150","150","","","","","","736","","0","yellow","red","[""yellow"",""red"",""high nameability""]","right-left","[""red"",""yellow""]","6","high nameability","56","right","trigger",""
"html-button-response","262","209512","0.0-203.0-0.0","CAN_150","150","","","","","","597","<button class=""jspsych-btn""><img src=""stimuli/yellow.png"" style=""width: 200px;height: 200px;""></button>","1","yellow","red","[""yellow"",""red"",""high nameability""]","right-left","[""red"",""yellow""]","6","high nameability","56","right","response","1"
"html-audio-button-response","263","209715","0.0-203.0-1.0","CAN_150","150","","","","","","null","stimuli/bleep.m4a","null","yellow","red","[""yellow"",""red"",""high nameability""]","right-left","[""red"",""yellow""]","6","high nameability","56","right","audio_feedback","1"
"html-button-response","264","210237","0.0-204.0","CAN_150","150","","","","","","null","<button class=""jspsych-btn""><img src=""stimuli/white_square.png"" style=""width: 200px;height: 200px;""></button>","null","yellow","red","[""yellow"",""red"",""high nameability""]","right-left","[""red"",""yellow""]","6","high nameability","56","right","iti",""
"html-button-response","265","210831","0.0-205.0","CAN_150","150","","","","","","579","","0","lightred","mustard","[""lightred"",""mustard"",""low nameability""]","left-right","[""lightred"",""mustard"",""low nameability""]","6","low nameability","57","left","trigger",""
"html-button-response","266","211534","0.0-206.0-0.0","CAN_150","150","","","","","","692","<button class=""jspsych-btn""><img src=""stimuli/lightred.png"" style=""width: 200px;height: 200px;""></button>","0","lightred","mustard","[""lightred"",""mustard"",""low nameability""]","left-right","[""lightred"",""mustard"",""low nameability""]","6","low nameability","57","left","response","1"
"html-audio-button-response","267","211739","0.0-206.0-1.0","CAN_150","150","","","","","","null","stimuli/bleep.m4a","null","lightred","mustard","[""lightred"",""mustard"",""low nameability""]","left-right","[""lightred"",""mustard"",""low nameability""]","6","low nameability","57","left","audio_feedback","1"
"html-button-response","268","212258","0.0-207.0","CAN_150","150","","","","","","null","<button class=""jspsych-btn""><img src=""stimuli/white_square.png"" style=""width: 200px;height: 200px;""></button>","null","lightred","mustard","[""lightred"",""mustard"",""low nameability""]","left-right","[""lightred"",""mustard"",""low nameability""]","6","low nameability","57","left","iti",""
"html-button-response","269","212852","0.0-208.0","CAN_150","150","","","","","","572","","0","blue","purple","[""blue"",""purple"",""high nameability""]","left-right","[""blue"",""purple"",""high nameability""]","6","high nameability","58","left","trigger",""
"html-button-response","270","213558","0.0-209.0-0.0","CAN_150","150","","","","","","696","<button class=""jspsych-btn""><img src=""stimuli/blue.png"" style=""width: 200px;height: 200px;""></button>","0","blue","purple","[""blue"",""purple"",""high nameability""]","left-right","[""blue"",""purple"",""high nameability""]","6","high nameability","58","left","response","1"
"html-audio-button-response","271","213777","0.0-209.0-1.0","CAN_150","150","","","","","","null","stimuli/bleep.m4a","null","blue","purple","[""blue"",""purple"",""high nameability""]","left-right","[""blue"",""purple"",""high nameability""]","6","high nameability","58","left","audio_feedback","1"
"html-button-response","272","214313","0.0-210.0","CAN_150","150","","","","","","null","<button class=""jspsych-btn""><img src=""stimuli/white_square.png"" style=""width: 200px;height: 200px;""></button>","null","blue","purple","[""blue"",""purple"",""high nameability""]","left-right","[""blue"",""purple"",""high nameability""]","6","high nameability","58","left","iti",""
"html-button-response","273","214870","0.0-211.0","CAN_150","150","","","","","","529","","0","darkgreenblue","pink","[""darkgreenblue"",""pink"",""low nameability""]","right-left","[""pink"",""darkgreenblue""]","6","low nameability","59","right","trigger",""
"html-button-response","274","215518","0.0-212.0-0.0","CAN_150","150","","","","","","635","<button class=""jspsych-btn""><img src=""stimuli/darkgreenblue.png"" style=""width: 200px;height: 200px;""></button>","1","darkgreenblue","pink","[""darkgreenblue"",""pink"",""low nameability""]","right-left","[""pink"",""darkgreenblue""]","6","low nameability","59","right","response","1"
"html-audio-button-response","275","215732","0.0-212.0-1.0","CAN_150","150","","","","","","null","stimuli/bleep.m4a","null","darkgreenblue","pink","[""darkgreenblue"",""pink"",""low nameability""]","right-left","[""pink"",""darkgreenblue""]","6","low nameability","59","right","audio_feedback","1"
"html-button-response","276","216256","0.0-213.0","CAN_150","150","","","","","","null","<button class=""jspsych-btn""><img src=""stimuli/white_square.png"" style=""width: 200px;height: 200px;""></button>","null","darkgreenblue","pink","[""darkgreenblue"",""pink"",""low nameability""]","right-left","[""pink"",""darkgreenblue""]","6","low nameability","59","right","iti",""
"html-button-response","277","216746","0.0-214.0","CAN_150","150","","","","","","467","","0","brown","purple","[""brown"",""purple"",""high nameability""]","left-right","[""brown"",""purple"",""high nameability""]","6","high nameability","60","left","trigger",""
"html-button-response","278","217518","0.0-215.0-0.0","CAN_150","150","","","","","","760","<button class=""jspsych-btn""><img src=""stimuli/brown.png"" style=""width: 200px;height: 200px;""></button>","0","brown","purple","[""brown"",""purple"",""high nameability""]","left-right","[""brown"",""purple"",""high nameability""]","6","high nameability","60","left","response","1"
"html-audio-button-response","279","217739","0.0-215.0-1.0","CAN_150","150","","","","","","null","stimuli/bleep.m4a","null","brown","purple","[""brown"",""purple"",""high nameability""]","left-right","[""brown"",""purple"",""high nameability""]","6","high nameability","60","left","audio_feedback","1"
"html-button-response","280","218268","0.0-216.0","CAN_150","150","","","","","","null","<button class=""jspsych-btn""><img src=""stimuli/white_square.png"" style=""width: 200px;height: 200px;""></button>","null","brown","purple","[""brown"",""purple"",""high nameability""]","left-right","[""brown"",""purple"",""high nameability""]","6","high nameability","60","left","iti",""
