"trial_type","trial_index","time_elapsed","internal_node_id","subject_id","seed","success","timeout","failed_images","failed_audio","failed_video","rt","stimulus","response","target","foil","choices","combination_order","choices_in_order","round","condition","trial_counter","target_location","trial_kind","correct"
"pavlovia","0","21","0.0-0.0","CAN_103","103","","","","","","","","","","","","","","","","","","",""
"preload","1","784","0.0-1.0","CAN_103","103","true","false","[]","[]","[]","","","","","","","","","","","","","",""
"fullscreen","2","1351827","0.0-2.0","CAN_103","103","true","","","","","","","","","","","","","","","","","",""
"html-button-response","3","1380659","0.0-3.0","CAN_103","103","","","","","","28820","","0","","","","","","","","","","",""
"html-button-response","4","1384573","0.0-4.0","CAN_103","103","","","","","","3900","","0","star","square","[""square"",""star""]","left-right","[""square"",""star""]","1","practice","1","right","trigger",""
"html-button-response","5","1391452","0.0-5.0-0.0","CAN_103","103","","","","","","6859","<button class=""jspsych-btn""><img src=""stimuli/star.png"" style=""width: 200px;height: 200px;""></button>","1","star","square","[""square"",""star""]","left-right","[""square"",""star""]","1","practice","1","right","response","1"
"html-audio-button-response","6","1391666","0.0-5.0-1.0","CAN_103","103","","","","","","null","stimuli/bleep.m4a","null","star","square","[""square"",""star""]","left-right","[""square"",""star""]","1","practice","1","right","audio_feedback","1"
"html-button-response","7","1392188","0.0-6.0","CAN_103","103","","","","","","null","<button class=""jspsych-btn""><img src=""stimuli/white_square.png"" style=""width: 200px;height: 200px;""></button>","null","star","square","[""square"",""star""]","left-right","[""square"",""star""]","1","practice","1","right","iti",""
"html-button-response","8","1394806","0.0-7.0","CAN_103","103","","","","","","2598","","0","triangle","pentagram","[""triangle"",""pentagram""]","left-right","[""triangle"",""pentagram""]","1","practice","1","left","trigger",""
"html-button-response","9","1396056","0.0-8.0-0.0","CAN_103","103","","","","","","1237","<button class=""jspsych-btn""><img src=""stimuli/triangle.png"" style=""width: 200px;height: 200px;""></button>","0","triangle","pentagram","[""triangle"",""pentagram""]","left-right","[""triangle"",""pentagram""]","1","practice","1","left","response","1"
"html-audio-button-response","10","1396271","0.0-8.0-1.0","CAN_103","103","","","","","","null","stimuli/bleep.m4a","null","triangle","pentagram","[""triangle"",""pentagram""]","left-right","[""triangle"",""pentagram""]","1","practice","1","left","audio_feedback","1"
"html-button-response","11","1396794","0.0-9.0","CAN_103","103","","","","","","null","<button class=""jspsych-btn""><img src=""stimuli/white_square.png"" style=""width: 200px;height: 200px;""></button>","null","triangle","pentagram","[""triangle"",""pentagram""]","left-right","[""triangle"",""pentagram""]","1","practice","1","left","iti",""
"html-button-response","12","1397861","0.0-10.0","CAN_103","103","","","","","","1041","","0","diamond","rectangle","[""rectangle"",""diamond""]","left-right","[""rectangle"",""diamond""]","1","practice","1","right","trigger",""
"html-button-response","13","1399019","0.0-11.0-0.0","CAN_103","103","","","","","","1145","<button class=""jspsych-btn""><img src=""stimuli/diamond.png"" style=""width: 200px;height: 200px;""></button>","1","diamond","rectangle","[""rectangle"",""diamond""]","left-right","[""rectangle"",""diamond""]","1","practice","1","right","response","1"
"html-audio-button-response","14","1399228","0.0-11.0-1.0","CAN_103","103","","","","","","null","stimuli/bleep.m4a","null","diamond","rectangle","[""rectangle"",""diamond""]","left-right","[""rectangle"",""diamond""]","1","practice","1","right","audio_feedback","1"
"html-button-response","15","1399746","0.0-12.0","CAN_103","103","","","","","","null","<button class=""jspsych-btn""><img src=""stimuli/white_square.png"" style=""width: 200px;height: 200px;""></button>","null","diamond","rectangle","[""rectangle"",""diamond""]","left-right","[""rectangle"",""diamond""]","1","practice","1","right","iti",""
"html-button-response","16","1401389","0.0-13.0","CAN_103","103","","","","","","1624","","0","pentagram","star","[""pentagram"",""star""]","left-right","[""pentagram"",""star""]","1","practice","1","left","trigger",""
"html-button-response","17","1402252","0.0-14.0-0.0","CAN_103","103","","","","","","850","<button class=""jspsych-btn""><img src=""stimuli/pentagram.png"" style=""width: 200px;height: 200px;""></button>","0","pentagram","star","[""pentagram"",""star""]","left-right","[""pentagram"",""star""]","1","practice","1","left","response","1"
"html-audio-button-response","18","1402467","0.0-14.0-1.0","CAN_103","103","","","","","","null","stimuli/bleep.m4a","null","pentagram","star","[""pentagram"",""star""]","left-right","[""pentagram"",""star""]","1","practice","1","left","audio_feedback","1"
"html-button-response","19","1402987","0.0-15.0","CAN_103","103","","","","","","null","<button class=""jspsych-btn""><img src=""stimuli/white_square.png"" style=""width: 200px;height: 200px;""></button>","null","pentagram","star","[""pentagram"",""star""]","left-right","[""pentagram"",""star""]","1","practice","1","left","iti",""
"html-button-response","20","1417818","0.0-16.0","CAN_103","103","","","","","","14811","","0","","","","","","","","","","",""
"html-button-response","21","1418972","0.0-17.0","CAN_103","103","","","","","","1140","","0","yellow","blue","[""yellow"",""blue"",""high nameability""]","left-right","[""yellow"",""blue"",""high nameability""]","1","high nameability","1","left","trigger",""
"html-button-response","22","1419828","0.0-18.0-0.0","CAN_103","103","","","","","","845","<button class=""jspsych-btn""><img src=""stimuli/yellow.png"" style=""width: 200px;height: 200px;""></button>","0","yellow","blue","[""yellow"",""blue"",""high nameability""]","left-right","[""yellow"",""blue"",""high nameability""]","1","high nameability","1","left","response","1"
"html-audio-button-response","23","1420034","0.0-18.0-1.0","CAN_103","103","","","","","","null","stimuli/bleep.m4a","null","yellow","blue","[""yellow"",""blue"",""high nameability""]","left-right","[""yellow"",""blue"",""high nameability""]","1","high nameability","1","left","audio_feedback","1"
"html-button-response","24","1420560","0.0-19.0","CAN_103","103","","","","","","null","<button class=""jspsych-btn""><img src=""stimuli/white_square.png"" style=""width: 200px;height: 200px;""></button>","null","yellow","blue","[""yellow"",""blue"",""high nameability""]","left-right","[""yellow"",""blue"",""high nameability""]","1","high nameability","1","left","iti",""
"html-button-response","25","1421086","0.0-20.0","CAN_103","103","","","","","","507","","0","yellow","brown","[""yellow"",""brown"",""high nameability""]","right-left","[""brown"",""yellow""]","1","high nameability","2","right","trigger",""
"html-button-response","26","1421880","0.0-21.0-0.0","CAN_103","103","","","","","","786","<button class=""jspsych-btn""><img src=""stimuli/yellow.png"" style=""width: 200px;height: 200px;""></button>","1","yellow","brown","[""yellow"",""brown"",""high nameability""]","right-left","[""brown"",""yellow""]","1","high nameability","2","right","response","1"
"html-audio-button-response","27","1422092","0.0-21.0-1.0","CAN_103","103","","","","","","null","stimuli/bleep.m4a","null","yellow","brown","[""yellow"",""brown"",""high nameability""]","right-left","[""brown"",""yellow""]","1","high nameability","2","right","audio_feedback","1"
"html-button-response","28","1422614","0.0-22.0","CAN_103","103","","","","","","null","<button class=""jspsych-btn""><img src=""stimuli/white_square.png"" style=""width: 200px;height: 200px;""></button>","null","yellow","brown","[""yellow"",""brown"",""high nameability""]","right-left","[""brown"",""yellow""]","1","high nameability","2","right","iti",""
"html-button-response","29","1422879","0.0-23.0","CAN_103","103","","","","","","248","","0","darkgreenblue","pink","[""darkgreenblue"",""pink"",""low nameability""]","left-right","[""darkgreenblue"",""pink"",""low nameability""]","1","low nameability","3","left","trigger",""
"html-button-response","30","1423705","0.0-24.0-0.0","CAN_103","103","","","","","","818","<button class=""jspsych-btn""><img src=""stimuli/darkgreenblue.png"" style=""width: 200px;height: 200px;""></button>","0","darkgreenblue","pink","[""darkgreenblue"",""pink"",""low nameability""]","left-right","[""darkgreenblue"",""pink"",""low nameability""]","1","low nameability","3","left","response","1"
"html-audio-button-response","31","1423913","0.0-24.0-1.0","CAN_103","103","","","","","","null","stimuli/bleep.m4a","null","darkgreenblue","pink","[""darkgreenblue"",""pink"",""low nameability""]","left-right","[""darkgreenblue"",""pink"",""low nameability""]","1","low nameability","3","left","audio_feedback","1"
"html-button-response","32","1424438","0.0-25.0","CAN_103","103","","","","","","null","<button class=""jspsych-btn""><img src=""stimuli/white_square.png"" style=""width: 200px;height: 200px;""></button>","null","darkgreenblue","pink","[""darkgreenblue"",""pink"",""low nameability""]","left-right","[""darkgreenblue"",""pink"",""low nameability""]","1","low nameability","3","left","iti",""
"html-button-response","33","1424999","0.0-26.0","CAN_103","103","","","","","","537","","0","darkgreenblue","neonyellow","[""darkgreenblue"",""neonyellow"",""low nameability""]","left-right","[""darkgreenblue"",""neonyellow"",""low nameability""]","1","low nameability","4","left","trigger",""
"html-button-response","34","1425815","0.0-27.0-0.0","CAN_103","103","","","","","","806","<button class=""jspsych-btn""><img src=""stimuli/darkgreenblue.png"" style=""width: 200px;height: 200px;""></button>","0","darkgreenblue","neonyellow","[""darkgreenblue"",""neonyellow"",""low nameability""]","left-right","[""darkgreenblue"",""neonyellow"",""low nameability""]","1","low nameability","4","left","response","1"
"html-audio-button-response","35","1426019","0.0-27.0-1.0","CAN_103","103","","","","","","null","stimuli/bleep.m4a","null","darkgreenblue","neonyellow","[""darkgreenblue"",""neonyellow"",""low nameability""]","left-right","[""darkgreenblue"",""neonyellow"",""low nameability""]","1","low nameability","4","left","audio_feedback","1"
"html-button-response","36","1426543","0.0-28.0","CAN_103","103","","","","","","null","<button class=""jspsych-btn""><img src=""stimuli/white_square.png"" style=""width: 200px;height: 200px;""></button>","null","darkgreenblue","neonyellow","[""darkgreenblue"",""neonyellow"",""low nameability""]","left-right","[""darkgreenblue"",""neonyellow"",""low nameability""]","1","low nameability","4","left","iti",""
"html-button-response","37","1428074","0.0-29.0","CAN_103","103","","","","","","1512","","0","blue","red","[""blue"",""red"",""high nameability""]","right-left","[""red"",""blue""]","1","high nameability","5","right","trigger",""
"html-button-response","38","1428797","0.0-30.0-0.0","CAN_103","103","","","","","","714","<button class=""jspsych-btn""><img src=""stimuli/blue.png"" style=""width: 200px;height: 200px;""></button>","1","blue","red","[""blue"",""red"",""high nameability""]","right-left","[""red"",""blue""]","1","high nameability","5","right","response","1"
"html-audio-button-response","39","1429003","0.0-30.0-1.0","CAN_103","103","","","","","","null","stimuli/bleep.m4a","null","blue","red","[""blue"",""red"",""high nameability""]","right-left","[""red"",""blue""]","1","high nameability","5","right","audio_feedback","1"
"html-button-response","40","1429526","0.0-31.0","CAN_103","103","","","","","","null","<button class=""jspsych-btn""><img src=""stimuli/white_square.png"" style=""width: 200px;height: 200px;""></button>","null","blue","red","[""blue"",""red"",""high nameability""]","right-left","[""red"",""blue""]","1","high nameability","5","right","iti",""
"html-button-response","41","1430172","0.0-32.0","CAN_103","103","","","","","","629","","0","red","purple","[""red"",""purple"",""high nameability""]","right-left","[""purple"",""red""]","1","high nameability","6","right","trigger",""
"html-button-response","42","1430887","0.0-33.0-0.0","CAN_103","103","","","","","","708","<button class=""jspsych-btn""><img src=""stimuli/red.png"" style=""width: 200px;height: 200px;""></button>","1","red","purple","[""red"",""purple"",""high nameability""]","right-left","[""purple"",""red""]","1","high nameability","6","right","response","1"
"html-audio-button-response","43","1431090","0.0-33.0-1.0","CAN_103","103","","","","","","null","stimuli/bleep.m4a","null","red","purple","[""red"",""purple"",""high nameability""]","right-left","[""purple"",""red""]","1","high nameability","6","right","audio_feedback","1"
"html-button-response","44","1431612","0.0-34.0","CAN_103","103","","","","","","null","<button class=""jspsych-btn""><img src=""stimuli/white_square.png"" style=""width: 200px;height: 200px;""></button>","null","red","purple","[""red"",""purple"",""high nameability""]","right-left","[""purple"",""red""]","1","high nameability","6","right","iti",""
"html-button-response","45","1432140","0.0-35.0","CAN_103","103","","","","","","508","","0","pink","mustard","[""pink"",""mustard"",""low nameability""]","right-left","[""mustard"",""pink""]","1","low nameability","7","right","trigger",""
"html-button-response","46","1432875","0.0-36.0-0.0","CAN_103","103","","","","","","728","<button class=""jspsych-btn""><img src=""stimuli/pink.png"" style=""width: 200px;height: 200px;""></button>","1","pink","mustard","[""pink"",""mustard"",""low nameability""]","right-left","[""mustard"",""pink""]","1","low nameability","7","right","response","1"
"html-audio-button-response","47","1433083","0.0-36.0-1.0","CAN_103","103","","","","","","null","stimuli/bleep.m4a","null","pink","mustard","[""pink"",""mustard"",""low nameability""]","right-left","[""mustard"",""pink""]","1","low nameability","7","right","audio_feedback","1"
"html-button-response","48","1433607","0.0-37.0","CAN_103","103","","","","","","null","<button class=""jspsych-btn""><img src=""stimuli/white_square.png"" style=""width: 200px;height: 200px;""></button>","null","pink","mustard","[""pink"",""mustard"",""low nameability""]","right-left","[""mustard"",""pink""]","1","low nameability","7","right","iti",""
"html-button-response","49","1434203","0.0-38.0","CAN_103","103","","","","","","578","","0","red","brown","[""red"",""brown"",""high nameability""]","left-right","[""red"",""brown"",""high nameability""]","1","high nameability","8","left","trigger",""
"html-button-response","50","1434883","0.0-39.0-0.0","CAN_103","103","","","","","","671","<button class=""jspsych-btn""><img src=""stimuli/red.png"" style=""width: 200px;height: 200px;""></button>","0","red","brown","[""red"",""brown"",""high nameability""]","left-right","[""red"",""brown"",""high nameability""]","1","high nameability","8","left","response","1"
"html-audio-button-response","51","1435092","0.0-39.0-1.0","CAN_103","103","","","","","","null","stimuli/bleep.m4a","null","red","brown","[""red"",""brown"",""high nameability""]","left-right","[""red"",""brown"",""high nameability""]","1","high nameability","8","left","audio_feedback","1"
"html-button-response","52","1435615","0.0-40.0","CAN_103","103","","","","","","null","<button class=""jspsych-btn""><img src=""stimuli/white_square.png"" style=""width: 200px;height: 200px;""></button>","null","red","brown","[""red"",""brown"",""high nameability""]","left-right","[""red"",""brown"",""high nameability""]","1","high nameability","8","left","iti",""
"html-button-response","53","1436178","0.0-41.0","CAN_103","103","","","","","","541","","0","red","yellow","[""red"",""yellow"",""high nameability""]","left-right","[""red"",""yellow"",""high nameability""]","1","high nameability","9","left","trigger",""
"html-button-response","54","1436801","0.0-42.0-0.0","CAN_103","103","","","","","","616","<button class=""jspsych-btn""><img src=""stimuli/red.png"" style=""width: 200px;height: 200px;""></button>","0","red","yellow","[""red"",""yellow"",""high nameability""]","left-right","[""red"",""yellow"",""high nameability""]","1","high nameability","9","left","response","1"
"html-audio-button-response","55","1437006","0.0-42.0-1.0","CAN_103","103","","","","","","null","stimuli/bleep.m4a","null","red","yellow","[""red"",""yellow"",""high nameability""]","left-right","[""red"",""yellow"",""high nameability""]","1","high nameability","9","left","audio_feedback","1"
"html-button-response","56","1437525","0.0-43.0","CAN_103","103","","","","","","null","<button class=""jspsych-btn""><img src=""stimuli/white_square.png"" style=""width: 200px;height: 200px;""></button>","null","red","yellow","[""red"",""yellow"",""high nameability""]","left-right","[""red"",""yellow"",""high nameability""]","1","high nameability","9","left","iti",""
"html-button-response","57","1438014","0.0-44.0","CAN_103","103","","","","","","472","","0","brown","blue","[""brown"",""blue"",""high nameability""]","right-left","[""blue"",""brown""]","1","high nameability","10","right","trigger",""
"html-button-response","58","1438803","0.0-45.0-0.0","CAN_103","103","","","","","","782","<button class=""jspsych-btn""><img src=""stimuli/brown.png"" style=""width: 200px;height: 200px;""></button>","1","brown","blue","[""brown"",""blue"",""high nameability""]","right-left","[""blue"",""brown""]","1","high nameability","10","right","response","1"
"html-audio-button-response","59","1439005","0.0-45.0-1.0","CAN_103","103","","","","","","null","stimuli/bleep.m4a","null","brown","blue","[""brown"",""blue"",""high nameability""]","right-left","[""blue"",""brown""]","1","high nameability","10","right","audio_feedback","1"
"html-button-response","60","1439521","0.0-46.0","CAN_103","103","","","","","","null","<button class=""jspsych-btn""><img src=""stimuli/white_square.png"" style=""width: 200px;height: 200px;""></button>","null","brown","blue","[""brown"",""blue"",""high nameability""]","right-left","[""blue"",""brown""]","1","high nameability","10","right","iti",""
"pavlovia","61","1439636","0.0-47.0","CAN_103","103","","","","","","","","","","","","","","","","","","",""
"pavlovia","62","1439651","0.0-48.0","CAN_103","103","","","","","","","","","","","","","","","","","","",""
"html-audio-button-response","63","1442573","0.0-49.0","CAN_103","103","","","","","","3051","stimuli/tada.m4a","0","","","","","","","","","","",""
"html-button-response","64","1443898","0.0-50.0","CAN_103","103","","","","","","1318","","0","","","","","","","","","","",""
"html-button-response","65","1445139","0.0-51.0","CAN_103","103","","","","","","1234","","0","orange","blue","[""orange"",""blue"",""high nameability""]","right-left","[""blue"",""orange""]","2","high nameability","11","right","trigger",""
"html-button-response","66","1445737","0.0-52.0-0.0","CAN_103","103","","","","","","590","<button class=""jspsych-btn""><img src=""stimuli/orange.png"" style=""width: 200px;height: 200px;""></button>","1","orange","blue","[""orange"",""blue"",""high nameability""]","right-left","[""blue"",""orange""]","2","high nameability","11","right","response","1"
"html-audio-button-response","67","1445942","0.0-52.0-1.0","CAN_103","103","","","","","","null","stimuli/bleep.m4a","null","orange","blue","[""orange"",""blue"",""high nameability""]","right-left","[""blue"",""orange""]","2","high nameability","11","right","audio_feedback","1"
"html-button-response","68","1446460","0.0-53.0","CAN_103","103","","","","","","null","<button class=""jspsych-btn""><img src=""stimuli/white_square.png"" style=""width: 200px;height: 200px;""></button>","null","orange","blue","[""orange"",""blue"",""high nameability""]","right-left","[""blue"",""orange""]","2","high nameability","11","right","iti",""
"html-button-response","69","1446974","0.0-54.0","CAN_103","103","","","","","","491","","0","yellow","orange","[""yellow"",""orange"",""high nameability""]","left-right","[""yellow"",""orange"",""high nameability""]","2","high nameability","12","left","trigger",""
"html-button-response","70","1447586","0.0-55.0-0.0","CAN_103","103","","","","","","602","<button class=""jspsych-btn""><img src=""stimuli/yellow.png"" style=""width: 200px;height: 200px;""></button>","0","yellow","orange","[""yellow"",""orange"",""high nameability""]","left-right","[""yellow"",""orange"",""high nameability""]","2","high nameability","12","left","response","1"
"html-audio-button-response","71","1447793","0.0-55.0-1.0","CAN_103","103","","","","","","null","stimuli/bleep.m4a","null","yellow","orange","[""yellow"",""orange"",""high nameability""]","left-right","[""yellow"",""orange"",""high nameability""]","2","high nameability","12","left","audio_feedback","1"
"html-button-response","72","1448313","0.0-56.0","CAN_103","103","","","","","","null","<button class=""jspsych-btn""><img src=""stimuli/white_square.png"" style=""width: 200px;height: 200px;""></button>","null","yellow","orange","[""yellow"",""orange"",""high nameability""]","left-right","[""yellow"",""orange"",""high nameability""]","2","high nameability","12","left","iti",""
"html-button-response","73","1448763","0.0-57.0","CAN_103","103","","","","","","430","","0","neonyellow","darkgreenblue","[""neonyellow"",""darkgreenblue"",""low nameability""]","left-right","[""neonyellow"",""darkgreenblue"",""low nameability""]","2","low nameability","13","left","trigger",""
"html-button-response","74","1449402","0.0-58.0-0.0","CAN_103","103","","","","","","634","<button class=""jspsych-btn""><img src=""stimuli/neonyellow.png"" style=""width: 200px;height: 200px;""></button>","0","neonyellow","darkgreenblue","[""neonyellow"",""darkgreenblue"",""low nameability""]","left-right","[""neonyellow"",""darkgreenblue"",""low nameability""]","2","low nameability","13","left","response","1"
"html-audio-button-response","75","1449606","0.0-58.0-1.0","CAN_103","103","","","","","","null","stimuli/bleep.m4a","null","neonyellow","darkgreenblue","[""neonyellow"",""darkgreenblue"",""low nameability""]","left-right","[""neonyellow"",""darkgreenblue"",""low nameability""]","2","low nameability","13","left","audio_feedback","1"
"html-button-response","76","1450126","0.0-59.0","CAN_103","103","","","","","","null","<button class=""jspsych-btn""><img src=""stimuli/white_square.png"" style=""width: 200px;height: 200px;""></button>","null","neonyellow","darkgreenblue","[""neonyellow"",""darkgreenblue"",""low nameability""]","left-right","[""neonyellow"",""darkgreenblue"",""low nameability""]","2","low nameability","13","left","iti",""
"html-button-response","77","1450616","0.0-60.0","CAN_103","103","","","","","","472","","0","turquoise","pink","[""turquoise"",""pink"",""low nameability""]","right-left","[""pink"",""turquoise""]","2","low nameability","14","right","trigger",""
"html-button-response","78","1451158","0.0-61.0-0.0","CAN_103","103","","","","","","535","<button class=""jspsych-btn""><img src=""stimuli/turquoise.png"" style=""width: 200px;height: 200px;""></button>","1","turquoise","pink","[""turquoise"",""pink"",""low nameability""]","right-left","[""pink"",""turquoise""]","2","low nameability","14","right","response","1"
"html-audio-button-response","79","1451363","0.0-61.0-1.0","CAN_103","103","","","","","","null","stimuli/bleep.m4a","null","turquoise","pink","[""turquoise"",""pink"",""low nameability""]","right-left","[""pink"",""turquoise""]","2","low nameability","14","right","audio_feedback","1"
"html-button-response","80","1451890","0.0-62.0","CAN_103","103","","","","","","null","<button class=""jspsych-btn""><img src=""stimuli/white_square.png"" style=""width: 200px;height: 200px;""></button>","null","turquoise","pink","[""turquoise"",""pink"",""low nameability""]","right-left","[""pink"",""turquoise""]","2","low nameability","14","right","iti",""
"html-button-response","81","1452360","0.0-63.0","CAN_103","103","","","","","","448","","0","neonyellow","turquoise","[""neonyellow"",""turquoise"",""low nameability""]","right-left","[""turquoise"",""neonyellow""]","2","low nameability","15","right","trigger",""
"html-button-response","82","1453010","0.0-64.0-0.0","CAN_103","103","","","","","","643","<button class=""jspsych-btn""><img src=""stimuli/neonyellow.png"" style=""width: 200px;height: 200px;""></button>","1","neonyellow","turquoise","[""neonyellow"",""turquoise"",""low nameability""]","right-left","[""turquoise"",""neonyellow""]","2","low nameability","15","right","response","1"
"html-audio-button-response","83","1453213","0.0-64.0-1.0","CAN_103","103","","","","","","null","stimuli/bleep.m4a","null","neonyellow","turquoise","[""neonyellow"",""turquoise"",""low nameability""]","right-left","[""turquoise"",""neonyellow""]","2","low nameability","15","right","audio_feedback","1"
"html-button-response","84","1453729","0.0-65.0","CAN_103","103","","","","","","null","<button class=""jspsych-btn""><img src=""stimuli/white_square.png"" style=""width: 200px;height: 200px;""></button>","null","neonyellow","turquoise","[""neonyellow"",""turquoise"",""low nameability""]","right-left","[""turquoise"",""neonyellow""]","2","low nameability","15","right","iti",""
"html-button-response","85","1454255","0.0-66.0","CAN_103","103","","","","","","508","","0","darkgreenblue","turquoise","[""darkgreenblue"",""turquoise"",""low nameability""]","right-left","[""turquoise"",""darkgreenblue""]","2","low nameability","16","right","trigger",""
"html-button-response","86","1454850","0.0-67.0-0.0","CAN_103","103","","","","","","588","<button class=""jspsych-btn""><img src=""stimuli/darkgreenblue.png"" style=""width: 200px;height: 200px;""></button>","1","darkgreenblue","turquoise","[""darkgreenblue"",""turquoise"",""low nameability""]","right-left","[""turquoise"",""darkgreenblue""]","2","low nameability","16","right","response","1"
"html-audio-button-response","87","1455056","0.0-67.0-1.0","CAN_103","103","","","","","","null","stimuli/bleep.m4a","null","darkgreenblue","turquoise","[""darkgreenblue"",""turquoise"",""low nameability""]","right-left","[""turquoise"",""darkgreenblue""]","2","low nameability","16","right","audio_feedback","1"
"html-button-response","88","1455574","0.0-68.0","CAN_103","103","","","","","","null","<button class=""jspsych-btn""><img src=""stimuli/white_square.png"" style=""width: 200px;height: 200px;""></button>","null","darkgreenblue","turquoise","[""darkgreenblue"",""turquoise"",""low nameability""]","right-left","[""turquoise"",""darkgreenblue""]","2","low nameability","16","right","iti",""
"html-button-response","89","1456089","0.0-69.0","CAN_103","103","","","","","","501","","0","mustard","darkgreenblue","[""mustard"",""darkgreenblue"",""low nameability""]","right-left","[""darkgreenblue"",""mustard""]","2","low nameability","17","right","trigger",""
"html-button-response","90","1456715","0.0-70.0-0.0","CAN_103","103","","","","","","619","<button class=""jspsych-btn""><img src=""stimuli/mustard.png"" style=""width: 200px;height: 200px;""></button>","1","mustard","darkgreenblue","[""mustard"",""darkgreenblue"",""low nameability""]","right-left","[""darkgreenblue"",""mustard""]","2","low nameability","17","right","response","1"
"html-audio-button-response","91","1456922","0.0-70.0-1.0","CAN_103","103","","","","","","null","stimuli/bleep.m4a","null","mustard","darkgreenblue","[""mustard"",""darkgreenblue"",""low nameability""]","right-left","[""darkgreenblue"",""mustard""]","2","low nameability","17","right","audio_feedback","1"
"html-button-response","92","1457446","0.0-71.0","CAN_103","103","","","","","","null","<button class=""jspsych-btn""><img src=""stimuli/white_square.png"" style=""width: 200px;height: 200px;""></button>","null","mustard","darkgreenblue","[""mustard"",""darkgreenblue"",""low nameability""]","right-left","[""darkgreenblue"",""mustard""]","2","low nameability","17","right","iti",""
"html-button-response","93","1457933","0.0-72.0","CAN_103","103","","","","","","467","","0","orange","purple","[""orange"",""purple"",""high nameability""]","right-left","[""purple"",""orange""]","2","high nameability","18","right","trigger",""
"html-button-response","94","1458604","0.0-73.0-0.0","CAN_103","103","","","","","","665","<button class=""jspsych-btn""><img src=""stimuli/orange.png"" style=""width: 200px;height: 200px;""></button>","1","orange","purple","[""orange"",""purple"",""high nameability""]","right-left","[""purple"",""orange""]","2","high nameability","18","right","response","1"
"html-audio-button-response","95","1458810","0.0-73.0-1.0","CAN_103","103","","","","","","null","stimuli/bleep.m4a","null","orange","purple","[""orange"",""purple"",""high nameability""]","right-left","[""purple"",""orange""]","2","high nameability","18","right","audio_feedback","1"
"html-button-response","96","1459329","0.0-74.0","CAN_103","103","","","","","","null","<button class=""jspsych-btn""><img src=""stimuli/white_square.png"" style=""width: 200px;height: 200px;""></button>","null","orange","purple","[""orange"",""purple"",""high nameability""]","right-left","[""purple"",""orange""]","2","high nameability","18","right","iti",""
"html-button-response","97","1459735","0.0-75.0","CAN_103","103","","","","","","388","","0","purple","yellow","[""purple"",""yellow"",""high nameability""]","left-right","[""purple"",""yellow"",""high nameability""]","2","high nameability","19","left","trigger",""
"html-button-response","98","1460462","0.0-76.0-0.0","CAN_103","103","","","","","","719","<button class=""jspsych-btn""><img src=""stimuli/purple.png"" style=""width: 200px;height: 200px;""></button>","0","purple","yellow","[""purple"",""yellow"",""high nameability""]","left-right","[""purple"",""yellow"",""high nameability""]","2","high nameability","19","left","response","1"
"html-audio-button-response","99","1460667","0.0-76.0-1.0","CAN_103","103","","","","","","null","stimuli/bleep.m4a","null","purple","yellow","[""purple"",""yellow"",""high nameability""]","left-right","[""purple"",""yellow"",""high nameability""]","2","high nameability","19","left","audio_feedback","1"
"html-button-response","100","1461188","0.0-77.0","CAN_103","103","","","","","","null","<button class=""jspsych-btn""><img src=""stimuli/white_square.png"" style=""width: 200px;height: 200px;""></button>","null","purple","yellow","[""purple"",""yellow"",""high nameability""]","left-right","[""purple"",""yellow"",""high nameability""]","2","high nameability","19","left","iti",""
"html-button-response","101","1461612","0.0-78.0","CAN_103","103","","","","","","408","","0","purple","orange","[""purple"",""orange"",""high nameability""]","left-right","[""purple"",""orange"",""high nameability""]","2","high nameability","20","left","trigger",""
"html-button-response","102","1462255","0.0-79.0-0.0","CAN_103","103","","","","","","635","<button class=""jspsych-btn""><img src=""stimuli/purple.png"" style=""width: 200px;height: 200px;""></button>","0","purple","orange","[""purple"",""orange"",""high nameability""]","left-right","[""purple"",""orange"",""high nameability""]","2","high nameability","20","left","response","1"
"html-audio-button-response","103","1462458","0.0-79.0-1.0","CAN_103","103","","","","","","null","stimuli/bleep.m4a","null","purple","orange","[""purple"",""orange"",""high nameability""]","left-right","[""purple"",""orange"",""high nameability""]","2","high nameability","20","left","audio_feedback","1"
"html-button-response","104","1462979","0.0-80.0","CAN_103","103","","","","","","null","<button class=""jspsych-btn""><img src=""stimuli/white_square.png"" style=""width: 200px;height: 200px;""></button>","null","purple","orange","[""purple"",""orange"",""high nameability""]","left-right","[""purple"",""orange"",""high nameability""]","2","high nameability","20","left","iti",""
"pavlovia","105","1463047","0.0-81.0","CAN_103","103","","","","","","","","","","","","","","","","","","",""
"pavlovia","106","1463054","0.0-82.0","CAN_103","103","","","","","","","","","","","","","","","","","","",""
"html-audio-button-response","107","1464900","0.0-83.0","CAN_103","103","","","","","","1923","stimuli/tada.m4a","0","","","","","","","","","","",""
"html-button-response","108","1465818","0.0-84.0","CAN_103","103","","","","","","912","","0","","","","","","","","","","",""
"html-button-response","109","1466555","0.0-85.0","CAN_103","103","","","","","","727","","0","neonyellow","mustard","[""neonyellow"",""mustard"",""low nameability""]","left-right","[""neonyellow"",""mustard"",""low nameability""]","3","low nameability","21","left","trigger",""
"html-button-response","110","1467241","0.0-86.0-0.0","CAN_103","103","","","","","","677","<button class=""jspsych-btn""><img src=""stimuli/neonyellow.png"" style=""width: 200px;height: 200px;""></button>","0","neonyellow","mustard","[""neonyellow"",""mustard"",""low nameability""]","left-right","[""neonyellow"",""mustard"",""low nameability""]","3","low nameability","21","left","response","1"
"html-audio-button-response","111","1467447","0.0-86.0-1.0","CAN_103","103","","","","","","null","stimuli/bleep.m4a","null","neonyellow","mustard","[""neonyellow"",""mustard"",""low nameability""]","left-right","[""neonyellow"",""mustard"",""low nameability""]","3","low nameability","21","left","audio_feedback","1"
"html-button-response","112","1467966","0.0-87.0","CAN_103","103","","","","","","null","<button class=""jspsych-btn""><img src=""stimuli/white_square.png"" style=""width: 200px;height: 200px;""></button>","null","neonyellow","mustard","[""neonyellow"",""mustard"",""low nameability""]","left-right","[""neonyellow"",""mustard"",""low nameability""]","3","low nameability","21","left","iti",""
"html-button-response","113","1468383","0.0-88.0","CAN_103","103","","","","","","405","","0","turquoise","darkgreenblue","[""turquoise"",""darkgreenblue"",""low nameability""]","right-left","[""darkgreenblue"",""turquoise""]","3","low nameability","22","right","trigger",""
"html-button-response","114","1468953","0.0-89.0-0.0","CAN_103","103","","","","","","561","<button class=""jspsych-btn""><img src=""stimuli/turquoise.png"" style=""width: 200px;height: 200px;""></button>","1","turquoise","darkgreenblue","[""turquoise"",""darkgreenblue"",""low nameability""]","right-left","[""darkgreenblue"",""turquoise""]","3","low nameability","22","right","response","1"
"html-audio-button-response","115","1469158","0.0-89.0-1.0","CAN_103","103","","","","","","null","stimuli/bleep.m4a","null","turquoise","darkgreenblue","[""turquoise"",""darkgreenblue"",""low nameability""]","right-left","[""darkgreenblue"",""turquoise""]","3","low nameability","22","right","audio_feedback","1"
"html-button-response","116","1469679","0.0-90.0","CAN_103","103","","","","","","null","<button class=""jspsych-btn""><img src=""stimuli/white_square.png"" style=""width: 200px;height: 200px;""></button>","null","turquoise","darkgreenblue","[""turquoise"",""darkgreenblue"",""low nameability""]","right-left","[""darkgreenblue"",""turquoise""]","3","low nameability","22","right","iti",""
"html-button-response","117","1470151","0.0-91.0","CAN_103","103","","","","","","446","","0","brown","red","[""brown"",""red"",""high nameability""]","right-left","[""red"",""brown""]","3","high nameability","23","right","trigger",""
"html-button-response","118","1470868","0.0-92.0-0.0","CAN_103","103","","","","","","708","<button class=""jspsych-btn""><img src=""stimuli/brown.png"" style=""width: 200px;height: 200px;""></button>","1","brown","red","[""brown"",""red"",""high nameability""]","right-left","[""red"",""brown""]","3","high nameability","23","right","response","1"
"html-audio-button-response","119","1471073","0.0-92.0-1.0","CAN_103","103","","","","","","null","stimuli/bleep.m4a","null","brown","red","[""brown"",""red"",""high nameability""]","right-left","[""red"",""brown""]","3","high nameability","23","right","audio_feedback","1"
"html-button-response","120","1471596","0.0-93.0","CAN_103","103","","","","","","null","<button class=""jspsych-btn""><img src=""stimuli/white_square.png"" style=""width: 200px;height: 200px;""></button>","null","brown","red","[""brown"",""red"",""high nameability""]","right-left","[""red"",""brown""]","3","high nameability","23","right","iti",""
"html-button-response","121","1472089","0.0-94.0","CAN_103","103","","","","","","473","","0","yellow","red","[""yellow"",""red"",""high nameability""]","left-right","[""yellow"",""red"",""high nameability""]","3","high nameability","24","left","trigger",""
"html-button-response","122","1472743","0.0-95.0-0.0","CAN_103","103","","","","","","645","<button class=""jspsych-btn""><img src=""stimuli/yellow.png"" style=""width: 200px;height: 200px;""></button>","0","yellow","red","[""yellow"",""red"",""high nameability""]","left-right","[""yellow"",""red"",""high nameability""]","3","high nameability","24","left","response","1"
"html-audio-button-response","123","1472948","0.0-95.0-1.0","CAN_103","103","","","","","","null","stimuli/bleep.m4a","null","yellow","red","[""yellow"",""red"",""high nameability""]","left-right","[""yellow"",""red"",""high nameability""]","3","high nameability","24","left","audio_feedback","1"
"html-button-response","124","1473465","0.0-96.0","CAN_103","103","","","","","","null","<button class=""jspsych-btn""><img src=""stimuli/white_square.png"" style=""width: 200px;height: 200px;""></button>","null","yellow","red","[""yellow"",""red"",""high nameability""]","left-right","[""yellow"",""red"",""high nameability""]","3","high nameability","24","left","iti",""
"html-button-response","125","1473962","0.0-97.0","CAN_103","103","","","","","","481","","0","purple","blue","[""purple"",""blue"",""high nameability""]","left-right","[""purple"",""blue"",""high nameability""]","3","high nameability","25","left","trigger",""
"html-button-response","126","1474605","0.0-98.0-0.0","CAN_103","103","","","","","","634","<button class=""jspsych-btn""><img src=""stimuli/purple.png"" style=""width: 200px;height: 200px;""></button>","0","purple","blue","[""purple"",""blue"",""high nameability""]","left-right","[""purple"",""blue"",""high nameability""]","3","high nameability","25","left","response","1"
"html-audio-button-response","127","1474809","0.0-98.0-1.0","CAN_103","103","","","","","","null","stimuli/bleep.m4a","null","purple","blue","[""purple"",""blue"",""high nameability""]","left-right","[""purple"",""blue"",""high nameability""]","3","high nameability","25","left","audio_feedback","1"
"html-button-response","128","1475329","0.0-99.0","CAN_103","103","","","","","","null","<button class=""jspsych-btn""><img src=""stimuli/white_square.png"" style=""width: 200px;height: 200px;""></button>","null","purple","blue","[""purple"",""blue"",""high nameability""]","left-right","[""purple"",""blue"",""high nameability""]","3","high nameability","25","left","iti",""
"html-button-response","129","1475801","0.0-100.0","CAN_103","103","","","","","","453","","0","brown","orange","[""brown"",""orange"",""high nameability""]","left-right","[""brown"",""orange"",""high nameability""]","3","high nameability","26","left","trigger",""
"html-button-response","130","1476464","0.0-101.0-0.0","CAN_103","103","","","","","","655","<button class=""jspsych-btn""><img src=""stimuli/brown.png"" style=""width: 200px;height: 200px;""></button>","0","brown","orange","[""brown"",""orange"",""high nameability""]","left-right","[""brown"",""orange"",""high nameability""]","3","high nameability","26","left","response","1"
"html-audio-button-response","131","1476670","0.0-101.0-1.0","CAN_103","103","","","","","","null","stimuli/bleep.m4a","null","brown","orange","[""brown"",""orange"",""high nameability""]","left-right","[""brown"",""orange"",""high nameability""]","3","high nameability","26","left","audio_feedback","1"
"html-button-response","132","1477187","0.0-102.0","CAN_103","103","","","","","","null","<button class=""jspsych-btn""><img src=""stimuli/white_square.png"" style=""width: 200px;height: 200px;""></button>","null","brown","orange","[""brown"",""orange"",""high nameability""]","left-right","[""brown"",""orange"",""high nameability""]","3","high nameability","26","left","iti",""
"html-button-response","133","1477644","0.0-103.0","CAN_103","103","","","","","","440","","0","yellow","purple","[""yellow"",""purple"",""high nameability""]","right-left","[""purple"",""yellow""]","3","high nameability","27","right","trigger",""
"html-button-response","134","1478249","0.0-104.0-0.0","CAN_103","103","","","","","","598","<button class=""jspsych-btn""><img src=""stimuli/yellow.png"" style=""width: 200px;height: 200px;""></button>","1","yellow","purple","[""yellow"",""purple"",""high nameability""]","right-left","[""purple"",""yellow""]","3","high nameability","27","right","response","1"
"html-audio-button-response","135","1478453","0.0-104.0-1.0","CAN_103","103","","","","","","null","stimuli/bleep.m4a","null","yellow","purple","[""yellow"",""purple"",""high nameability""]","right-left","[""purple"",""yellow""]","3","high nameability","27","right","audio_feedback","1"
"html-button-response","136","1478971","0.0-105.0","CAN_103","103","","","","","","null","<button class=""jspsych-btn""><img src=""stimuli/white_square.png"" style=""width: 200px;height: 200px;""></button>","null","yellow","purple","[""yellow"",""purple"",""high nameability""]","right-left","[""purple"",""yellow""]","3","high nameability","27","right","iti",""
"html-button-response","137","1480361","0.0-106.0","CAN_103","103","","","","","","1375","","0","pink","darkgreenblue","[""pink"",""darkgreenblue"",""low nameability""]","right-left","[""darkgreenblue"",""pink""]","3","low nameability","28","right","trigger",""
"html-button-response","138","1480965","0.0-107.0-0.0","CAN_103","103","","","","","","596","<button class=""jspsych-btn""><img src=""stimuli/pink.png"" style=""width: 200px;height: 200px;""></button>","1","pink","darkgreenblue","[""pink"",""darkgreenblue"",""low nameability""]","right-left","[""darkgreenblue"",""pink""]","3","low nameability","28","right","response","1"
"html-audio-button-response","139","1481171","0.0-107.0-1.0","CAN_103","103","","","","","","null","stimuli/bleep.m4a","null","pink","darkgreenblue","[""pink"",""darkgreenblue"",""low nameability""]","right-left","[""darkgreenblue"",""pink""]","3","low nameability","28","right","audio_feedback","1"
"html-button-response","140","1481689","0.0-108.0","CAN_103","103","","","","","","null","<button class=""jspsych-btn""><img src=""stimuli/white_square.png"" style=""width: 200px;height: 200px;""></button>","null","pink","darkgreenblue","[""pink"",""darkgreenblue"",""low nameability""]","right-left","[""darkgreenblue"",""pink""]","3","low nameability","28","right","iti",""
"html-button-response","141","1482202","0.0-109.0","CAN_103","103","","","","","","492","","0","lightred","pink","[""lightred"",""pink"",""low nameability""]","right-left","[""pink"",""lightred""]","3","low nameability","29","right","trigger",""
"html-button-response","142","1482790","0.0-110.0-0.0","CAN_103","103","","","","","","578","<button class=""jspsych-btn""><img src=""stimuli/lightred.png"" style=""width: 200px;height: 200px;""></button>","1","lightred","pink","[""lightred"",""pink"",""low nameability""]","right-left","[""pink"",""lightred""]","3","low nameability","29","right","response","1"
"html-audio-button-response","143","1482995","0.0-110.0-1.0","CAN_103","103","","","","","","null","stimuli/bleep.m4a","null","lightred","pink","[""lightred"",""pink"",""low nameability""]","right-left","[""pink"",""lightred""]","3","low nameability","29","right","audio_feedback","1"
"html-button-response","144","1483517","0.0-111.0","CAN_103","103","","","","","","null","<button class=""jspsych-btn""><img src=""stimuli/white_square.png"" style=""width: 200px;height: 200px;""></button>","null","lightred","pink","[""lightred"",""pink"",""low nameability""]","right-left","[""pink"",""lightred""]","3","low nameability","29","right","iti",""
"html-button-response","145","1483979","0.0-112.0","CAN_103","103","","","","","","438","","0","darkgreenblue","mustard","[""darkgreenblue"",""mustard"",""low nameability""]","left-right","[""darkgreenblue"",""mustard"",""low nameability""]","3","low nameability","30","left","trigger",""
"html-button-response","146","1484641","0.0-113.0-0.0","CAN_103","103","","","","","","655","<button class=""jspsych-btn""><img src=""stimuli/darkgreenblue.png"" style=""width: 200px;height: 200px;""></button>","0","darkgreenblue","mustard","[""darkgreenblue"",""mustard"",""low nameability""]","left-right","[""darkgreenblue"",""mustard"",""low nameability""]","3","low nameability","30","left","response","1"
"html-audio-button-response","147","1484842","0.0-113.0-1.0","CAN_103","103","","","","","","null","stimuli/bleep.m4a","null","darkgreenblue","mustard","[""darkgreenblue"",""mustard"",""low nameability""]","left-right","[""darkgreenblue"",""mustard"",""low nameability""]","3","low nameability","30","left","audio_feedback","1"
"html-button-response","148","1485359","0.0-114.0","CAN_103","103","","","","","","null","<button class=""jspsych-btn""><img src=""stimuli/white_square.png"" style=""width: 200px;height: 200px;""></button>","null","darkgreenblue","mustard","[""darkgreenblue"",""mustard"",""low nameability""]","left-right","[""darkgreenblue"",""mustard"",""low nameability""]","3","low nameability","30","left","iti",""
"pavlovia","149","1485426","0.0-115.0","CAN_103","103","","","","","","","","","","","","","","","","","","",""
"pavlovia","150","1485432","0.0-116.0","CAN_103","103","","","","","","","","","","","","","","","","","","",""
"html-audio-button-response","151","1487027","0.0-117.0","CAN_103","103","","","","","","1667","stimuli/tada.m4a","0","","","","","","","","","","",""
"html-button-response","152","1487722","0.0-118.0","CAN_103","103","","","","","","690","","0","","","","","","","","","","",""
"html-button-response","153","1488493","0.0-119.0","CAN_103","103","","","","","","763","","0","darkgreenblue","lightred","[""darkgreenblue"",""lightred"",""low nameability""]","right-left","[""lightred"",""darkgreenblue""]","4","low nameability","31","right","trigger",""
"html-button-response","154","1489079","0.0-120.0-0.0","CAN_103","103","","","","","","579","<button class=""jspsych-btn""><img src=""stimuli/darkgreenblue.png"" style=""width: 200px;height: 200px;""></button>","1","darkgreenblue","lightred","[""darkgreenblue"",""lightred"",""low nameability""]","right-left","[""lightred"",""darkgreenblue""]","4","low nameability","31","right","response","1"
"html-audio-button-response","155","1489282","0.0-120.0-1.0","CAN_103","103","","","","","","null","stimuli/bleep.m4a","null","darkgreenblue","lightred","[""darkgreenblue"",""lightred"",""low nameability""]","right-left","[""lightred"",""darkgreenblue""]","4","low nameability","31","right","audio_feedback","1"
"html-button-response","156","1489806","0.0-121.0","CAN_103","103","","","","","","null","<button class=""jspsych-btn""><img src=""stimuli/white_square.png"" style=""width: 200px;height: 200px;""></button>","null","darkgreenblue","lightred","[""darkgreenblue"",""lightred"",""low nameability""]","right-left","[""lightred"",""darkgreenblue""]","4","low nameability","31","right","iti",""
"html-button-response","157","1490238","0.0-122.0","CAN_103","103","","","","","","414","","0","turquoise","lightred","[""turquoise"",""lightred"",""low nameability""]","right-left","[""lightred"",""turquoise""]","4","low nameability","32","right","trigger",""
"html-button-response","158","1490787","0.0-123.0-0.0","CAN_103","103","","","","","","541","<button class=""jspsych-btn""><img src=""stimuli/turquoise.png"" style=""width: 200px;height: 200px;""></button>","1","turquoise","lightred","[""turquoise"",""lightred"",""low nameability""]","right-left","[""lightred"",""turquoise""]","4","low nameability","32","right","response","1"
"html-audio-button-response","159","1490990","0.0-123.0-1.0","CAN_103","103","","","","","","null","stimuli/bleep.m4a","null","turquoise","lightred","[""turquoise"",""lightred"",""low nameability""]","right-left","[""lightred"",""turquoise""]","4","low nameability","32","right","audio_feedback","1"
"html-button-response","160","1491509","0.0-124.0","CAN_103","103","","","","","","null","<button class=""jspsych-btn""><img src=""stimuli/white_square.png"" style=""width: 200px;height: 200px;""></button>","null","turquoise","lightred","[""turquoise"",""lightred"",""low nameability""]","right-left","[""lightred"",""turquoise""]","4","low nameability","32","right","iti",""
"html-button-response","161","1491986","0.0-125.0","CAN_103","103","","","","","","452","","0","purple","red","[""purple"",""red"",""high nameability""]","right-left","[""red"",""purple""]","4","high nameability","33","right","trigger",""
"html-button-response","162","1492506","0.0-126.0-0.0","CAN_103","103","","","","","","515","<button class=""jspsych-btn""><img src=""stimuli/purple.png"" style=""width: 200px;height: 200px;""></button>","1","purple","red","[""purple"",""red"",""high nameability""]","right-left","[""red"",""purple""]","4","high nameability","33","right","response","1"
"html-audio-button-response","163","1492710","0.0-126.0-1.0","CAN_103","103","","","","","","null","stimuli/bleep.m4a","null","purple","red","[""purple"",""red"",""high nameability""]","right-left","[""red"",""purple""]","4","high nameability","33","right","audio_feedback","1"
"html-button-response","164","1493237","0.0-127.0","CAN_103","103","","","","","","null","<button class=""jspsych-btn""><img src=""stimuli/white_square.png"" style=""width: 200px;height: 200px;""></button>","null","purple","red","[""purple"",""red"",""high nameability""]","right-left","[""red"",""purple""]","4","high nameability","33","right","iti",""
"html-button-response","165","1493695","0.0-128.0","CAN_103","103","","","","","","438","","0","pink","lightred","[""pink"",""lightred"",""low nameability""]","left-right","[""pink"",""lightred"",""low nameability""]","4","low nameability","34","left","trigger",""
"html-button-response","166","1494377","0.0-129.0-0.0","CAN_103","103","","","","","","672","<button class=""jspsych-btn""><img src=""stimuli/pink.png"" style=""width: 200px;height: 200px;""></button>","0","pink","lightred","[""pink"",""lightred"",""low nameability""]","left-right","[""pink"",""lightred"",""low nameability""]","4","low nameability","34","left","response","1"
"html-audio-button-response","167","1494579","0.0-129.0-1.0","CAN_103","103","","","","","","null","stimuli/bleep.m4a","null","pink","lightred","[""pink"",""lightred"",""low nameability""]","left-right","[""pink"",""lightred"",""low nameability""]","4","low nameability","34","left","audio_feedback","1"
"html-button-response","168","1495102","0.0-130.0","CAN_103","103","","","","","","null","<button class=""jspsych-btn""><img src=""stimuli/white_square.png"" style=""width: 200px;height: 200px;""></button>","null","pink","lightred","[""pink"",""lightred"",""low nameability""]","left-right","[""pink"",""lightred"",""low nameability""]","4","low nameability","34","left","iti",""
"html-button-response","169","1496435","0.0-131.0","CAN_103","103","","","","","","1311","","0","mustard","neonyellow","[""mustard"",""neonyellow"",""low nameability""]","right-left","[""neonyellow"",""mustard""]","4","low nameability","35","right","trigger",""
"html-button-response","170","1497009","0.0-132.0-0.0","CAN_103","103","","","","","","565","<button class=""jspsych-btn""><img src=""stimuli/mustard.png"" style=""width: 200px;height: 200px;""></button>","1","mustard","neonyellow","[""mustard"",""neonyellow"",""low nameability""]","right-left","[""neonyellow"",""mustard""]","4","low nameability","35","right","response","1"
"html-audio-button-response","171","1497215","0.0-132.0-1.0","CAN_103","103","","","","","","null","stimuli/bleep.m4a","null","mustard","neonyellow","[""mustard"",""neonyellow"",""low nameability""]","right-left","[""neonyellow"",""mustard""]","4","low nameability","35","right","audio_feedback","1"
"html-button-response","172","1497733","0.0-133.0","CAN_103","103","","","","","","null","<button class=""jspsych-btn""><img src=""stimuli/white_square.png"" style=""width: 200px;height: 200px;""></button>","null","mustard","neonyellow","[""mustard"",""neonyellow"",""low nameability""]","right-left","[""neonyellow"",""mustard""]","4","low nameability","35","right","iti",""
"html-button-response","173","1498201","0.0-134.0","CAN_103","103","","","","","","449","","0","red","blue","[""red"",""blue"",""high nameability""]","right-left","[""blue"",""red""]","4","high nameability","36","right","trigger",""
"html-button-response","174","1499341","0.0-135.0-0.0","CAN_103","103","","","","","","1131","<button class=""jspsych-btn""><img src=""stimuli/red.png"" style=""width: 200px;height: 200px;""></button>","1","red","blue","[""red"",""blue"",""high nameability""]","right-left","[""blue"",""red""]","4","high nameability","36","right","response","1"
"html-audio-button-response","175","1499549","0.0-135.0-1.0","CAN_103","103","","","","","","null","stimuli/bleep.m4a","null","red","blue","[""red"",""blue"",""high nameability""]","right-left","[""blue"",""red""]","4","high nameability","36","right","audio_feedback","1"
"html-button-response","176","1500065","0.0-136.0","CAN_103","103","","","","","","null","<button class=""jspsych-btn""><img src=""stimuli/white_square.png"" style=""width: 200px;height: 200px;""></button>","null","red","blue","[""red"",""blue"",""high nameability""]","right-left","[""blue"",""red""]","4","high nameability","36","right","iti",""
"html-button-response","177","1500550","0.0-137.0","CAN_103","103","","","","","","441","","0","lightred","darkgreenblue","[""lightred"",""darkgreenblue"",""low nameability""]","left-right","[""lightred"",""darkgreenblue"",""low nameability""]","4","low nameability","37","left","trigger",""
"html-button-response","178","1501218","0.0-138.0-0.0","CAN_103","103","","","","","","657","<button class=""jspsych-btn""><img src=""stimuli/lightred.png"" style=""width: 200px;height: 200px;""></button>","0","lightred","darkgreenblue","[""lightred"",""darkgreenblue"",""low nameability""]","left-right","[""lightred"",""darkgreenblue"",""low nameability""]","4","low nameability","37","left","response","1"
"html-audio-button-response","179","1501423","0.0-138.0-1.0","CAN_103","103","","","","","","null","stimuli/bleep.m4a","null","lightred","darkgreenblue","[""lightred"",""darkgreenblue"",""low nameability""]","left-right","[""lightred"",""darkgreenblue"",""low nameability""]","4","low nameability","37","left","audio_feedback","1"
"html-button-response","180","1501945","0.0-139.0","CAN_103","103","","","","","","null","<button class=""jspsych-btn""><img src=""stimuli/white_square.png"" style=""width: 200px;height: 200px;""></button>","null","lightred","darkgreenblue","[""lightred"",""darkgreenblue"",""low nameability""]","left-right","[""lightred"",""darkgreenblue"",""low nameability""]","4","low nameability","37","left","iti",""
"html-button-response","181","1505074","0.0-140.0","CAN_103","103","","","","","","3106","","0","neonyellow","pink","[""neonyellow"",""pink"",""low nameability""]","right-left","[""pink"",""neonyellow""]","4","low nameability","38","right","trigger",""
"html-button-response","182","1505948","0.0-141.0-0.0","CAN_103","103","","","","","","858","<button class=""jspsych-btn""><img src=""stimuli/neonyellow.png"" style=""width: 200px;height: 200px;""></button>","1","neonyellow","pink","[""neonyellow"",""pink"",""low nameability""]","right-left","[""pink"",""neonyellow""]","4","low nameability","38","right","response","1"
"html-audio-button-response","183","1506163","0.0-141.0-1.0","CAN_103","103","","","","","","null","stimuli/bleep.m4a","null","neonyellow","pink","[""neonyellow"",""pink"",""low nameability""]","right-left","[""pink"",""neonyellow""]","4","low nameability","38","right","audio_feedback","1"
"html-button-response","184","1506682","0.0-142.0","CAN_103","103","","","","","","null","<button class=""jspsych-btn""><img src=""stimuli/white_square.png"" style=""width: 200px;height: 200px;""></button>","null","neonyellow","pink","[""neonyellow"",""pink"",""low nameability""]","right-left","[""pink"",""neonyellow""]","4","low nameability","38","right","iti",""
"html-button-response","185","1507196","0.0-143.0","CAN_103","103","","","","","","495","","0","red","orange","[""red"",""orange"",""high nameability""]","right-left","[""orange"",""red""]","4","high nameability","39","right","trigger",""
"html-button-response","186","1507810","0.0-144.0-0.0","CAN_103","103","","","","","","603","<button class=""jspsych-btn""><img src=""stimuli/red.png"" style=""width: 200px;height: 200px;""></button>","1","red","orange","[""red"",""orange"",""high nameability""]","right-left","[""orange"",""red""]","4","high nameability","39","right","response","1"
"html-audio-button-response","187","1508015","0.0-144.0-1.0","CAN_103","103","","","","","","null","stimuli/bleep.m4a","null","red","orange","[""red"",""orange"",""high nameability""]","right-left","[""orange"",""red""]","4","high nameability","39","right","audio_feedback","1"
"html-button-response","188","1508529","0.0-145.0","CAN_103","103","","","","","","null","<button class=""jspsych-btn""><img src=""stimuli/white_square.png"" style=""width: 200px;height: 200px;""></button>","null","red","orange","[""red"",""orange"",""high nameability""]","right-left","[""orange"",""red""]","4","high nameability","39","right","iti",""
"html-button-response","189","1508966","0.0-146.0","CAN_103","103","","","","","","416","","0","brown","purple","[""brown"",""purple"",""high nameability""]","left-right","[""brown"",""purple"",""high nameability""]","4","high nameability","40","left","trigger",""
"html-button-response","190","1509604","0.0-147.0-0.0","CAN_103","103","","","","","","630","<button class=""jspsych-btn""><img src=""stimuli/brown.png"" style=""width: 200px;height: 200px;""></button>","0","brown","purple","[""brown"",""purple"",""high nameability""]","left-right","[""brown"",""purple"",""high nameability""]","4","high nameability","40","left","response","1"
"html-audio-button-response","191","1509811","0.0-147.0-1.0","CAN_103","103","","","","","","null","stimuli/bleep.m4a","null","brown","purple","[""brown"",""purple"",""high nameability""]","left-right","[""brown"",""purple"",""high nameability""]","4","high nameability","40","left","audio_feedback","1"
"html-button-response","192","1510332","0.0-148.0","CAN_103","103","","","","","","null","<button class=""jspsych-btn""><img src=""stimuli/white_square.png"" style=""width: 200px;height: 200px;""></button>","null","brown","purple","[""brown"",""purple"",""high nameability""]","left-right","[""brown"",""purple"",""high nameability""]","4","high nameability","40","left","iti",""
"pavlovia","193","1510393","0.0-149.0","CAN_103","103","","","","","","","","","","","","","","","","","","",""
"pavlovia","194","1510399","0.0-150.0","CAN_103","103","","","","","","","","","","","","","","","","","","",""
"html-audio-button-response","195","1511947","0.0-151.0","CAN_103","103","","","","","","1616","stimuli/tada.m4a","0","","","","","","","","","","",""
"html-button-response","196","1512678","0.0-152.0","CAN_103","103","","","","","","726","","0","","","","","","","","","","",""
"html-button-response","197","1513354","0.0-153.0","CAN_103","103","","","","","","667","","0","lightred","neonyellow","[""lightred"",""neonyellow"",""low nameability""]","right-left","[""neonyellow"",""lightred""]","5","low nameability","41","right","trigger",""
"html-button-response","198","1513902","0.0-154.0-0.0","CAN_103","103","","","","","","543","<button class=""jspsych-btn""><img src=""stimuli/lightred.png"" style=""width: 200px;height: 200px;""></button>","1","lightred","neonyellow","[""lightred"",""neonyellow"",""low nameability""]","right-left","[""neonyellow"",""lightred""]","5","low nameability","41","right","response","1"
"html-audio-button-response","199","1514104","0.0-154.0-1.0","CAN_103","103","","","","","","null","stimuli/bleep.m4a","null","lightred","neonyellow","[""lightred"",""neonyellow"",""low nameability""]","right-left","[""neonyellow"",""lightred""]","5","low nameability","41","right","audio_feedback","1"
"html-button-response","200","1514623","0.0-155.0","CAN_103","103","","","","","","null","<button class=""jspsych-btn""><img src=""stimuli/white_square.png"" style=""width: 200px;height: 200px;""></button>","null","lightred","neonyellow","[""lightred"",""neonyellow"",""low nameability""]","right-left","[""neonyellow"",""lightred""]","5","low nameability","41","right","iti",""
"html-button-response","201","1515089","0.0-156.0","CAN_103","103","","","","","","423","","0","blue","yellow","[""blue"",""yellow"",""high nameability""]","left-right","[""blue"",""yellow"",""high nameability""]","5","high nameability","42","left","trigger",""
"html-button-response","202","1515694","0.0-157.0-0.0","CAN_103","103","","","","","","592","<button class=""jspsych-btn""><img src=""stimuli/blue.png"" style=""width: 200px;height: 200px;""></button>","0","blue","yellow","[""blue"",""yellow"",""high nameability""]","left-right","[""blue"",""yellow"",""high nameability""]","5","high nameability","42","left","response","1"
"html-audio-button-response","203","1515900","0.0-157.0-1.0","CAN_103","103","","","","","","null","stimuli/bleep.m4a","null","blue","yellow","[""blue"",""yellow"",""high nameability""]","left-right","[""blue"",""yellow"",""high nameability""]","5","high nameability","42","left","audio_feedback","1"
"html-button-response","204","1516418","0.0-158.0","CAN_103","103","","","","","","null","<button class=""jspsych-btn""><img src=""stimuli/white_square.png"" style=""width: 200px;height: 200px;""></button>","null","blue","yellow","[""blue"",""yellow"",""high nameability""]","left-right","[""blue"",""yellow"",""high nameability""]","5","high nameability","42","left","iti",""
"html-button-response","205","1516921","0.0-159.0","CAN_103","103","","","","","","483","","0","mustard","pink","[""mustard"",""pink"",""low nameability""]","left-right","[""mustard"",""pink"",""low nameability""]","5","low nameability","43","left","trigger",""
"html-button-response","206","1517531","0.0-160.0-0.0","CAN_103","103","","","","","","605","<button class=""jspsych-btn""><img src=""stimuli/mustard.png"" style=""width: 200px;height: 200px;""></button>","0","mustard","pink","[""mustard"",""pink"",""low nameability""]","left-right","[""mustard"",""pink"",""low nameability""]","5","low nameability","43","left","response","1"
"html-audio-button-response","207","1517736","0.0-160.0-1.0","CAN_103","103","","","","","","null","stimuli/bleep.m4a","null","mustard","pink","[""mustard"",""pink"",""low nameability""]","left-right","[""mustard"",""pink"",""low nameability""]","5","low nameability","43","left","audio_feedback","1"
"html-button-response","208","1518258","0.0-161.0","CAN_103","103","","","","","","null","<button class=""jspsych-btn""><img src=""stimuli/white_square.png"" style=""width: 200px;height: 200px;""></button>","null","mustard","pink","[""mustard"",""pink"",""low nameability""]","left-right","[""mustard"",""pink"",""low nameability""]","5","low nameability","43","left","iti",""
"html-button-response","209","1518724","0.0-162.0","CAN_103","103","","","","","","448","","0","mustard","turquoise","[""mustard"",""turquoise"",""low nameability""]","right-left","[""turquoise"",""mustard""]","5","low nameability","44","right","trigger",""
"html-button-response","210","1519279","0.0-163.0-0.0","CAN_103","103","","","","","","547","<button class=""jspsych-btn""><img src=""stimuli/mustard.png"" style=""width: 200px;height: 200px;""></button>","1","mustard","turquoise","[""mustard"",""turquoise"",""low nameability""]","right-left","[""turquoise"",""mustard""]","5","low nameability","44","right","response","1"
"html-audio-button-response","211","1519482","0.0-163.0-1.0","CAN_103","103","","","","","","null","stimuli/bleep.m4a","null","mustard","turquoise","[""mustard"",""turquoise"",""low nameability""]","right-left","[""turquoise"",""mustard""]","5","low nameability","44","right","audio_feedback","1"
"html-button-response","212","1520006","0.0-164.0","CAN_103","103","","","","","","null","<button class=""jspsych-btn""><img src=""stimuli/white_square.png"" style=""width: 200px;height: 200px;""></button>","null","mustard","turquoise","[""mustard"",""turquoise"",""low nameability""]","right-left","[""turquoise"",""mustard""]","5","low nameability","44","right","iti",""
"html-button-response","213","1520468","0.0-165.0","CAN_103","103","","","","","","442","","0","blue","brown","[""blue"",""brown"",""high nameability""]","left-right","[""blue"",""brown"",""high nameability""]","5","high nameability","45","left","trigger",""
"html-button-response","214","1521082","0.0-166.0-0.0","CAN_103","103","","","","","","605","<button class=""jspsych-btn""><img src=""stimuli/blue.png"" style=""width: 200px;height: 200px;""></button>","0","blue","brown","[""blue"",""brown"",""high nameability""]","left-right","[""blue"",""brown"",""high nameability""]","5","high nameability","45","left","response","1"
"html-audio-button-response","215","1521288","0.0-166.0-1.0","CAN_103","103","","","","","","null","stimuli/bleep.m4a","null","blue","brown","[""blue"",""brown"",""high nameability""]","left-right","[""blue"",""brown"",""high nameability""]","5","high nameability","45","left","audio_feedback","1"
"html-button-response","216","1521808","0.0-167.0","CAN_103","103","","","","","","null","<button class=""jspsych-btn""><img src=""stimuli/white_square.png"" style=""width: 200px;height: 200px;""></button>","null","blue","brown","[""blue"",""brown"",""high nameability""]","left-right","[""blue"",""brown"",""high nameability""]","5","high nameability","45","left","iti",""
"html-button-response","217","1522248","0.0-168.0","CAN_103","103","","","","","","423","","0","blue","orange","[""blue"",""orange"",""high nameability""]","right-left","[""orange"",""blue""]","5","high nameability","46","right","trigger",""
"html-button-response","218","1522797","0.0-169.0-0.0","CAN_103","103","","","","","","543","<button class=""jspsych-btn""><img src=""stimuli/blue.png"" style=""width: 200px;height: 200px;""></button>","1","blue","orange","[""blue"",""orange"",""high nameability""]","right-left","[""orange"",""blue""]","5","high nameability","46","right","response","1"
"html-audio-button-response","219","1523001","0.0-169.0-1.0","CAN_103","103","","","","","","null","stimuli/bleep.m4a","null","blue","orange","[""blue"",""orange"",""high nameability""]","right-left","[""orange"",""blue""]","5","high nameability","46","right","audio_feedback","1"
"html-button-response","220","1523521","0.0-170.0","CAN_103","103","","","","","","null","<button class=""jspsych-btn""><img src=""stimuli/white_square.png"" style=""width: 200px;height: 200px;""></button>","null","blue","orange","[""blue"",""orange"",""high nameability""]","right-left","[""orange"",""blue""]","5","high nameability","46","right","iti",""
"html-button-response","221","1523961","0.0-171.0","CAN_103","103","","","","","","416","","0","pink","turquoise","[""pink"",""turquoise"",""low nameability""]","right-left","[""turquoise"",""pink""]","5","low nameability","47","right","trigger",""
"html-button-response","222","1524514","0.0-172.0-0.0","CAN_103","103","","","","","","546","<button class=""jspsych-btn""><img src=""stimuli/pink.png"" style=""width: 200px;height: 200px;""></button>","1","pink","turquoise","[""pink"",""turquoise"",""low nameability""]","right-left","[""turquoise"",""pink""]","5","low nameability","47","right","response","1"
"html-audio-button-response","223","1524718","0.0-172.0-1.0","CAN_103","103","","","","","","null","stimuli/bleep.m4a","null","pink","turquoise","[""pink"",""turquoise"",""low nameability""]","right-left","[""turquoise"",""pink""]","5","low nameability","47","right","audio_feedback","1"
"html-button-response","224","1525239","0.0-173.0","CAN_103","103","","","","","","null","<button class=""jspsych-btn""><img src=""stimuli/white_square.png"" style=""width: 200px;height: 200px;""></button>","null","pink","turquoise","[""pink"",""turquoise"",""low nameability""]","right-left","[""turquoise"",""pink""]","5","low nameability","47","right","iti",""
"html-button-response","225","1525727","0.0-174.0","CAN_103","103","","","","","","466","","0","lightred","turquoise","[""lightred"",""turquoise"",""low nameability""]","right-left","[""turquoise"",""lightred""]","5","low nameability","48","right","trigger",""
"html-button-response","226","1526317","0.0-175.0-0.0","CAN_103","103","","","","","","584","<button class=""jspsych-btn""><img src=""stimuli/lightred.png"" style=""width: 200px;height: 200px;""></button>","1","lightred","turquoise","[""lightred"",""turquoise"",""low nameability""]","right-left","[""turquoise"",""lightred""]","5","low nameability","48","right","response","1"
"html-audio-button-response","227","1526522","0.0-175.0-1.0","CAN_103","103","","","","","","null","stimuli/bleep.m4a","null","lightred","turquoise","[""lightred"",""turquoise"",""low nameability""]","right-left","[""turquoise"",""lightred""]","5","low nameability","48","right","audio_feedback","1"
"html-button-response","228","1527040","0.0-176.0","CAN_103","103","","","","","","null","<button class=""jspsych-btn""><img src=""stimuli/white_square.png"" style=""width: 200px;height: 200px;""></button>","null","lightred","turquoise","[""lightred"",""turquoise"",""low nameability""]","right-left","[""turquoise"",""lightred""]","5","low nameability","48","right","iti",""
"html-button-response","229","1528317","0.0-177.0","CAN_103","103","","","","","","1260","","0","lightred","mustard","[""lightred"",""mustard"",""low nameability""]","left-right","[""lightred"",""mustard"",""low nameability""]","5","low nameability","49","left","trigger",""
"html-button-response","230","1528950","0.0-178.0-0.0","CAN_103","103","","","","","","625","<button class=""jspsych-btn""><img src=""stimuli/lightred.png"" style=""width: 200px;height: 200px;""></button>","0","lightred","mustard","[""lightred"",""mustard"",""low nameability""]","left-right","[""lightred"",""mustard"",""low nameability""]","5","low nameability","49","left","response","1"
"html-audio-button-response","231","1529154","0.0-178.0-1.0","CAN_103","103","","","","","","null","stimuli/bleep.m4a","null","lightred","mustard","[""lightred"",""mustard"",""low nameability""]","left-right","[""lightred"",""mustard"",""low nameability""]","5","low nameability","49","left","audio_feedback","1"
"html-button-response","232","1529671","0.0-179.0","CAN_103","103","","","","","","null","<button class=""jspsych-btn""><img src=""stimuli/white_square.png"" style=""width: 200px;height: 200px;""></button>","null","lightred","mustard","[""lightred"",""mustard"",""low nameability""]","left-right","[""lightred"",""mustard"",""low nameability""]","5","low nameability","49","left","iti",""
"html-button-response","233","1530157","0.0-180.0","CAN_103","103","","","","","","466","","0","neonyellow","lightred","[""neonyellow"",""lightred"",""low nameability""]","left-right","[""neonyellow"",""lightred"",""low nameability""]","5","low nameability","50","left","trigger",""
"html-button-response","234","1530848","0.0-181.0-0.0","CAN_103","103","","","","","","681","<button class=""jspsych-btn""><img src=""stimuli/neonyellow.png"" style=""width: 200px;height: 200px;""></button>","0","neonyellow","lightred","[""neonyellow"",""lightred"",""low nameability""]","left-right","[""neonyellow"",""lightred"",""low nameability""]","5","low nameability","50","left","response","1"
"html-audio-button-response","235","1531050","0.0-181.0-1.0","CAN_103","103","","","","","","null","stimuli/bleep.m4a","null","neonyellow","lightred","[""neonyellow"",""lightred"",""low nameability""]","left-right","[""neonyellow"",""lightred"",""low nameability""]","5","low nameability","50","left","audio_feedback","1"
"html-button-response","236","1531567","0.0-182.0","CAN_103","103","","","","","","null","<button class=""jspsych-btn""><img src=""stimuli/white_square.png"" style=""width: 200px;height: 200px;""></button>","null","neonyellow","lightred","[""neonyellow"",""lightred"",""low nameability""]","left-right","[""neonyellow"",""lightred"",""low nameability""]","5","low nameability","50","left","iti",""
"pavlovia","237","1531610","0.0-183.0","CAN_103","103","","","","","","","","","","","","","","","","","","",""
"pavlovia","238","1531617","0.0-184.0","CAN_103","103","","","","","","","","","","","","","","","","","","",""
"html-audio-button-response","239","1533503","0.0-185.0","CAN_103","103","","","","","","1936","stimuli/tada.m4a","0","","","","","","","","","","",""
"html-button-response","240","1534524","0.0-186.0","CAN_103","103","","","","","","1014","","0","","","","","","","","","","",""
"html-button-response","241","1535303","0.0-187.0","CAN_103","103","","","","","","770","","0","orange","brown","[""orange"",""brown"",""high nameability""]","left-right","[""orange"",""brown"",""high nameability""]","6","high nameability","51","left","trigger",""
"html-button-response","242","1535943","0.0-188.0-0.0","CAN_103","103","","","","","","634","<button class=""jspsych-btn""><img src=""stimuli/orange.png"" style=""width: 200px;height: 200px;""></button>","0","orange","brown","[""orange"",""brown"",""high nameability""]","left-right","[""orange"",""brown"",""high nameability""]","6","high nameability","51","left","response","1"
"html-audio-button-response","243","1536150","0.0-188.0-1.0","CAN_103","103","","","","","","null","stimuli/bleep.m4a","null","orange","brown","[""orange"",""brown"",""high nameability""]","left-right","[""orange"",""brown"",""high nameability""]","6","high nameability","51","left","audio_feedback","1"
"html-button-response","244","1536667","0.0-189.0","CAN_103","103","","","","","","null","<button class=""jspsych-btn""><img src=""stimuli/white_square.png"" style=""width: 200px;height: 200px;""></button>","null","orange","brown","[""orange"",""brown"",""high nameability""]","left-right","[""orange"",""brown"",""high nameability""]","6","high nameability","51","left","iti",""
"html-button-response","245","1536884","0.0-190.0","CAN_103","103","","","","","","200","","0","orange","red","[""orange"",""red"",""high nameability""]","left-right","[""orange"",""red"",""high nameability""]","6","high nameability","52","left","trigger",""
"html-button-response","246","1537564","0.0-191.0-0.0","CAN_103","103","","","","","","672","<button class=""jspsych-btn""><img src=""stimuli/orange.png"" style=""width: 200px;height: 200px;""></button>","0","orange","red","[""orange"",""red"",""high nameability""]","left-right","[""orange"",""red"",""high nameability""]","6","high nameability","52","left","response","1"
"html-audio-button-response","247","1537765","0.0-191.0-1.0","CAN_103","103","","","","","","null","stimuli/bleep.m4a","null","orange","red","[""orange"",""red"",""high nameability""]","left-right","[""orange"",""red"",""high nameability""]","6","high nameability","52","left","audio_feedback","1"
"html-button-response","248","1538283","0.0-192.0","CAN_103","103","","","","","","null","<button class=""jspsych-btn""><img src=""stimuli/white_square.png"" style=""width: 200px;height: 200px;""></button>","null","orange","red","[""orange"",""red"",""high nameability""]","left-right","[""orange"",""red"",""high nameability""]","6","high nameability","52","left","iti",""
"html-button-response","249","1538778","0.0-193.0","CAN_103","103","","","","","","475","","0","turquoise","neonyellow","[""turquoise"",""neonyellow"",""low nameability""]","left-right","[""turquoise"",""neonyellow"",""low nameability""]","6","low nameability","53","left","trigger",""
"html-button-response","250","1539429","0.0-194.0-0.0","CAN_103","103","","","","","","643","<button class=""jspsych-btn""><img src=""stimuli/turquoise.png"" style=""width: 200px;height: 200px;""></button>","0","turquoise","neonyellow","[""turquoise"",""neonyellow"",""low nameability""]","left-right","[""turquoise"",""neonyellow"",""low nameability""]","6","low nameability","53","left","response","1"
"html-audio-button-response","251","1539636","0.0-194.0-1.0","CAN_103","103","","","","","","null","stimuli/bleep.m4a","null","turquoise","neonyellow","[""turquoise"",""neonyellow"",""low nameability""]","left-right","[""turquoise"",""neonyellow"",""low nameability""]","6","low nameability","53","left","audio_feedback","1"
"html-button-response","252","1540150","0.0-195.0","CAN_103","103","","","","","","null","<button class=""jspsych-btn""><img src=""stimuli/white_square.png"" style=""width: 200px;height: 200px;""></button>","null","turquoise","neonyellow","[""turquoise"",""neonyellow"",""low nameability""]","left-right","[""turquoise"",""neonyellow"",""low nameability""]","6","low nameability","53","left","iti",""
"html-button-response","253","1540606","0.0-196.0","CAN_103","103","","","","","","440","","0","pink","neonyellow","[""pink"",""neonyellow"",""low nameability""]","right-left","[""neonyellow"",""pink""]","6","low nameability","54","right","trigger",""
"html-button-response","254","1541307","0.0-197.0-0.0","CAN_103","103","","","","","","694","<button class=""jspsych-btn""><img src=""stimuli/pink.png"" style=""width: 200px;height: 200px;""></button>","1","pink","neonyellow","[""pink"",""neonyellow"",""low nameability""]","right-left","[""neonyellow"",""pink""]","6","low nameability","54","right","response","1"
"html-audio-button-response","255","1541511","0.0-197.0-1.0","CAN_103","103","","","","","","null","stimuli/bleep.m4a","null","pink","neonyellow","[""pink"",""neonyellow"",""low nameability""]","right-left","[""neonyellow"",""pink""]","6","low nameability","54","right","audio_feedback","1"
"html-button-response","256","1542028","0.0-198.0","CAN_103","103","","","","","","null","<button class=""jspsych-btn""><img src=""stimuli/white_square.png"" style=""width: 200px;height: 200px;""></button>","null","pink","neonyellow","[""pink"",""neonyellow"",""low nameability""]","right-left","[""neonyellow"",""pink""]","6","low nameability","54","right","iti",""
"html-button-response","257","1542464","0.0-199.0","CAN_103","103","","","","","","418","","0","orange","yellow","[""orange"",""yellow"",""high nameability""]","left-right","[""orange"",""yellow"",""high nameability""]","6","high nameability","55","left","trigger",""
"html-button-response","258","1543140","0.0-200.0-0.0","CAN_103","103","","","","","","669","<button class=""jspsych-btn""><img src=""stimuli/orange.png"" style=""width: 200px;height: 200px;""></button>","0","orange","yellow","[""orange"",""yellow"",""high nameability""]","left-right","[""orange"",""yellow"",""high nameability""]","6","high nameability","55","left","response","1"
"html-audio-button-response","259","1543341","0.0-200.0-1.0","CAN_103","103","","","","","","null","stimuli/bleep.m4a","null","orange","yellow","[""orange"",""yellow"",""high nameability""]","left-right","[""orange"",""yellow"",""high nameability""]","6","high nameability","55","left","audio_feedback","1"
"html-button-response","260","1543858","0.0-201.0","CAN_103","103","","","","","","null","<button class=""jspsych-btn""><img src=""stimuli/white_square.png"" style=""width: 200px;height: 200px;""></button>","null","orange","yellow","[""orange"",""yellow"",""high nameability""]","left-right","[""orange"",""yellow"",""high nameability""]","6","high nameability","55","left","iti",""
"html-button-response","261","1544292","0.0-202.0","CAN_103","103","","","","","","418","","0","brown","yellow","[""brown"",""yellow"",""high nameability""]","right-left","[""yellow"",""brown""]","6","high nameability","56","right","trigger",""
"html-button-response","262","1544852","0.0-203.0-0.0","CAN_103","103","","","","","","553","<button class=""jspsych-btn""><img src=""stimuli/brown.png"" style=""width: 200px;height: 200px;""></button>","1","brown","yellow","[""brown"",""yellow"",""high nameability""]","right-left","[""yellow"",""brown""]","6","high nameability","56","right","response","1"
"html-audio-button-response","263","1545054","0.0-203.0-1.0","CAN_103","103","","","","","","null","stimuli/bleep.m4a","null","brown","yellow","[""brown"",""yellow"",""high nameability""]","right-left","[""yellow"",""brown""]","6","high nameability","56","right","audio_feedback","1"
"html-button-response","264","1545573","0.0-204.0","CAN_103","103","","","","","","null","<button class=""jspsych-btn""><img src=""stimuli/white_square.png"" style=""width: 200px;height: 200px;""></button>","null","brown","yellow","[""brown"",""yellow"",""high nameability""]","right-left","[""yellow"",""brown""]","6","high nameability","56","right","iti",""
"html-button-response","265","1546234","0.0-205.0","CAN_103","103","","","","","","643","","0","purple","brown","[""purple"",""brown"",""high nameability""]","left-right","[""purple"",""brown"",""high nameability""]","6","high nameability","57","left","trigger",""
"html-button-response","266","1546850","0.0-206.0-0.0","CAN_103","103","","","","","","609","<button class=""jspsych-btn""><img src=""stimuli/purple.png"" style=""width: 200px;height: 200px;""></button>","0","purple","brown","[""purple"",""brown"",""high nameability""]","left-right","[""purple"",""brown"",""high nameability""]","6","high nameability","57","left","response","1"
"html-audio-button-response","267","1547056","0.0-206.0-1.0","CAN_103","103","","","","","","null","stimuli/bleep.m4a","null","purple","brown","[""purple"",""brown"",""high nameability""]","left-right","[""purple"",""brown"",""high nameability""]","6","high nameability","57","left","audio_feedback","1"
"html-button-response","268","1547575","0.0-207.0","CAN_103","103","","","","","","null","<button class=""jspsych-btn""><img src=""stimuli/white_square.png"" style=""width: 200px;height: 200px;""></button>","null","purple","brown","[""purple"",""brown"",""high nameability""]","left-right","[""purple"",""brown"",""high nameability""]","6","high nameability","57","left","iti",""
"html-button-response","269","1547991","0.0-208.0","CAN_103","103","","","","","","398","","0","turquoise","mustard","[""turquoise"",""mustard"",""low nameability""]","left-right","[""turquoise"",""mustard"",""low nameability""]","6","low nameability","58","left","trigger",""
"html-button-response","270","1548622","0.0-209.0-0.0","CAN_103","103","","","","","","624","<button class=""jspsych-btn""><img src=""stimuli/turquoise.png"" style=""width: 200px;height: 200px;""></button>","0","turquoise","mustard","[""turquoise"",""mustard"",""low nameability""]","left-right","[""turquoise"",""mustard"",""low nameability""]","6","low nameability","58","left","response","1"
"html-audio-button-response","271","1548826","0.0-209.0-1.0","CAN_103","103","","","","","","null","stimuli/bleep.m4a","null","turquoise","mustard","[""turquoise"",""mustard"",""low nameability""]","left-right","[""turquoise"",""mustard"",""low nameability""]","6","low nameability","58","left","audio_feedback","1"
"html-button-response","272","1549347","0.0-210.0","CAN_103","103","","","","","","null","<button class=""jspsych-btn""><img src=""stimuli/white_square.png"" style=""width: 200px;height: 200px;""></button>","null","turquoise","mustard","[""turquoise"",""mustard"",""low nameability""]","left-right","[""turquoise"",""mustard"",""low nameability""]","6","low nameability","58","left","iti",""
"html-button-response","273","1549797","0.0-211.0","CAN_103","103","","","","","","435","","0","mustard","lightred","[""mustard"",""lightred"",""low nameability""]","left-right","[""mustard"",""lightred"",""low nameability""]","6","low nameability","59","left","trigger",""
"html-button-response","274","1550415","0.0-212.0-0.0","CAN_103","103","","","","","","610","<button class=""jspsych-btn""><img src=""stimuli/mustard.png"" style=""width: 200px;height: 200px;""></button>","0","mustard","lightred","[""mustard"",""lightred"",""low nameability""]","left-right","[""mustard"",""lightred"",""low nameability""]","6","low nameability","59","left","response","1"
"html-audio-button-response","275","1550622","0.0-212.0-1.0","CAN_103","103","","","","","","null","stimuli/bleep.m4a","null","mustard","lightred","[""mustard"",""lightred"",""low nameability""]","left-right","[""mustard"",""lightred"",""low nameability""]","6","low nameability","59","left","audio_feedback","1"
"html-button-response","276","1551142","0.0-213.0","CAN_103","103","","","","","","null","<button class=""jspsych-btn""><img src=""stimuli/white_square.png"" style=""width: 200px;height: 200px;""></button>","null","mustard","lightred","[""mustard"",""lightred"",""low nameability""]","left-right","[""mustard"",""lightred"",""low nameability""]","6","low nameability","59","left","iti",""
"html-button-response","277","1551593","0.0-214.0","CAN_103","103","","","","","","430","","0","blue","purple","[""blue"",""purple"",""high nameability""]","left-right","[""blue"",""purple"",""high nameability""]","6","high nameability","60","left","trigger",""
"html-button-response","278","1552182","0.0-215.0-0.0","CAN_103","103","","","","","","581","<button class=""jspsych-btn""><img src=""stimuli/blue.png"" style=""width: 200px;height: 200px;""></button>","0","blue","purple","[""blue"",""purple"",""high nameability""]","left-right","[""blue"",""purple"",""high nameability""]","6","high nameability","60","left","response","1"
"html-audio-button-response","279","1552386","0.0-215.0-1.0","CAN_103","103","","","","","","null","stimuli/bleep.m4a","null","blue","purple","[""blue"",""purple"",""high nameability""]","left-right","[""blue"",""purple"",""high nameability""]","6","high nameability","60","left","audio_feedback","1"
"html-button-response","280","1552907","0.0-216.0","CAN_103","103","","","","","","null","<button class=""jspsych-btn""><img src=""stimuli/white_square.png"" style=""width: 200px;height: 200px;""></button>","null","blue","purple","[""blue"",""purple"",""high nameability""]","left-right","[""blue"",""purple"",""high nameability""]","6","high nameability","60","left","iti",""
