"trial_type","trial_index","time_elapsed","internal_node_id","subject_id","seed","success","timeout","failed_images","failed_audio","failed_video","rt","stimulus","response","target","foil","choices","combination_order","choices_in_order","round","condition","trial_counter","target_location","trial_kind","correct"
"pavlovia","0","35","0.0-0.0","CAN_131","131","","","","","","","","","","","","","","","","","","",""
"preload","1","762","0.0-1.0","CAN_131","131","true","false","[]","[]","[]","","","","","","","","","","","","","",""
"fullscreen","2","3124","0.0-2.0","CAN_131","131","true","","","","","","","","","","","","","","","","","",""
"html-button-response","3","25540","0.0-3.0","CAN_131","131","","","","","","22388","","0","","","","","","","","","","",""
"html-button-response","4","32709","0.0-4.0","CAN_131","131","","","","","","7157","","0","star","square","[""square"",""star""]","left-right","[""square"",""star""]","1","practice","1","right","trigger",""
"html-button-response","5","35955","0.0-5.0-0.0","CAN_131","131","","","","","","3234","<button class=""jspsych-btn""><img src=""stimuli/star.png"" style=""width: 200px;height: 200px;""></button>","1","star","square","[""square"",""star""]","left-right","[""square"",""star""]","1","practice","1","right","response","1"
"html-audio-button-response","6","36165","0.0-5.0-1.0","CAN_131","131","","","","","","null","stimuli/bleep.m4a","null","star","square","[""square"",""star""]","left-right","[""square"",""star""]","1","practice","1","right","audio_feedback","1"
"html-button-response","7","36692","0.0-6.0","CAN_131","131","","","","","","null","<button class=""jspsych-btn""><img src=""stimuli/white_square.png"" style=""width: 200px;height: 200px;""></button>","null","star","square","[""square"",""star""]","left-right","[""square"",""star""]","1","practice","1","right","iti",""
"html-button-response","8","38086","0.0-7.0","CAN_131","131","","","","","","1375","","0","triangle","pentagram","[""triangle"",""pentagram""]","left-right","[""triangle"",""pentagram""]","1","practice","1","left","trigger",""
"html-button-response","9","39003","0.0-8.0-0.0","CAN_131","131","","","","","","907","<button class=""jspsych-btn""><img src=""stimuli/triangle.png"" style=""width: 200px;height: 200px;""></button>","0","triangle","pentagram","[""triangle"",""pentagram""]","left-right","[""triangle"",""pentagram""]","1","practice","1","left","response","1"
"html-audio-button-response","10","39212","0.0-8.0-1.0","CAN_131","131","","","","","","null","stimuli/bleep.m4a","null","triangle","pentagram","[""triangle"",""pentagram""]","left-right","[""triangle"",""pentagram""]","1","practice","1","left","audio_feedback","1"
"html-button-response","11","39742","0.0-9.0","CAN_131","131","","","","","","null","<button class=""jspsych-btn""><img src=""stimuli/white_square.png"" style=""width: 200px;height: 200px;""></button>","null","triangle","pentagram","[""triangle"",""pentagram""]","left-right","[""triangle"",""pentagram""]","1","practice","1","left","iti",""
"html-button-response","12","40299","0.0-10.0","CAN_131","131","","","","","","537","","0","diamond","rectangle","[""rectangle"",""diamond""]","left-right","[""rectangle"",""diamond""]","1","practice","1","right","trigger",""
"html-button-response","13","41416","0.0-11.0-0.0","CAN_131","131","","","","","","1110","<button class=""jspsych-btn""><img src=""stimuli/diamond.png"" style=""width: 200px;height: 200px;""></button>","1","diamond","rectangle","[""rectangle"",""diamond""]","left-right","[""rectangle"",""diamond""]","1","practice","1","right","response","1"
"html-audio-button-response","14","41623","0.0-11.0-1.0","CAN_131","131","","","","","","null","stimuli/bleep.m4a","null","diamond","rectangle","[""rectangle"",""diamond""]","left-right","[""rectangle"",""diamond""]","1","practice","1","right","audio_feedback","1"
"html-button-response","15","42143","0.0-12.0","CAN_131","131","","","","","","null","<button class=""jspsych-btn""><img src=""stimuli/white_square.png"" style=""width: 200px;height: 200px;""></button>","null","diamond","rectangle","[""rectangle"",""diamond""]","left-right","[""rectangle"",""diamond""]","1","practice","1","right","iti",""
"html-button-response","16","42604","0.0-13.0","CAN_131","131","","","","","","447","","0","pentagram","star","[""pentagram"",""star""]","left-right","[""pentagram"",""star""]","1","practice","1","left","trigger",""
"html-button-response","17","43363","0.0-14.0-0.0","CAN_131","131","","","","","","753","<button class=""jspsych-btn""><img src=""stimuli/pentagram.png"" style=""width: 200px;height: 200px;""></button>","0","pentagram","star","[""pentagram"",""star""]","left-right","[""pentagram"",""star""]","1","practice","1","left","response","1"
"html-audio-button-response","18","43572","0.0-14.0-1.0","CAN_131","131","","","","","","null","stimuli/bleep.m4a","null","pentagram","star","[""pentagram"",""star""]","left-right","[""pentagram"",""star""]","1","practice","1","left","audio_feedback","1"
"html-button-response","19","44090","0.0-15.0","CAN_131","131","","","","","","null","<button class=""jspsych-btn""><img src=""stimuli/white_square.png"" style=""width: 200px;height: 200px;""></button>","null","pentagram","star","[""pentagram"",""star""]","left-right","[""pentagram"",""star""]","1","practice","1","left","iti",""
"html-button-response","20","55332","0.0-16.0","CAN_131","131","","","","","","11229","","0","","","","","","","","","","",""
"html-button-response","21","57287","0.0-17.0","CAN_131","131","","","","","","1949","","0","yellow","orange","[""yellow"",""orange"",""high nameability""]","right-left","[""orange"",""yellow""]","1","high nameability","1","right","trigger",""
"html-button-response","22","57982","0.0-18.0-0.0","CAN_131","131","","","","","","683","<button class=""jspsych-btn""><img src=""stimuli/yellow.png"" style=""width: 200px;height: 200px;""></button>","1","yellow","orange","[""yellow"",""orange"",""high nameability""]","right-left","[""orange"",""yellow""]","1","high nameability","1","right","response","1"
"html-audio-button-response","23","58187","0.0-18.0-1.0","CAN_131","131","","","","","","null","stimuli/bleep.m4a","null","yellow","orange","[""yellow"",""orange"",""high nameability""]","right-left","[""orange"",""yellow""]","1","high nameability","1","right","audio_feedback","1"
"html-button-response","24","58709","0.0-19.0","CAN_131","131","","","","","","null","<button class=""jspsych-btn""><img src=""stimuli/white_square.png"" style=""width: 200px;height: 200px;""></button>","null","yellow","orange","[""yellow"",""orange"",""high nameability""]","right-left","[""orange"",""yellow""]","1","high nameability","1","right","iti",""
"html-button-response","25","59436","0.0-20.0","CAN_131","131","","","","","","705","","0","purple","blue","[""purple"",""blue"",""high nameability""]","right-left","[""blue"",""purple""]","1","high nameability","2","right","trigger",""
"html-button-response","26","60052","0.0-21.0-0.0","CAN_131","131","","","","","","606","<button class=""jspsych-btn""><img src=""stimuli/purple.png"" style=""width: 200px;height: 200px;""></button>","1","purple","blue","[""purple"",""blue"",""high nameability""]","right-left","[""blue"",""purple""]","1","high nameability","2","right","response","1"
"html-audio-button-response","27","60252","0.0-21.0-1.0","CAN_131","131","","","","","","null","stimuli/bleep.m4a","null","purple","blue","[""purple"",""blue"",""high nameability""]","right-left","[""blue"",""purple""]","1","high nameability","2","right","audio_feedback","1"
"html-button-response","28","60763","0.0-22.0","CAN_131","131","","","","","","null","<button class=""jspsych-btn""><img src=""stimuli/white_square.png"" style=""width: 200px;height: 200px;""></button>","null","purple","blue","[""purple"",""blue"",""high nameability""]","right-left","[""blue"",""purple""]","1","high nameability","2","right","iti",""
"html-button-response","29","61091","0.0-23.0","CAN_131","131","","","","","","312","","0","purple","orange","[""purple"",""orange"",""high nameability""]","left-right","[""purple"",""orange"",""high nameability""]","1","high nameability","3","left","trigger",""
"html-button-response","30","61740","0.0-24.0-0.0","CAN_131","131","","","","","","638","<button class=""jspsych-btn""><img src=""stimuli/purple.png"" style=""width: 200px;height: 200px;""></button>","0","purple","orange","[""purple"",""orange"",""high nameability""]","left-right","[""purple"",""orange"",""high nameability""]","1","high nameability","3","left","response","1"
"html-audio-button-response","31","61947","0.0-24.0-1.0","CAN_131","131","","","","","","null","stimuli/bleep.m4a","null","purple","orange","[""purple"",""orange"",""high nameability""]","left-right","[""purple"",""orange"",""high nameability""]","1","high nameability","3","left","audio_feedback","1"
"html-button-response","32","62467","0.0-25.0","CAN_131","131","","","","","","null","<button class=""jspsych-btn""><img src=""stimuli/white_square.png"" style=""width: 200px;height: 200px;""></button>","null","purple","orange","[""purple"",""orange"",""high nameability""]","left-right","[""purple"",""orange"",""high nameability""]","1","high nameability","3","left","iti",""
"html-button-response","33","62892","0.0-26.0","CAN_131","131","","","","","","408","","0","pink","darkgreenblue","[""pink"",""darkgreenblue"",""low nameability""]","left-right","[""pink"",""darkgreenblue"",""low nameability""]","1","low nameability","4","left","trigger",""
"html-button-response","34","63592","0.0-27.0-0.0","CAN_131","131","","","","","","693","<button class=""jspsych-btn""><img src=""stimuli/pink.png"" style=""width: 200px;height: 200px;""></button>","0","pink","darkgreenblue","[""pink"",""darkgreenblue"",""low nameability""]","left-right","[""pink"",""darkgreenblue"",""low nameability""]","1","low nameability","4","left","response","1"
"html-audio-button-response","35","63798","0.0-27.0-1.0","CAN_131","131","","","","","","null","stimuli/bleep.m4a","null","pink","darkgreenblue","[""pink"",""darkgreenblue"",""low nameability""]","left-right","[""pink"",""darkgreenblue"",""low nameability""]","1","low nameability","4","left","audio_feedback","1"
"html-button-response","36","64317","0.0-28.0","CAN_131","131","","","","","","null","<button class=""jspsych-btn""><img src=""stimuli/white_square.png"" style=""width: 200px;height: 200px;""></button>","null","pink","darkgreenblue","[""pink"",""darkgreenblue"",""low nameability""]","left-right","[""pink"",""darkgreenblue"",""low nameability""]","1","low nameability","4","left","iti",""
"html-button-response","37","64729","0.0-29.0","CAN_131","131","","","","","","393","","0","red","orange","[""red"",""orange"",""high nameability""]","left-right","[""red"",""orange"",""high nameability""]","1","high nameability","5","left","trigger",""
"html-button-response","38","65330","0.0-30.0-0.0","CAN_131","131","","","","","","592","<button class=""jspsych-btn""><img src=""stimuli/red.png"" style=""width: 200px;height: 200px;""></button>","0","red","orange","[""red"",""orange"",""high nameability""]","left-right","[""red"",""orange"",""high nameability""]","1","high nameability","5","left","response","1"
"html-audio-button-response","39","65535","0.0-30.0-1.0","CAN_131","131","","","","","","null","stimuli/bleep.m4a","null","red","orange","[""red"",""orange"",""high nameability""]","left-right","[""red"",""orange"",""high nameability""]","1","high nameability","5","left","audio_feedback","1"
"html-button-response","40","66059","0.0-31.0","CAN_131","131","","","","","","null","<button class=""jspsych-btn""><img src=""stimuli/white_square.png"" style=""width: 200px;height: 200px;""></button>","null","red","orange","[""red"",""orange"",""high nameability""]","left-right","[""red"",""orange"",""high nameability""]","1","high nameability","5","left","iti",""
"html-button-response","41","66472","0.0-32.0","CAN_131","131","","","","","","397","","0","turquoise","neonyellow","[""turquoise"",""neonyellow"",""low nameability""]","right-left","[""neonyellow"",""turquoise""]","1","low nameability","6","right","trigger",""
"html-button-response","42","67121","0.0-33.0-0.0","CAN_131","131","","","","","","642","<button class=""jspsych-btn""><img src=""stimuli/turquoise.png"" style=""width: 200px;height: 200px;""></button>","1","turquoise","neonyellow","[""turquoise"",""neonyellow"",""low nameability""]","right-left","[""neonyellow"",""turquoise""]","1","low nameability","6","right","response","1"
"html-audio-button-response","43","67330","0.0-33.0-1.0","CAN_131","131","","","","","","null","stimuli/bleep.m4a","null","turquoise","neonyellow","[""turquoise"",""neonyellow"",""low nameability""]","right-left","[""neonyellow"",""turquoise""]","1","low nameability","6","right","audio_feedback","1"
"html-button-response","44","67851","0.0-34.0","CAN_131","131","","","","","","null","<button class=""jspsych-btn""><img src=""stimuli/white_square.png"" style=""width: 200px;height: 200px;""></button>","null","turquoise","neonyellow","[""turquoise"",""neonyellow"",""low nameability""]","right-left","[""neonyellow"",""turquoise""]","1","low nameability","6","right","iti",""
"html-button-response","45","68217","0.0-35.0","CAN_131","131","","","","","","350","","0","mustard","darkgreenblue","[""mustard"",""darkgreenblue"",""low nameability""]","left-right","[""mustard"",""darkgreenblue"",""low nameability""]","1","low nameability","7","left","trigger",""
"html-button-response","46","68797","0.0-36.0-0.0","CAN_131","131","","","","","","569","<button class=""jspsych-btn""><img src=""stimuli/mustard.png"" style=""width: 200px;height: 200px;""></button>","0","mustard","darkgreenblue","[""mustard"",""darkgreenblue"",""low nameability""]","left-right","[""mustard"",""darkgreenblue"",""low nameability""]","1","low nameability","7","left","response","1"
"html-audio-button-response","47","69009","0.0-36.0-1.0","CAN_131","131","","","","","","null","stimuli/bleep.m4a","null","mustard","darkgreenblue","[""mustard"",""darkgreenblue"",""low nameability""]","left-right","[""mustard"",""darkgreenblue"",""low nameability""]","1","low nameability","7","left","audio_feedback","1"
"html-button-response","48","69527","0.0-37.0","CAN_131","131","","","","","","null","<button class=""jspsych-btn""><img src=""stimuli/white_square.png"" style=""width: 200px;height: 200px;""></button>","null","mustard","darkgreenblue","[""mustard"",""darkgreenblue"",""low nameability""]","left-right","[""mustard"",""darkgreenblue"",""low nameability""]","1","low nameability","7","left","iti",""
"html-button-response","49","69951","0.0-38.0","CAN_131","131","","","","","","407","","0","mustard","turquoise","[""mustard"",""turquoise"",""low nameability""]","right-left","[""turquoise"",""mustard""]","1","low nameability","8","right","trigger",""
"html-button-response","50","70602","0.0-39.0-0.0","CAN_131","131","","","","","","643","<button class=""jspsych-btn""><img src=""stimuli/mustard.png"" style=""width: 200px;height: 200px;""></button>","1","mustard","turquoise","[""mustard"",""turquoise"",""low nameability""]","right-left","[""turquoise"",""mustard""]","1","low nameability","8","right","response","1"
"html-audio-button-response","51","70809","0.0-39.0-1.0","CAN_131","131","","","","","","null","stimuli/bleep.m4a","null","mustard","turquoise","[""mustard"",""turquoise"",""low nameability""]","right-left","[""turquoise"",""mustard""]","1","low nameability","8","right","audio_feedback","1"
"html-button-response","52","71329","0.0-40.0","CAN_131","131","","","","","","null","<button class=""jspsych-btn""><img src=""stimuli/white_square.png"" style=""width: 200px;height: 200px;""></button>","null","mustard","turquoise","[""mustard"",""turquoise"",""low nameability""]","right-left","[""turquoise"",""mustard""]","1","low nameability","8","right","iti",""
"html-button-response","53","71769","0.0-41.0","CAN_131","131","","","","","","423","","0","pink","neonyellow","[""pink"",""neonyellow"",""low nameability""]","right-left","[""neonyellow"",""pink""]","1","low nameability","9","right","trigger",""
"html-button-response","54","72593","0.0-42.0-0.0","CAN_131","131","","","","","","816","<button class=""jspsych-btn""><img src=""stimuli/pink.png"" style=""width: 200px;height: 200px;""></button>","1","pink","neonyellow","[""pink"",""neonyellow"",""low nameability""]","right-left","[""neonyellow"",""pink""]","1","low nameability","9","right","response","1"
"html-audio-button-response","55","72798","0.0-42.0-1.0","CAN_131","131","","","","","","null","stimuli/bleep.m4a","null","pink","neonyellow","[""pink"",""neonyellow"",""low nameability""]","right-left","[""neonyellow"",""pink""]","1","low nameability","9","right","audio_feedback","1"
"html-button-response","56","73319","0.0-43.0","CAN_131","131","","","","","","null","<button class=""jspsych-btn""><img src=""stimuli/white_square.png"" style=""width: 200px;height: 200px;""></button>","null","pink","neonyellow","[""pink"",""neonyellow"",""low nameability""]","right-left","[""neonyellow"",""pink""]","1","low nameability","9","right","iti",""
"html-button-response","57","73730","0.0-44.0","CAN_131","131","","","","","","396","","0","neonyellow","lightred","[""neonyellow"",""lightred"",""low nameability""]","left-right","[""neonyellow"",""lightred"",""low nameability""]","1","low nameability","10","left","trigger",""
"html-button-response","58","75665","0.0-45.0-0.0","CAN_131","131","","","","","","1928","<button class=""jspsych-btn""><img src=""stimuli/neonyellow.png"" style=""width: 200px;height: 200px;""></button>","0","neonyellow","lightred","[""neonyellow"",""lightred"",""low nameability""]","left-right","[""neonyellow"",""lightred"",""low nameability""]","1","low nameability","10","left","response","1"
"html-audio-button-response","59","75870","0.0-45.0-1.0","CAN_131","131","","","","","","null","stimuli/bleep.m4a","null","neonyellow","lightred","[""neonyellow"",""lightred"",""low nameability""]","left-right","[""neonyellow"",""lightred"",""low nameability""]","1","low nameability","10","left","audio_feedback","1"
"html-button-response","60","76388","0.0-46.0","CAN_131","131","","","","","","null","<button class=""jspsych-btn""><img src=""stimuli/white_square.png"" style=""width: 200px;height: 200px;""></button>","null","neonyellow","lightred","[""neonyellow"",""lightred"",""low nameability""]","left-right","[""neonyellow"",""lightred"",""low nameability""]","1","low nameability","10","left","iti",""
"pavlovia","61","76477","0.0-47.0","CAN_131","131","","","","","","","","","","","","","","","","","","",""
"pavlovia","62","76488","0.0-48.0","CAN_131","131","","","","","","","","","","","","","","","","","","",""
"html-audio-button-response","63","78294","0.0-49.0","CAN_131","131","","","","","","1904","stimuli/tada.m4a","0","","","","","","","","","","",""
"html-button-response","64","84129","0.0-50.0","CAN_131","131","","","","","","5830","","0","","","","","","","","","","",""
"html-button-response","65","85012","0.0-51.0","CAN_131","131","","","","","","877","","0","lightred","neonyellow","[""lightred"",""neonyellow"",""low nameability""]","right-left","[""neonyellow"",""lightred""]","2","low nameability","11","right","trigger",""
"html-button-response","66","85637","0.0-52.0-0.0","CAN_131","131","","","","","","618","<button class=""jspsych-btn""><img src=""stimuli/lightred.png"" style=""width: 200px;height: 200px;""></button>","1","lightred","neonyellow","[""lightred"",""neonyellow"",""low nameability""]","right-left","[""neonyellow"",""lightred""]","2","low nameability","11","right","response","1"
"html-audio-button-response","67","85843","0.0-52.0-1.0","CAN_131","131","","","","","","null","stimuli/bleep.m4a","null","lightred","neonyellow","[""lightred"",""neonyellow"",""low nameability""]","right-left","[""neonyellow"",""lightred""]","2","low nameability","11","right","audio_feedback","1"
"html-button-response","68","86361","0.0-53.0","CAN_131","131","","","","","","null","<button class=""jspsych-btn""><img src=""stimuli/white_square.png"" style=""width: 200px;height: 200px;""></button>","null","lightred","neonyellow","[""lightred"",""neonyellow"",""low nameability""]","right-left","[""neonyellow"",""lightred""]","2","low nameability","11","right","iti",""
"html-button-response","69","86947","0.0-54.0","CAN_131","131","","","","","","564","","0","mustard","lightred","[""mustard"",""lightred"",""low nameability""]","left-right","[""mustard"",""lightred"",""low nameability""]","2","low nameability","12","left","trigger",""
"html-button-response","70","87491","0.0-55.0-0.0","CAN_131","131","","","","","","536","<button class=""jspsych-btn""><img src=""stimuli/mustard.png"" style=""width: 200px;height: 200px;""></button>","0","mustard","lightred","[""mustard"",""lightred"",""low nameability""]","left-right","[""mustard"",""lightred"",""low nameability""]","2","low nameability","12","left","response","1"
"html-audio-button-response","71","87695","0.0-55.0-1.0","CAN_131","131","","","","","","null","stimuli/bleep.m4a","null","mustard","lightred","[""mustard"",""lightred"",""low nameability""]","left-right","[""mustard"",""lightred"",""low nameability""]","2","low nameability","12","left","audio_feedback","1"
"html-button-response","72","88219","0.0-56.0","CAN_131","131","","","","","","null","<button class=""jspsych-btn""><img src=""stimuli/white_square.png"" style=""width: 200px;height: 200px;""></button>","null","mustard","lightred","[""mustard"",""lightred"",""low nameability""]","left-right","[""mustard"",""lightred"",""low nameability""]","2","low nameability","12","left","iti",""
"html-button-response","73","88859","0.0-57.0","CAN_131","131","","","","","","620","","0","lightred","pink","[""lightred"",""pink"",""low nameability""]","right-left","[""pink"",""lightred""]","2","low nameability","13","right","trigger",""
"html-button-response","74","90320","0.0-58.0-0.0","CAN_131","131","","","","","","1453","<button class=""jspsych-btn""><img src=""stimuli/lightred.png"" style=""width: 200px;height: 200px;""></button>","1","lightred","pink","[""lightred"",""pink"",""low nameability""]","right-left","[""pink"",""lightred""]","2","low nameability","13","right","response","1"
"html-audio-button-response","75","90527","0.0-58.0-1.0","CAN_131","131","","","","","","null","stimuli/bleep.m4a","null","lightred","pink","[""lightred"",""pink"",""low nameability""]","right-left","[""pink"",""lightred""]","2","low nameability","13","right","audio_feedback","1"
"html-button-response","76","91046","0.0-59.0","CAN_131","131","","","","","","null","<button class=""jspsych-btn""><img src=""stimuli/white_square.png"" style=""width: 200px;height: 200px;""></button>","null","lightred","pink","[""lightred"",""pink"",""low nameability""]","right-left","[""pink"",""lightred""]","2","low nameability","13","right","iti",""
"html-button-response","77","91508","0.0-60.0","CAN_131","131","","","","","","444","","0","blue","brown","[""blue"",""brown"",""high nameability""]","right-left","[""brown"",""blue""]","2","high nameability","14","right","trigger",""
"html-button-response","78","92100","0.0-61.0-0.0","CAN_131","131","","","","","","583","<button class=""jspsych-btn""><img src=""stimuli/blue.png"" style=""width: 200px;height: 200px;""></button>","1","blue","brown","[""blue"",""brown"",""high nameability""]","right-left","[""brown"",""blue""]","2","high nameability","14","right","response","1"
"html-audio-button-response","79","92304","0.0-61.0-1.0","CAN_131","131","","","","","","null","stimuli/bleep.m4a","null","blue","brown","[""blue"",""brown"",""high nameability""]","right-left","[""brown"",""blue""]","2","high nameability","14","right","audio_feedback","1"
"html-button-response","80","92820","0.0-62.0","CAN_131","131","","","","","","null","<button class=""jspsych-btn""><img src=""stimuli/white_square.png"" style=""width: 200px;height: 200px;""></button>","null","blue","brown","[""blue"",""brown"",""high nameability""]","right-left","[""brown"",""blue""]","2","high nameability","14","right","iti",""
"html-button-response","81","93231","0.0-63.0","CAN_131","131","","","","","","395","","0","pink","turquoise","[""pink"",""turquoise"",""low nameability""]","right-left","[""turquoise"",""pink""]","2","low nameability","15","right","trigger",""
"html-button-response","82","93931","0.0-64.0-0.0","CAN_131","131","","","","","","693","<button class=""jspsych-btn""><img src=""stimuli/pink.png"" style=""width: 200px;height: 200px;""></button>","1","pink","turquoise","[""pink"",""turquoise"",""low nameability""]","right-left","[""turquoise"",""pink""]","2","low nameability","15","right","response","1"
"html-audio-button-response","83","94134","0.0-64.0-1.0","CAN_131","131","","","","","","null","stimuli/bleep.m4a","null","pink","turquoise","[""pink"",""turquoise"",""low nameability""]","right-left","[""turquoise"",""pink""]","2","low nameability","15","right","audio_feedback","1"
"html-button-response","84","94656","0.0-65.0","CAN_131","131","","","","","","null","<button class=""jspsych-btn""><img src=""stimuli/white_square.png"" style=""width: 200px;height: 200px;""></button>","null","pink","turquoise","[""pink"",""turquoise"",""low nameability""]","right-left","[""turquoise"",""pink""]","2","low nameability","15","right","iti",""
"html-button-response","85","95348","0.0-66.0","CAN_131","131","","","","","","675","","0","orange","purple","[""orange"",""purple"",""high nameability""]","left-right","[""orange"",""purple"",""high nameability""]","2","high nameability","16","left","trigger",""
"html-button-response","86","96879","0.0-67.0-0.0","CAN_131","131","","","","","","1524","<button class=""jspsych-btn""><img src=""stimuli/orange.png"" style=""width: 200px;height: 200px;""></button>","0","orange","purple","[""orange"",""purple"",""high nameability""]","left-right","[""orange"",""purple"",""high nameability""]","2","high nameability","16","left","response","1"
"html-audio-button-response","87","97088","0.0-67.0-1.0","CAN_131","131","","","","","","null","stimuli/bleep.m4a","null","orange","purple","[""orange"",""purple"",""high nameability""]","left-right","[""orange"",""purple"",""high nameability""]","2","high nameability","16","left","audio_feedback","1"
"html-button-response","88","97612","0.0-68.0","CAN_131","131","","","","","","null","<button class=""jspsych-btn""><img src=""stimuli/white_square.png"" style=""width: 200px;height: 200px;""></button>","null","orange","purple","[""orange"",""purple"",""high nameability""]","left-right","[""orange"",""purple"",""high nameability""]","2","high nameability","16","left","iti",""
"html-button-response","89","98146","0.0-69.0","CAN_131","131","","","","","","513","","0","orange","blue","[""orange"",""blue"",""high nameability""]","right-left","[""blue"",""orange""]","2","high nameability","17","right","trigger",""
"html-button-response","90","98779","0.0-70.0-0.0","CAN_131","131","","","","","","626","<button class=""jspsych-btn""><img src=""stimuli/orange.png"" style=""width: 200px;height: 200px;""></button>","1","orange","blue","[""orange"",""blue"",""high nameability""]","right-left","[""blue"",""orange""]","2","high nameability","17","right","response","1"
"html-audio-button-response","91","98983","0.0-70.0-1.0","CAN_131","131","","","","","","null","stimuli/bleep.m4a","null","orange","blue","[""orange"",""blue"",""high nameability""]","right-left","[""blue"",""orange""]","2","high nameability","17","right","audio_feedback","1"
"html-button-response","92","99503","0.0-71.0","CAN_131","131","","","","","","null","<button class=""jspsych-btn""><img src=""stimuli/white_square.png"" style=""width: 200px;height: 200px;""></button>","null","orange","blue","[""orange"",""blue"",""high nameability""]","right-left","[""blue"",""orange""]","2","high nameability","17","right","iti",""
"html-button-response","93","99980","0.0-72.0","CAN_131","131","","","","","","458","","0","brown","purple","[""brown"",""purple"",""high nameability""]","right-left","[""purple"",""brown""]","2","high nameability","18","right","trigger",""
"html-button-response","94","100633","0.0-73.0-0.0","CAN_131","131","","","","","","645","<button class=""jspsych-btn""><img src=""stimuli/brown.png"" style=""width: 200px;height: 200px;""></button>","1","brown","purple","[""brown"",""purple"",""high nameability""]","right-left","[""purple"",""brown""]","2","high nameability","18","right","response","1"
"html-audio-button-response","95","100837","0.0-73.0-1.0","CAN_131","131","","","","","","null","stimuli/bleep.m4a","null","brown","purple","[""brown"",""purple"",""high nameability""]","right-left","[""purple"",""brown""]","2","high nameability","18","right","audio_feedback","1"
"html-button-response","96","101358","0.0-74.0","CAN_131","131","","","","","","null","<button class=""jspsych-btn""><img src=""stimuli/white_square.png"" style=""width: 200px;height: 200px;""></button>","null","brown","purple","[""brown"",""purple"",""high nameability""]","right-left","[""purple"",""brown""]","2","high nameability","18","right","iti",""
"html-button-response","97","101929","0.0-75.0","CAN_131","131","","","","","","553","","0","red","brown","[""red"",""brown"",""high nameability""]","left-right","[""red"",""brown"",""high nameability""]","2","high nameability","19","left","trigger",""
"html-button-response","98","102500","0.0-76.0-0.0","CAN_131","131","","","","","","565","<button class=""jspsych-btn""><img src=""stimuli/red.png"" style=""width: 200px;height: 200px;""></button>","0","red","brown","[""red"",""brown"",""high nameability""]","left-right","[""red"",""brown"",""high nameability""]","2","high nameability","19","left","response","1"
"html-audio-button-response","99","102705","0.0-76.0-1.0","CAN_131","131","","","","","","null","stimuli/bleep.m4a","null","red","brown","[""red"",""brown"",""high nameability""]","left-right","[""red"",""brown"",""high nameability""]","2","high nameability","19","left","audio_feedback","1"
"html-button-response","100","103228","0.0-77.0","CAN_131","131","","","","","","null","<button class=""jspsych-btn""><img src=""stimuli/white_square.png"" style=""width: 200px;height: 200px;""></button>","null","red","brown","[""red"",""brown"",""high nameability""]","left-right","[""red"",""brown"",""high nameability""]","2","high nameability","19","left","iti",""
"html-button-response","101","103662","0.0-78.0","CAN_131","131","","","","","","419","","0","lightred","turquoise","[""lightred"",""turquoise"",""low nameability""]","right-left","[""turquoise"",""lightred""]","2","low nameability","20","right","trigger",""
"html-button-response","102","104257","0.0-79.0-0.0","CAN_131","131","","","","","","585","<button class=""jspsych-btn""><img src=""stimuli/lightred.png"" style=""width: 200px;height: 200px;""></button>","1","lightred","turquoise","[""lightred"",""turquoise"",""low nameability""]","right-left","[""turquoise"",""lightred""]","2","low nameability","20","right","response","1"
"html-audio-button-response","103","104461","0.0-79.0-1.0","CAN_131","131","","","","","","null","stimuli/bleep.m4a","null","lightred","turquoise","[""lightred"",""turquoise"",""low nameability""]","right-left","[""turquoise"",""lightred""]","2","low nameability","20","right","audio_feedback","1"
"html-button-response","104","104974","0.0-80.0","CAN_131","131","","","","","","null","<button class=""jspsych-btn""><img src=""stimuli/white_square.png"" style=""width: 200px;height: 200px;""></button>","null","lightred","turquoise","[""lightred"",""turquoise"",""low nameability""]","right-left","[""turquoise"",""lightred""]","2","low nameability","20","right","iti",""
"pavlovia","105","105043","0.0-81.0","CAN_131","131","","","","","","","","","","","","","","","","","","",""
"pavlovia","106","105049","0.0-82.0","CAN_131","131","","","","","","","","","","","","","","","","","","",""
"html-audio-button-response","107","106912","0.0-83.0","CAN_131","131","","","","","","1936","stimuli/tada.m4a","0","","","","","","","","","","",""
"html-button-response","108","107548","0.0-84.0","CAN_131","131","","","","","","629","","0","","","","","","","","","","",""
"html-button-response","109","108344","0.0-85.0","CAN_131","131","","","","","","789","","0","darkgreenblue","lightred","[""darkgreenblue"",""lightred"",""low nameability""]","left-right","[""darkgreenblue"",""lightred"",""low nameability""]","3","low nameability","21","left","trigger",""
"html-button-response","110","108972","0.0-86.0-0.0","CAN_131","131","","","","","","622","<button class=""jspsych-btn""><img src=""stimuli/darkgreenblue.png"" style=""width: 200px;height: 200px;""></button>","0","darkgreenblue","lightred","[""darkgreenblue"",""lightred"",""low nameability""]","left-right","[""darkgreenblue"",""lightred"",""low nameability""]","3","low nameability","21","left","response","1"
"html-audio-button-response","111","109174","0.0-86.0-1.0","CAN_131","131","","","","","","null","stimuli/bleep.m4a","null","darkgreenblue","lightred","[""darkgreenblue"",""lightred"",""low nameability""]","left-right","[""darkgreenblue"",""lightred"",""low nameability""]","3","low nameability","21","left","audio_feedback","1"
"html-button-response","112","109689","0.0-87.0","CAN_131","131","","","","","","null","<button class=""jspsych-btn""><img src=""stimuli/white_square.png"" style=""width: 200px;height: 200px;""></button>","null","darkgreenblue","lightred","[""darkgreenblue"",""lightred"",""low nameability""]","left-right","[""darkgreenblue"",""lightred"",""low nameability""]","3","low nameability","21","left","iti",""
"html-button-response","113","110217","0.0-88.0","CAN_131","131","","","","","","513","","0","turquoise","darkgreenblue","[""turquoise"",""darkgreenblue"",""low nameability""]","left-right","[""turquoise"",""darkgreenblue"",""low nameability""]","3","low nameability","22","left","trigger",""
"html-button-response","114","110841","0.0-89.0-0.0","CAN_131","131","","","","","","619","<button class=""jspsych-btn""><img src=""stimuli/turquoise.png"" style=""width: 200px;height: 200px;""></button>","0","turquoise","darkgreenblue","[""turquoise"",""darkgreenblue"",""low nameability""]","left-right","[""turquoise"",""darkgreenblue"",""low nameability""]","3","low nameability","22","left","response","1"
"html-audio-button-response","115","111046","0.0-89.0-1.0","CAN_131","131","","","","","","null","stimuli/bleep.m4a","null","turquoise","darkgreenblue","[""turquoise"",""darkgreenblue"",""low nameability""]","left-right","[""turquoise"",""darkgreenblue"",""low nameability""]","3","low nameability","22","left","audio_feedback","1"
"html-button-response","116","111562","0.0-90.0","CAN_131","131","","","","","","null","<button class=""jspsych-btn""><img src=""stimuli/white_square.png"" style=""width: 200px;height: 200px;""></button>","null","turquoise","darkgreenblue","[""turquoise"",""darkgreenblue"",""low nameability""]","left-right","[""turquoise"",""darkgreenblue"",""low nameability""]","3","low nameability","22","left","iti",""
"html-button-response","117","112083","0.0-91.0","CAN_131","131","","","","","","506","","0","red","purple","[""red"",""purple"",""high nameability""]","left-right","[""red"",""purple"",""high nameability""]","3","high nameability","23","left","trigger",""
"html-button-response","118","112672","0.0-92.0-0.0","CAN_131","131","","","","","","580","<button class=""jspsych-btn""><img src=""stimuli/red.png"" style=""width: 200px;height: 200px;""></button>","0","red","purple","[""red"",""purple"",""high nameability""]","left-right","[""red"",""purple"",""high nameability""]","3","high nameability","23","left","response","1"
"html-audio-button-response","119","112874","0.0-92.0-1.0","CAN_131","131","","","","","","null","stimuli/bleep.m4a","null","red","purple","[""red"",""purple"",""high nameability""]","left-right","[""red"",""purple"",""high nameability""]","3","high nameability","23","left","audio_feedback","1"
"html-button-response","120","113389","0.0-93.0","CAN_131","131","","","","","","null","<button class=""jspsych-btn""><img src=""stimuli/white_square.png"" style=""width: 200px;height: 200px;""></button>","null","red","purple","[""red"",""purple"",""high nameability""]","left-right","[""red"",""purple"",""high nameability""]","3","high nameability","23","left","iti",""
"html-button-response","121","113933","0.0-94.0","CAN_131","131","","","","","","528","","0","blue","red","[""blue"",""red"",""high nameability""]","left-right","[""blue"",""red"",""high nameability""]","3","high nameability","24","left","trigger",""
"html-button-response","122","114512","0.0-95.0-0.0","CAN_131","131","","","","","","572","<button class=""jspsych-btn""><img src=""stimuli/blue.png"" style=""width: 200px;height: 200px;""></button>","0","blue","red","[""blue"",""red"",""high nameability""]","left-right","[""blue"",""red"",""high nameability""]","3","high nameability","24","left","response","1"
"html-audio-button-response","123","114715","0.0-95.0-1.0","CAN_131","131","","","","","","null","stimuli/bleep.m4a","null","blue","red","[""blue"",""red"",""high nameability""]","left-right","[""blue"",""red"",""high nameability""]","3","high nameability","24","left","audio_feedback","1"
"html-button-response","124","115234","0.0-96.0","CAN_131","131","","","","","","null","<button class=""jspsych-btn""><img src=""stimuli/white_square.png"" style=""width: 200px;height: 200px;""></button>","null","blue","red","[""blue"",""red"",""high nameability""]","left-right","[""blue"",""red"",""high nameability""]","3","high nameability","24","left","iti",""
"html-button-response","125","115846","0.0-97.0","CAN_131","131","","","","","","596","","0","lightred","mustard","[""lightred"",""mustard"",""low nameability""]","left-right","[""lightred"",""mustard"",""low nameability""]","3","low nameability","25","left","trigger",""
"html-button-response","126","116378","0.0-98.0-0.0","CAN_131","131","","","","","","523","<button class=""jspsych-btn""><img src=""stimuli/lightred.png"" style=""width: 200px;height: 200px;""></button>","0","lightred","mustard","[""lightred"",""mustard"",""low nameability""]","left-right","[""lightred"",""mustard"",""low nameability""]","3","low nameability","25","left","response","1"
"html-audio-button-response","127","116582","0.0-98.0-1.0","CAN_131","131","","","","","","null","stimuli/bleep.m4a","null","lightred","mustard","[""lightred"",""mustard"",""low nameability""]","left-right","[""lightred"",""mustard"",""low nameability""]","3","low nameability","25","left","audio_feedback","1"
"html-button-response","128","117102","0.0-99.0","CAN_131","131","","","","","","null","<button class=""jspsych-btn""><img src=""stimuli/white_square.png"" style=""width: 200px;height: 200px;""></button>","null","lightred","mustard","[""lightred"",""mustard"",""low nameability""]","left-right","[""lightred"",""mustard"",""low nameability""]","3","low nameability","25","left","iti",""
"html-button-response","129","117698","0.0-100.0","CAN_131","131","","","","","","582","","0","turquoise","lightred","[""turquoise"",""lightred"",""low nameability""]","right-left","[""lightred"",""turquoise""]","3","low nameability","26","right","trigger",""
"html-button-response","130","118410","0.0-101.0-0.0","CAN_131","131","","","","","","704","<button class=""jspsych-btn""><img src=""stimuli/turquoise.png"" style=""width: 200px;height: 200px;""></button>","1","turquoise","lightred","[""turquoise"",""lightred"",""low nameability""]","right-left","[""lightred"",""turquoise""]","3","low nameability","26","right","response","1"
"html-audio-button-response","131","118615","0.0-101.0-1.0","CAN_131","131","","","","","","null","stimuli/bleep.m4a","null","turquoise","lightred","[""turquoise"",""lightred"",""low nameability""]","right-left","[""lightred"",""turquoise""]","3","low nameability","26","right","audio_feedback","1"
"html-button-response","132","119134","0.0-102.0","CAN_131","131","","","","","","null","<button class=""jspsych-btn""><img src=""stimuli/white_square.png"" style=""width: 200px;height: 200px;""></button>","null","turquoise","lightred","[""turquoise"",""lightred"",""low nameability""]","right-left","[""lightred"",""turquoise""]","3","low nameability","26","right","iti",""
"html-button-response","133","119753","0.0-103.0","CAN_131","131","","","","","","603","","0","red","blue","[""red"",""blue"",""high nameability""]","left-right","[""red"",""blue"",""high nameability""]","3","high nameability","27","left","trigger",""
"html-button-response","134","120285","0.0-104.0-0.0","CAN_131","131","","","","","","523","<button class=""jspsych-btn""><img src=""stimuli/red.png"" style=""width: 200px;height: 200px;""></button>","0","red","blue","[""red"",""blue"",""high nameability""]","left-right","[""red"",""blue"",""high nameability""]","3","high nameability","27","left","response","1"
"html-audio-button-response","135","120491","0.0-104.0-1.0","CAN_131","131","","","","","","null","stimuli/bleep.m4a","null","red","blue","[""red"",""blue"",""high nameability""]","left-right","[""red"",""blue"",""high nameability""]","3","high nameability","27","left","audio_feedback","1"
"html-button-response","136","121008","0.0-105.0","CAN_131","131","","","","","","null","<button class=""jspsych-btn""><img src=""stimuli/white_square.png"" style=""width: 200px;height: 200px;""></button>","null","red","blue","[""red"",""blue"",""high nameability""]","left-right","[""red"",""blue"",""high nameability""]","3","high nameability","27","left","iti",""
"html-button-response","137","121629","0.0-106.0","CAN_131","131","","","","","","606","","0","neonyellow","darkgreenblue","[""neonyellow"",""darkgreenblue"",""low nameability""]","right-left","[""darkgreenblue"",""neonyellow""]","3","low nameability","28","right","trigger",""
"html-button-response","138","122298","0.0-107.0-0.0","CAN_131","131","","","","","","661","<button class=""jspsych-btn""><img src=""stimuli/neonyellow.png"" style=""width: 200px;height: 200px;""></button>","1","neonyellow","darkgreenblue","[""neonyellow"",""darkgreenblue"",""low nameability""]","right-left","[""darkgreenblue"",""neonyellow""]","3","low nameability","28","right","response","1"
"html-audio-button-response","139","122502","0.0-107.0-1.0","CAN_131","131","","","","","","null","stimuli/bleep.m4a","null","neonyellow","darkgreenblue","[""neonyellow"",""darkgreenblue"",""low nameability""]","right-left","[""darkgreenblue"",""neonyellow""]","3","low nameability","28","right","audio_feedback","1"
"html-button-response","140","123023","0.0-108.0","CAN_131","131","","","","","","null","<button class=""jspsych-btn""><img src=""stimuli/white_square.png"" style=""width: 200px;height: 200px;""></button>","null","neonyellow","darkgreenblue","[""neonyellow"",""darkgreenblue"",""low nameability""]","right-left","[""darkgreenblue"",""neonyellow""]","3","low nameability","28","right","iti",""
"html-button-response","141","123664","0.0-109.0","CAN_131","131","","","","","","619","","0","turquoise","mustard","[""turquoise"",""mustard"",""low nameability""]","left-right","[""turquoise"",""mustard"",""low nameability""]","3","low nameability","29","left","trigger",""
"html-button-response","142","124279","0.0-110.0-0.0","CAN_131","131","","","","","","607","<button class=""jspsych-btn""><img src=""stimuli/turquoise.png"" style=""width: 200px;height: 200px;""></button>","0","turquoise","mustard","[""turquoise"",""mustard"",""low nameability""]","left-right","[""turquoise"",""mustard"",""low nameability""]","3","low nameability","29","left","response","1"
"html-audio-button-response","143","124483","0.0-110.0-1.0","CAN_131","131","","","","","","null","stimuli/bleep.m4a","null","turquoise","mustard","[""turquoise"",""mustard"",""low nameability""]","left-right","[""turquoise"",""mustard"",""low nameability""]","3","low nameability","29","left","audio_feedback","1"
"html-button-response","144","125005","0.0-111.0","CAN_131","131","","","","","","null","<button class=""jspsych-btn""><img src=""stimuli/white_square.png"" style=""width: 200px;height: 200px;""></button>","null","turquoise","mustard","[""turquoise"",""mustard"",""low nameability""]","left-right","[""turquoise"",""mustard"",""low nameability""]","3","low nameability","29","left","iti",""
"html-button-response","145","125721","0.0-112.0","CAN_131","131","","","","","","700","","0","neonyellow","turquoise","[""neonyellow"",""turquoise"",""low nameability""]","right-left","[""turquoise"",""neonyellow""]","3","low nameability","30","right","trigger",""
"html-button-response","146","126384","0.0-113.0-0.0","CAN_131","131","","","","","","655","<button class=""jspsych-btn""><img src=""stimuli/neonyellow.png"" style=""width: 200px;height: 200px;""></button>","1","neonyellow","turquoise","[""neonyellow"",""turquoise"",""low nameability""]","right-left","[""turquoise"",""neonyellow""]","3","low nameability","30","right","response","1"
"html-audio-button-response","147","126590","0.0-113.0-1.0","CAN_131","131","","","","","","null","stimuli/bleep.m4a","null","neonyellow","turquoise","[""neonyellow"",""turquoise"",""low nameability""]","right-left","[""turquoise"",""neonyellow""]","3","low nameability","30","right","audio_feedback","1"
"html-button-response","148","127111","0.0-114.0","CAN_131","131","","","","","","null","<button class=""jspsych-btn""><img src=""stimuli/white_square.png"" style=""width: 200px;height: 200px;""></button>","null","neonyellow","turquoise","[""neonyellow"",""turquoise"",""low nameability""]","right-left","[""turquoise"",""neonyellow""]","3","low nameability","30","right","iti",""
"pavlovia","149","127155","0.0-115.0","CAN_131","131","","","","","","","","","","","","","","","","","","",""
"pavlovia","150","127166","0.0-116.0","CAN_131","131","","","","","","","","","","","","","","","","","","",""
"html-audio-button-response","151","128983","0.0-117.0","CAN_131","131","","","","","","1867","stimuli/tada.m4a","0","","","","","","","","","","",""
"html-button-response","152","129689","0.0-118.0","CAN_131","131","","","","","","697","","0","","","","","","","","","","",""
"html-button-response","153","130422","0.0-119.0","CAN_131","131","","","","","","727","","0","blue","purple","[""blue"",""purple"",""high nameability""]","left-right","[""blue"",""purple"",""high nameability""]","4","high nameability","31","left","trigger",""
"html-button-response","154","131089","0.0-120.0-0.0","CAN_131","131","","","","","","659","<button class=""jspsych-btn""><img src=""stimuli/blue.png"" style=""width: 200px;height: 200px;""></button>","0","blue","purple","[""blue"",""purple"",""high nameability""]","left-right","[""blue"",""purple"",""high nameability""]","4","high nameability","31","left","response","1"
"html-audio-button-response","155","131294","0.0-120.0-1.0","CAN_131","131","","","","","","null","stimuli/bleep.m4a","null","blue","purple","[""blue"",""purple"",""high nameability""]","left-right","[""blue"",""purple"",""high nameability""]","4","high nameability","31","left","audio_feedback","1"
"html-button-response","156","131811","0.0-121.0","CAN_131","131","","","","","","null","<button class=""jspsych-btn""><img src=""stimuli/white_square.png"" style=""width: 200px;height: 200px;""></button>","null","blue","purple","[""blue"",""purple"",""high nameability""]","left-right","[""blue"",""purple"",""high nameability""]","4","high nameability","31","left","iti",""
"html-button-response","157","132292","0.0-122.0","CAN_131","131","","","","","","462","","0","darkgreenblue","turquoise","[""darkgreenblue"",""turquoise"",""low nameability""]","left-right","[""darkgreenblue"",""turquoise"",""low nameability""]","4","low nameability","32","left","trigger",""
"html-button-response","158","132897","0.0-123.0-0.0","CAN_131","131","","","","","","596","<button class=""jspsych-btn""><img src=""stimuli/darkgreenblue.png"" style=""width: 200px;height: 200px;""></button>","0","darkgreenblue","turquoise","[""darkgreenblue"",""turquoise"",""low nameability""]","left-right","[""darkgreenblue"",""turquoise"",""low nameability""]","4","low nameability","32","left","response","1"
"html-audio-button-response","159","133103","0.0-123.0-1.0","CAN_131","131","","","","","","null","stimuli/bleep.m4a","null","darkgreenblue","turquoise","[""darkgreenblue"",""turquoise"",""low nameability""]","left-right","[""darkgreenblue"",""turquoise"",""low nameability""]","4","low nameability","32","left","audio_feedback","1"
"html-button-response","160","133622","0.0-124.0","CAN_131","131","","","","","","null","<button class=""jspsych-btn""><img src=""stimuli/white_square.png"" style=""width: 200px;height: 200px;""></button>","null","darkgreenblue","turquoise","[""darkgreenblue"",""turquoise"",""low nameability""]","left-right","[""darkgreenblue"",""turquoise"",""low nameability""]","4","low nameability","32","left","iti",""
"html-button-response","161","134136","0.0-125.0","CAN_131","131","","","","","","495","","0","darkgreenblue","neonyellow","[""darkgreenblue"",""neonyellow"",""low nameability""]","left-right","[""darkgreenblue"",""neonyellow"",""low nameability""]","4","low nameability","33","left","trigger",""
"html-button-response","162","134688","0.0-126.0-0.0","CAN_131","131","","","","","","545","<button class=""jspsych-btn""><img src=""stimuli/darkgreenblue.png"" style=""width: 200px;height: 200px;""></button>","0","darkgreenblue","neonyellow","[""darkgreenblue"",""neonyellow"",""low nameability""]","left-right","[""darkgreenblue"",""neonyellow"",""low nameability""]","4","low nameability","33","left","response","1"
"html-audio-button-response","163","134890","0.0-126.0-1.0","CAN_131","131","","","","","","null","stimuli/bleep.m4a","null","darkgreenblue","neonyellow","[""darkgreenblue"",""neonyellow"",""low nameability""]","left-right","[""darkgreenblue"",""neonyellow"",""low nameability""]","4","low nameability","33","left","audio_feedback","1"
"html-button-response","164","135402","0.0-127.0","CAN_131","131","","","","","","null","<button class=""jspsych-btn""><img src=""stimuli/white_square.png"" style=""width: 200px;height: 200px;""></button>","null","darkgreenblue","neonyellow","[""darkgreenblue"",""neonyellow"",""low nameability""]","left-right","[""darkgreenblue"",""neonyellow"",""low nameability""]","4","low nameability","33","left","iti",""
"html-button-response","165","135927","0.0-128.0","CAN_131","131","","","","","","516","","0","lightred","darkgreenblue","[""lightred"",""darkgreenblue"",""low nameability""]","left-right","[""lightred"",""darkgreenblue"",""low nameability""]","4","low nameability","34","left","trigger",""
"html-button-response","166","136456","0.0-129.0-0.0","CAN_131","131","","","","","","524","<button class=""jspsych-btn""><img src=""stimuli/lightred.png"" style=""width: 200px;height: 200px;""></button>","0","lightred","darkgreenblue","[""lightred"",""darkgreenblue"",""low nameability""]","left-right","[""lightred"",""darkgreenblue"",""low nameability""]","4","low nameability","34","left","response","1"
"html-audio-button-response","167","136657","0.0-129.0-1.0","CAN_131","131","","","","","","null","stimuli/bleep.m4a","null","lightred","darkgreenblue","[""lightred"",""darkgreenblue"",""low nameability""]","left-right","[""lightred"",""darkgreenblue"",""low nameability""]","4","low nameability","34","left","audio_feedback","1"
"html-button-response","168","137178","0.0-130.0","CAN_131","131","","","","","","null","<button class=""jspsych-btn""><img src=""stimuli/white_square.png"" style=""width: 200px;height: 200px;""></button>","null","lightred","darkgreenblue","[""lightred"",""darkgreenblue"",""low nameability""]","left-right","[""lightred"",""darkgreenblue"",""low nameability""]","4","low nameability","34","left","iti",""
"html-button-response","169","137710","0.0-131.0","CAN_131","131","","","","","","528","","0","yellow","red","[""yellow"",""red"",""high nameability""]","right-left","[""red"",""yellow""]","4","high nameability","35","right","trigger",""
"html-button-response","170","138407","0.0-132.0-0.0","CAN_131","131","","","","","","692","<button class=""jspsych-btn""><img src=""stimuli/yellow.png"" style=""width: 200px;height: 200px;""></button>","1","yellow","red","[""yellow"",""red"",""high nameability""]","right-left","[""red"",""yellow""]","4","high nameability","35","right","response","1"
"html-audio-button-response","171","138613","0.0-132.0-1.0","CAN_131","131","","","","","","null","stimuli/bleep.m4a","null","yellow","red","[""yellow"",""red"",""high nameability""]","right-left","[""red"",""yellow""]","4","high nameability","35","right","audio_feedback","1"
"html-button-response","172","139136","0.0-133.0","CAN_131","131","","","","","","null","<button class=""jspsych-btn""><img src=""stimuli/white_square.png"" style=""width: 200px;height: 200px;""></button>","null","yellow","red","[""yellow"",""red"",""high nameability""]","right-left","[""red"",""yellow""]","4","high nameability","35","right","iti",""
"html-button-response","173","139640","0.0-134.0","CAN_131","131","","","","","","481","","0","brown","yellow","[""brown"",""yellow"",""high nameability""]","left-right","[""brown"",""yellow"",""high nameability""]","4","high nameability","36","left","trigger",""
"html-button-response","174","140201","0.0-135.0-0.0","CAN_131","131","","","","","","552","<button class=""jspsych-btn""><img src=""stimuli/brown.png"" style=""width: 200px;height: 200px;""></button>","0","brown","yellow","[""brown"",""yellow"",""high nameability""]","left-right","[""brown"",""yellow"",""high nameability""]","4","high nameability","36","left","response","1"
"html-audio-button-response","175","140400","0.0-135.0-1.0","CAN_131","131","","","","","","null","stimuli/bleep.m4a","null","brown","yellow","[""brown"",""yellow"",""high nameability""]","left-right","[""brown"",""yellow"",""high nameability""]","4","high nameability","36","left","audio_feedback","1"
"html-button-response","176","140908","0.0-136.0","CAN_131","131","","","","","","null","<button class=""jspsych-btn""><img src=""stimuli/white_square.png"" style=""width: 200px;height: 200px;""></button>","null","brown","yellow","[""brown"",""yellow"",""high nameability""]","left-right","[""brown"",""yellow"",""high nameability""]","4","high nameability","36","left","iti",""
"html-button-response","177","141415","0.0-137.0","CAN_131","131","","","","","","501","","0","orange","red","[""orange"",""red"",""high nameability""]","left-right","[""orange"",""red"",""high nameability""]","4","high nameability","37","left","trigger",""
"html-button-response","178","141946","0.0-138.0-0.0","CAN_131","131","","","","","","525","<button class=""jspsych-btn""><img src=""stimuli/orange.png"" style=""width: 200px;height: 200px;""></button>","0","orange","red","[""orange"",""red"",""high nameability""]","left-right","[""orange"",""red"",""high nameability""]","4","high nameability","37","left","response","1"
"html-audio-button-response","179","142146","0.0-138.0-1.0","CAN_131","131","","","","","","null","stimuli/bleep.m4a","null","orange","red","[""orange"",""red"",""high nameability""]","left-right","[""orange"",""red"",""high nameability""]","4","high nameability","37","left","audio_feedback","1"
"html-button-response","180","142662","0.0-139.0","CAN_131","131","","","","","","null","<button class=""jspsych-btn""><img src=""stimuli/white_square.png"" style=""width: 200px;height: 200px;""></button>","null","orange","red","[""orange"",""red"",""high nameability""]","left-right","[""orange"",""red"",""high nameability""]","4","high nameability","37","left","iti",""
"html-button-response","181","143102","0.0-140.0","CAN_131","131","","","","","","434","","0","neonyellow","mustard","[""neonyellow"",""mustard"",""low nameability""]","right-left","[""mustard"",""neonyellow""]","4","low nameability","38","right","trigger",""
"html-button-response","182","143827","0.0-141.0-0.0","CAN_131","131","","","","","","710","<button class=""jspsych-btn""><img src=""stimuli/neonyellow.png"" style=""width: 200px;height: 200px;""></button>","1","neonyellow","mustard","[""neonyellow"",""mustard"",""low nameability""]","right-left","[""mustard"",""neonyellow""]","4","low nameability","38","right","response","1"
"html-audio-button-response","183","144034","0.0-141.0-1.0","CAN_131","131","","","","","","null","stimuli/bleep.m4a","null","neonyellow","mustard","[""neonyellow"",""mustard"",""low nameability""]","right-left","[""mustard"",""neonyellow""]","4","low nameability","38","right","audio_feedback","1"
"html-button-response","184","144552","0.0-142.0","CAN_131","131","","","","","","null","<button class=""jspsych-btn""><img src=""stimuli/white_square.png"" style=""width: 200px;height: 200px;""></button>","null","neonyellow","mustard","[""neonyellow"",""mustard"",""low nameability""]","right-left","[""mustard"",""neonyellow""]","4","low nameability","38","right","iti",""
"html-button-response","185","145076","0.0-143.0","CAN_131","131","","","","","","507","","0","pink","mustard","[""pink"",""mustard"",""low nameability""]","right-left","[""mustard"",""pink""]","4","low nameability","39","right","trigger",""
"html-button-response","186","145754","0.0-144.0-0.0","CAN_131","131","","","","","","671","<button class=""jspsych-btn""><img src=""stimuli/pink.png"" style=""width: 200px;height: 200px;""></button>","1","pink","mustard","[""pink"",""mustard"",""low nameability""]","right-left","[""mustard"",""pink""]","4","low nameability","39","right","response","1"
"html-audio-button-response","187","145958","0.0-144.0-1.0","CAN_131","131","","","","","","null","stimuli/bleep.m4a","null","pink","mustard","[""pink"",""mustard"",""low nameability""]","right-left","[""mustard"",""pink""]","4","low nameability","39","right","audio_feedback","1"
"html-button-response","188","146475","0.0-145.0","CAN_131","131","","","","","","null","<button class=""jspsych-btn""><img src=""stimuli/white_square.png"" style=""width: 200px;height: 200px;""></button>","null","pink","mustard","[""pink"",""mustard"",""low nameability""]","right-left","[""mustard"",""pink""]","4","low nameability","39","right","iti",""
"html-button-response","189","147023","0.0-146.0","CAN_131","131","","","","","","529","","0","red","yellow","[""red"",""yellow"",""high nameability""]","right-left","[""yellow"",""red""]","4","high nameability","40","right","trigger",""
"html-button-response","190","147582","0.0-147.0-0.0","CAN_131","131","","","","","","553","<button class=""jspsych-btn""><img src=""stimuli/red.png"" style=""width: 200px;height: 200px;""></button>","1","red","yellow","[""red"",""yellow"",""high nameability""]","right-left","[""yellow"",""red""]","4","high nameability","40","right","response","1"
"html-audio-button-response","191","147783","0.0-147.0-1.0","CAN_131","131","","","","","","null","stimuli/bleep.m4a","null","red","yellow","[""red"",""yellow"",""high nameability""]","right-left","[""yellow"",""red""]","4","high nameability","40","right","audio_feedback","1"
"html-button-response","192","148305","0.0-148.0","CAN_131","131","","","","","","null","<button class=""jspsych-btn""><img src=""stimuli/white_square.png"" style=""width: 200px;height: 200px;""></button>","null","red","yellow","[""red"",""yellow"",""high nameability""]","right-left","[""yellow"",""red""]","4","high nameability","40","right","iti",""
"pavlovia","193","148369","0.0-149.0","CAN_131","131","","","","","","","","","","","","","","","","","","",""
"pavlovia","194","148376","0.0-150.0","CAN_131","131","","","","","","","","","","","","","","","","","","",""
"html-audio-button-response","195","149657","0.0-151.0","CAN_131","131","","","","","","1352","stimuli/tada.m4a","0","","","","","","","","","","",""
"html-button-response","196","150356","0.0-152.0","CAN_131","131","","","","","","695","","0","","","","","","","","","","",""
"html-button-response","197","151048","0.0-153.0","CAN_131","131","","","","","","685","","0","mustard","pink","[""mustard"",""pink"",""low nameability""]","right-left","[""pink"",""mustard""]","5","low nameability","41","right","trigger",""
"html-button-response","198","151637","0.0-154.0-0.0","CAN_131","131","","","","","","581","<button class=""jspsych-btn""><img src=""stimuli/mustard.png"" style=""width: 200px;height: 200px;""></button>","1","mustard","pink","[""mustard"",""pink"",""low nameability""]","right-left","[""pink"",""mustard""]","5","low nameability","41","right","response","1"
"html-audio-button-response","199","151842","0.0-154.0-1.0","CAN_131","131","","","","","","null","stimuli/bleep.m4a","null","mustard","pink","[""mustard"",""pink"",""low nameability""]","right-left","[""pink"",""mustard""]","5","low nameability","41","right","audio_feedback","1"
"html-button-response","200","152358","0.0-155.0","CAN_131","131","","","","","","null","<button class=""jspsych-btn""><img src=""stimuli/white_square.png"" style=""width: 200px;height: 200px;""></button>","null","mustard","pink","[""mustard"",""pink"",""low nameability""]","right-left","[""pink"",""mustard""]","5","low nameability","41","right","iti",""
"html-button-response","201","152816","0.0-156.0","CAN_131","131","","","","","","423","","0","yellow","blue","[""yellow"",""blue"",""high nameability""]","right-left","[""blue"",""yellow""]","5","high nameability","42","right","trigger",""
"html-button-response","202","153346","0.0-157.0-0.0","CAN_131","131","","","","","","518","<button class=""jspsych-btn""><img src=""stimuli/yellow.png"" style=""width: 200px;height: 200px;""></button>","1","yellow","blue","[""yellow"",""blue"",""high nameability""]","right-left","[""blue"",""yellow""]","5","high nameability","42","right","response","1"
"html-audio-button-response","203","153553","0.0-157.0-1.0","CAN_131","131","","","","","","null","stimuli/bleep.m4a","null","yellow","blue","[""yellow"",""blue"",""high nameability""]","right-left","[""blue"",""yellow""]","5","high nameability","42","right","audio_feedback","1"
"html-button-response","204","154079","0.0-158.0","CAN_131","131","","","","","","null","<button class=""jspsych-btn""><img src=""stimuli/white_square.png"" style=""width: 200px;height: 200px;""></button>","null","yellow","blue","[""yellow"",""blue"",""high nameability""]","right-left","[""blue"",""yellow""]","5","high nameability","42","right","iti",""
"html-button-response","205","154167","0.0-159.0","CAN_131","131","","","","","","73","","0","purple","brown","[""purple"",""brown"",""high nameability""]","right-left","[""brown"",""purple""]","5","high nameability","43","right","trigger",""
"html-button-response","206","154815","0.0-160.0-0.0","CAN_131","131","","","","","","642","<button class=""jspsych-btn""><img src=""stimuli/purple.png"" style=""width: 200px;height: 200px;""></button>","1","purple","brown","[""purple"",""brown"",""high nameability""]","right-left","[""brown"",""purple""]","5","high nameability","43","right","response","1"
"html-audio-button-response","207","155017","0.0-160.0-1.0","CAN_131","131","","","","","","null","stimuli/bleep.m4a","null","purple","brown","[""purple"",""brown"",""high nameability""]","right-left","[""brown"",""purple""]","5","high nameability","43","right","audio_feedback","1"
"html-button-response","208","155536","0.0-161.0","CAN_131","131","","","","","","null","<button class=""jspsych-btn""><img src=""stimuli/white_square.png"" style=""width: 200px;height: 200px;""></button>","null","purple","brown","[""purple"",""brown"",""high nameability""]","right-left","[""brown"",""purple""]","5","high nameability","43","right","iti",""
"html-button-response","209","155892","0.0-162.0","CAN_131","131","","","","","","338","","0","mustard","neonyellow","[""mustard"",""neonyellow"",""low nameability""]","left-right","[""mustard"",""neonyellow"",""low nameability""]","5","low nameability","44","left","trigger",""
"html-button-response","210","156505","0.0-163.0-0.0","CAN_131","131","","","","","","604","<button class=""jspsych-btn""><img src=""stimuli/mustard.png"" style=""width: 200px;height: 200px;""></button>","0","mustard","neonyellow","[""mustard"",""neonyellow"",""low nameability""]","left-right","[""mustard"",""neonyellow"",""low nameability""]","5","low nameability","44","left","response","1"
"html-audio-button-response","211","156715","0.0-163.0-1.0","CAN_131","131","","","","","","null","stimuli/bleep.m4a","null","mustard","neonyellow","[""mustard"",""neonyellow"",""low nameability""]","left-right","[""mustard"",""neonyellow"",""low nameability""]","5","low nameability","44","left","audio_feedback","1"
"html-button-response","212","157233","0.0-164.0","CAN_131","131","","","","","","null","<button class=""jspsych-btn""><img src=""stimuli/white_square.png"" style=""width: 200px;height: 200px;""></button>","null","mustard","neonyellow","[""mustard"",""neonyellow"",""low nameability""]","left-right","[""mustard"",""neonyellow"",""low nameability""]","5","low nameability","44","left","iti",""
"html-button-response","213","157757","0.0-165.0","CAN_131","131","","","","","","507","","0","yellow","brown","[""yellow"",""brown"",""high nameability""]","left-right","[""yellow"",""brown"",""high nameability""]","5","high nameability","45","left","trigger",""
"html-button-response","214","158361","0.0-166.0-0.0","CAN_131","131","","","","","","597","<button class=""jspsych-btn""><img src=""stimuli/yellow.png"" style=""width: 200px;height: 200px;""></button>","0","yellow","brown","[""yellow"",""brown"",""high nameability""]","left-right","[""yellow"",""brown"",""high nameability""]","5","high nameability","45","left","response","1"
"html-audio-button-response","215","158563","0.0-166.0-1.0","CAN_131","131","","","","","","null","stimuli/bleep.m4a","null","yellow","brown","[""yellow"",""brown"",""high nameability""]","left-right","[""yellow"",""brown"",""high nameability""]","5","high nameability","45","left","audio_feedback","1"
"html-button-response","216","159078","0.0-167.0","CAN_131","131","","","","","","null","<button class=""jspsych-btn""><img src=""stimuli/white_square.png"" style=""width: 200px;height: 200px;""></button>","null","yellow","brown","[""yellow"",""brown"",""high nameability""]","left-right","[""yellow"",""brown"",""high nameability""]","5","high nameability","45","left","iti",""
"html-button-response","217","159646","0.0-168.0","CAN_131","131","","","","","","549","","0","purple","red","[""purple"",""red"",""high nameability""]","left-right","[""purple"",""red"",""high nameability""]","5","high nameability","46","left","trigger",""
"html-button-response","218","160842","0.0-169.0-0.0","CAN_131","131","","","","","","1189","<button class=""jspsych-btn""><img src=""stimuli/purple.png"" style=""width: 200px;height: 200px;""></button>","0","purple","red","[""purple"",""red"",""high nameability""]","left-right","[""purple"",""red"",""high nameability""]","5","high nameability","46","left","response","1"
"html-audio-button-response","219","161049","0.0-169.0-1.0","CAN_131","131","","","","","","null","stimuli/bleep.m4a","null","purple","red","[""purple"",""red"",""high nameability""]","left-right","[""purple"",""red"",""high nameability""]","5","high nameability","46","left","audio_feedback","1"
"html-button-response","220","161567","0.0-170.0","CAN_131","131","","","","","","null","<button class=""jspsych-btn""><img src=""stimuli/white_square.png"" style=""width: 200px;height: 200px;""></button>","null","purple","red","[""purple"",""red"",""high nameability""]","left-right","[""purple"",""red"",""high nameability""]","5","high nameability","46","left","iti",""
"html-button-response","221","162020","0.0-171.0","CAN_131","131","","","","","","437","","0","orange","yellow","[""orange"",""yellow"",""high nameability""]","right-left","[""yellow"",""orange""]","5","high nameability","47","right","trigger",""
"html-button-response","222","162542","0.0-172.0-0.0","CAN_131","131","","","","","","513","<button class=""jspsych-btn""><img src=""stimuli/orange.png"" style=""width: 200px;height: 200px;""></button>","1","orange","yellow","[""orange"",""yellow"",""high nameability""]","right-left","[""yellow"",""orange""]","5","high nameability","47","right","response","1"
"html-audio-button-response","223","162747","0.0-172.0-1.0","CAN_131","131","","","","","","null","stimuli/bleep.m4a","null","orange","yellow","[""orange"",""yellow"",""high nameability""]","right-left","[""yellow"",""orange""]","5","high nameability","47","right","audio_feedback","1"
"html-button-response","224","163268","0.0-173.0","CAN_131","131","","","","","","null","<button class=""jspsych-btn""><img src=""stimuli/white_square.png"" style=""width: 200px;height: 200px;""></button>","null","orange","yellow","[""orange"",""yellow"",""high nameability""]","right-left","[""yellow"",""orange""]","5","high nameability","47","right","iti",""
"html-button-response","225","163694","0.0-174.0","CAN_131","131","","","","","","409","","0","pink","lightred","[""pink"",""lightred"",""low nameability""]","right-left","[""lightred"",""pink""]","5","low nameability","48","right","trigger",""
"html-button-response","226","164273","0.0-175.0-0.0","CAN_131","131","","","","","","572","<button class=""jspsych-btn""><img src=""stimuli/pink.png"" style=""width: 200px;height: 200px;""></button>","1","pink","lightred","[""pink"",""lightred"",""low nameability""]","right-left","[""lightred"",""pink""]","5","low nameability","48","right","response","1"
"html-audio-button-response","227","164475","0.0-175.0-1.0","CAN_131","131","","","","","","null","stimuli/bleep.m4a","null","pink","lightred","[""pink"",""lightred"",""low nameability""]","right-left","[""lightred"",""pink""]","5","low nameability","48","right","audio_feedback","1"
"html-button-response","228","164990","0.0-176.0","CAN_131","131","","","","","","null","<button class=""jspsych-btn""><img src=""stimuli/white_square.png"" style=""width: 200px;height: 200px;""></button>","null","pink","lightred","[""pink"",""lightred"",""low nameability""]","right-left","[""lightred"",""pink""]","5","low nameability","48","right","iti",""
"html-button-response","229","166130","0.0-177.0","CAN_131","131","","","","","","1123","","0","brown","orange","[""brown"",""orange"",""high nameability""]","right-left","[""orange"",""brown""]","5","high nameability","49","right","trigger",""
"html-button-response","230","166740","0.0-178.0-0.0","CAN_131","131","","","","","","600","<button class=""jspsych-btn""><img src=""stimuli/brown.png"" style=""width: 200px;height: 200px;""></button>","1","brown","orange","[""brown"",""orange"",""high nameability""]","right-left","[""orange"",""brown""]","5","high nameability","49","right","response","1"
"html-audio-button-response","231","166950","0.0-178.0-1.0","CAN_131","131","","","","","","null","stimuli/bleep.m4a","null","brown","orange","[""brown"",""orange"",""high nameability""]","right-left","[""orange"",""brown""]","5","high nameability","49","right","audio_feedback","1"
"html-button-response","232","167466","0.0-179.0","CAN_131","131","","","","","","null","<button class=""jspsych-btn""><img src=""stimuli/white_square.png"" style=""width: 200px;height: 200px;""></button>","null","brown","orange","[""brown"",""orange"",""high nameability""]","right-left","[""orange"",""brown""]","5","high nameability","49","right","iti",""
"html-button-response","233","167923","0.0-180.0","CAN_131","131","","","","","","438","","0","neonyellow","pink","[""neonyellow"",""pink"",""low nameability""]","left-right","[""neonyellow"",""pink"",""low nameability""]","5","low nameability","50","left","trigger",""
"html-button-response","234","169073","0.0-181.0-0.0","CAN_131","131","","","","","","1142","<button class=""jspsych-btn""><img src=""stimuli/neonyellow.png"" style=""width: 200px;height: 200px;""></button>","0","neonyellow","pink","[""neonyellow"",""pink"",""low nameability""]","left-right","[""neonyellow"",""pink"",""low nameability""]","5","low nameability","50","left","response","1"
"html-audio-button-response","235","169274","0.0-181.0-1.0","CAN_131","131","","","","","","null","stimuli/bleep.m4a","null","neonyellow","pink","[""neonyellow"",""pink"",""low nameability""]","left-right","[""neonyellow"",""pink"",""low nameability""]","5","low nameability","50","left","audio_feedback","1"
"html-button-response","236","169794","0.0-182.0","CAN_131","131","","","","","","null","<button class=""jspsych-btn""><img src=""stimuli/white_square.png"" style=""width: 200px;height: 200px;""></button>","null","neonyellow","pink","[""neonyellow"",""pink"",""low nameability""]","left-right","[""neonyellow"",""pink"",""low nameability""]","5","low nameability","50","left","iti",""
"pavlovia","237","169856","0.0-183.0","CAN_131","131","","","","","","","","","","","","","","","","","","",""
"pavlovia","238","169863","0.0-184.0","CAN_131","131","","","","","","","","","","","","","","","","","","",""
"html-audio-button-response","239","171161","0.0-185.0","CAN_131","131","","","","","","1368","stimuli/tada.m4a","0","","","","","","","","","","",""
"html-button-response","240","171777","0.0-186.0","CAN_131","131","","","","","","606","","0","","","","","","","","","","",""
"html-button-response","241","172440","0.0-187.0","CAN_131","131","","","","","","648","","0","darkgreenblue","mustard","[""darkgreenblue"",""mustard"",""low nameability""]","right-left","[""mustard"",""darkgreenblue""]","6","low nameability","51","right","trigger",""
"html-button-response","242","172998","0.0-188.0-0.0","CAN_131","131","","","","","","548","<button class=""jspsych-btn""><img src=""stimuli/darkgreenblue.png"" style=""width: 200px;height: 200px;""></button>","1","darkgreenblue","mustard","[""darkgreenblue"",""mustard"",""low nameability""]","right-left","[""mustard"",""darkgreenblue""]","6","low nameability","51","right","response","1"
"html-audio-button-response","243","173203","0.0-188.0-1.0","CAN_131","131","","","","","","null","stimuli/bleep.m4a","null","darkgreenblue","mustard","[""darkgreenblue"",""mustard"",""low nameability""]","right-left","[""mustard"",""darkgreenblue""]","6","low nameability","51","right","audio_feedback","1"
"html-button-response","244","173722","0.0-189.0","CAN_131","131","","","","","","null","<button class=""jspsych-btn""><img src=""stimuli/white_square.png"" style=""width: 200px;height: 200px;""></button>","null","darkgreenblue","mustard","[""darkgreenblue"",""mustard"",""low nameability""]","right-left","[""mustard"",""darkgreenblue""]","6","low nameability","51","right","iti",""
"html-button-response","245","174145","0.0-190.0","CAN_131","131","","","","","","407","","0","turquoise","pink","[""turquoise"",""pink"",""low nameability""]","left-right","[""turquoise"",""pink"",""low nameability""]","6","low nameability","52","left","trigger",""
"html-button-response","246","174694","0.0-191.0-0.0","CAN_131","131","","","","","","541","<button class=""jspsych-btn""><img src=""stimuli/turquoise.png"" style=""width: 200px;height: 200px;""></button>","0","turquoise","pink","[""turquoise"",""pink"",""low nameability""]","left-right","[""turquoise"",""pink"",""low nameability""]","6","low nameability","52","left","response","1"
"html-audio-button-response","247","174898","0.0-191.0-1.0","CAN_131","131","","","","","","null","stimuli/bleep.m4a","null","turquoise","pink","[""turquoise"",""pink"",""low nameability""]","left-right","[""turquoise"",""pink"",""low nameability""]","6","low nameability","52","left","audio_feedback","1"
"html-button-response","248","175413","0.0-192.0","CAN_131","131","","","","","","null","<button class=""jspsych-btn""><img src=""stimuli/white_square.png"" style=""width: 200px;height: 200px;""></button>","null","turquoise","pink","[""turquoise"",""pink"",""low nameability""]","left-right","[""turquoise"",""pink"",""low nameability""]","6","low nameability","52","left","iti",""
"html-button-response","249","175707","0.0-193.0","CAN_131","131","","","","","","275","","0","orange","brown","[""orange"",""brown"",""high nameability""]","right-left","[""brown"",""orange""]","6","high nameability","53","right","trigger",""
"html-button-response","250","176289","0.0-194.0-0.0","CAN_131","131","","","","","","573","<button class=""jspsych-btn""><img src=""stimuli/orange.png"" style=""width: 200px;height: 200px;""></button>","1","orange","brown","[""orange"",""brown"",""high nameability""]","right-left","[""brown"",""orange""]","6","high nameability","53","right","response","1"
"html-audio-button-response","251","176498","0.0-194.0-1.0","CAN_131","131","","","","","","null","stimuli/bleep.m4a","null","orange","brown","[""orange"",""brown"",""high nameability""]","right-left","[""brown"",""orange""]","6","high nameability","53","right","audio_feedback","1"
"html-button-response","252","177008","0.0-195.0","CAN_131","131","","","","","","null","<button class=""jspsych-btn""><img src=""stimuli/white_square.png"" style=""width: 200px;height: 200px;""></button>","null","orange","brown","[""orange"",""brown"",""high nameability""]","right-left","[""brown"",""orange""]","6","high nameability","53","right","iti",""
"html-button-response","253","177055","0.0-196.0","CAN_131","131","","","","","","41","","0","purple","yellow","[""purple"",""yellow"",""high nameability""]","right-left","[""yellow"",""purple""]","6","high nameability","54","right","trigger",""
"html-button-response","254","177721","0.0-197.0-0.0","CAN_131","131","","","","","","659","<button class=""jspsych-btn""><img src=""stimuli/purple.png"" style=""width: 200px;height: 200px;""></button>","1","purple","yellow","[""purple"",""yellow"",""high nameability""]","right-left","[""yellow"",""purple""]","6","high nameability","54","right","response","1"
"html-audio-button-response","255","177923","0.0-197.0-1.0","CAN_131","131","","","","","","null","stimuli/bleep.m4a","null","purple","yellow","[""purple"",""yellow"",""high nameability""]","right-left","[""yellow"",""purple""]","6","high nameability","54","right","audio_feedback","1"
"html-button-response","256","178438","0.0-198.0","CAN_131","131","","","","","","null","<button class=""jspsych-btn""><img src=""stimuli/white_square.png"" style=""width: 200px;height: 200px;""></button>","null","purple","yellow","[""purple"",""yellow"",""high nameability""]","right-left","[""yellow"",""purple""]","6","high nameability","54","right","iti",""
"html-button-response","257","178625","0.0-199.0","CAN_131","131","","","","","","166","","0","darkgreenblue","pink","[""darkgreenblue"",""pink"",""low nameability""]","left-right","[""darkgreenblue"",""pink"",""low nameability""]","6","low nameability","55","left","trigger",""
"html-button-response","258","179241","0.0-200.0-0.0","CAN_131","131","","","","","","608","<button class=""jspsych-btn""><img src=""stimuli/darkgreenblue.png"" style=""width: 200px;height: 200px;""></button>","0","darkgreenblue","pink","[""darkgreenblue"",""pink"",""low nameability""]","left-right","[""darkgreenblue"",""pink"",""low nameability""]","6","low nameability","55","left","response","1"
"html-audio-button-response","259","179447","0.0-200.0-1.0","CAN_131","131","","","","","","null","stimuli/bleep.m4a","null","darkgreenblue","pink","[""darkgreenblue"",""pink"",""low nameability""]","left-right","[""darkgreenblue"",""pink"",""low nameability""]","6","low nameability","55","left","audio_feedback","1"
"html-button-response","260","179966","0.0-201.0","CAN_131","131","","","","","","null","<button class=""jspsych-btn""><img src=""stimuli/white_square.png"" style=""width: 200px;height: 200px;""></button>","null","darkgreenblue","pink","[""darkgreenblue"",""pink"",""low nameability""]","left-right","[""darkgreenblue"",""pink"",""low nameability""]","6","low nameability","55","left","iti",""
"html-button-response","261","180244","0.0-202.0","CAN_131","131","","","","","","260","","0","brown","red","[""brown"",""red"",""high nameability""]","right-left","[""red"",""brown""]","6","high nameability","56","right","trigger",""
"html-button-response","262","180869","0.0-203.0-0.0","CAN_131","131","","","","","","615","<button class=""jspsych-btn""><img src=""stimuli/brown.png"" style=""width: 200px;height: 200px;""></button>","1","brown","red","[""brown"",""red"",""high nameability""]","right-left","[""red"",""brown""]","6","high nameability","56","right","response","1"
"html-audio-button-response","263","181074","0.0-203.0-1.0","CAN_131","131","","","","","","null","stimuli/bleep.m4a","null","brown","red","[""brown"",""red"",""high nameability""]","right-left","[""red"",""brown""]","6","high nameability","56","right","audio_feedback","1"
"html-button-response","264","181591","0.0-204.0","CAN_131","131","","","","","","null","<button class=""jspsych-btn""><img src=""stimuli/white_square.png"" style=""width: 200px;height: 200px;""></button>","null","brown","red","[""brown"",""red"",""high nameability""]","right-left","[""red"",""brown""]","6","high nameability","56","right","iti",""
"html-button-response","265","181763","0.0-205.0","CAN_131","131","","","","","","157","","0","brown","blue","[""brown"",""blue"",""high nameability""]","left-right","[""brown"",""blue"",""high nameability""]","6","high nameability","57","left","trigger",""
"html-button-response","266","182391","0.0-206.0-0.0","CAN_131","131","","","","","","616","<button class=""jspsych-btn""><img src=""stimuli/brown.png"" style=""width: 200px;height: 200px;""></button>","0","brown","blue","[""brown"",""blue"",""high nameability""]","left-right","[""brown"",""blue"",""high nameability""]","6","high nameability","57","left","response","1"
"html-audio-button-response","267","182592","0.0-206.0-1.0","CAN_131","131","","","","","","null","stimuli/bleep.m4a","null","brown","blue","[""brown"",""blue"",""high nameability""]","left-right","[""brown"",""blue"",""high nameability""]","6","high nameability","57","left","audio_feedback","1"
"html-button-response","268","183105","0.0-207.0","CAN_131","131","","","","","","null","<button class=""jspsych-btn""><img src=""stimuli/white_square.png"" style=""width: 200px;height: 200px;""></button>","null","brown","blue","[""brown"",""blue"",""high nameability""]","left-right","[""brown"",""blue"",""high nameability""]","6","high nameability","57","left","iti",""
"html-button-response","269","183521","0.0-208.0","CAN_131","131","","","","","","400","","0","blue","yellow","[""blue"",""yellow"",""high nameability""]","right-left","[""yellow"",""blue""]","6","high nameability","58","right","trigger",""
"html-button-response","270","184124","0.0-209.0-0.0","CAN_131","131","","","","","","594","<button class=""jspsych-btn""><img src=""stimuli/blue.png"" style=""width: 200px;height: 200px;""></button>","1","blue","yellow","[""blue"",""yellow"",""high nameability""]","right-left","[""yellow"",""blue""]","6","high nameability","58","right","response","1"
"html-audio-button-response","271","184330","0.0-209.0-1.0","CAN_131","131","","","","","","null","stimuli/bleep.m4a","null","blue","yellow","[""blue"",""yellow"",""high nameability""]","right-left","[""yellow"",""blue""]","6","high nameability","58","right","audio_feedback","1"
"html-button-response","272","184844","0.0-210.0","CAN_131","131","","","","","","null","<button class=""jspsych-btn""><img src=""stimuli/white_square.png"" style=""width: 200px;height: 200px;""></button>","null","blue","yellow","[""blue"",""yellow"",""high nameability""]","right-left","[""yellow"",""blue""]","6","high nameability","58","right","iti",""
"html-button-response","273","185917","0.0-211.0","CAN_131","131","","","","","","1065","","0","yellow","purple","[""yellow"",""purple"",""high nameability""]","left-right","[""yellow"",""purple"",""high nameability""]","6","high nameability","59","left","trigger",""
"html-button-response","274","186489","0.0-212.0-0.0","CAN_131","131","","","","","","566","<button class=""jspsych-btn""><img src=""stimuli/yellow.png"" style=""width: 200px;height: 200px;""></button>","0","yellow","purple","[""yellow"",""purple"",""high nameability""]","left-right","[""yellow"",""purple"",""high nameability""]","6","high nameability","59","left","response","1"
"html-audio-button-response","275","186695","0.0-212.0-1.0","CAN_131","131","","","","","","null","stimuli/bleep.m4a","null","yellow","purple","[""yellow"",""purple"",""high nameability""]","left-right","[""yellow"",""purple"",""high nameability""]","6","high nameability","59","left","audio_feedback","1"
"html-button-response","276","187216","0.0-213.0","CAN_131","131","","","","","","null","<button class=""jspsych-btn""><img src=""stimuli/white_square.png"" style=""width: 200px;height: 200px;""></button>","null","yellow","purple","[""yellow"",""purple"",""high nameability""]","left-right","[""yellow"",""purple"",""high nameability""]","6","high nameability","59","left","iti",""
"html-button-response","277","187488","0.0-214.0","CAN_131","131","","","","","","255","","0","blue","orange","[""blue"",""orange"",""high nameability""]","left-right","[""blue"",""orange"",""high nameability""]","6","high nameability","60","left","trigger",""
"html-button-response","278","188054","0.0-215.0-0.0","CAN_131","131","","","","","","558","<button class=""jspsych-btn""><img src=""stimuli/blue.png"" style=""width: 200px;height: 200px;""></button>","0","blue","orange","[""blue"",""orange"",""high nameability""]","left-right","[""blue"",""orange"",""high nameability""]","6","high nameability","60","left","response","1"
"html-audio-button-response","279","188258","0.0-215.0-1.0","CAN_131","131","","","","","","null","stimuli/bleep.m4a","null","blue","orange","[""blue"",""orange"",""high nameability""]","left-right","[""blue"",""orange"",""high nameability""]","6","high nameability","60","left","audio_feedback","1"
"html-button-response","280","188782","0.0-216.0","CAN_131","131","","","","","","null","<button class=""jspsych-btn""><img src=""stimuli/white_square.png"" style=""width: 200px;height: 200px;""></button>","null","blue","orange","[""blue"",""orange"",""high nameability""]","left-right","[""blue"",""orange"",""high nameability""]","6","high nameability","60","left","iti",""
