"trial_type","trial_index","time_elapsed","internal_node_id","subject_id","seed","success","timeout","failed_images","failed_audio","failed_video","rt","stimulus","response","target","foil","choices","combination_order","choices_in_order","round","condition","trial_counter","target_location","trial_kind","correct"
"pavlovia","0","24","0.0-0.0","CAN_107","107","","","","","","","","","","","","","","","","","","",""
"preload","1","669","0.0-1.0","CAN_107","107","true","false","[]","[]","[]","","","","","","","","","","","","","",""
"fullscreen","2","1101526","0.0-2.0","CAN_107","107","true","","","","","","","","","","","","","","","","","",""
"html-button-response","3","1107780","0.0-3.0","CAN_107","107","","","","","","6210","","0","","","","","","","","","","",""
"html-button-response","4","1110637","0.0-4.0","CAN_107","107","","","","","","2838","","0","star","square","[""square"",""star""]","left-right","[""square"",""star""]","1","practice","1","right","trigger",""
"html-button-response","5","1115064","0.0-5.0-0.0","CAN_107","107","","","","","","4412","<button class=""jspsych-btn""><img src=""stimuli/star.png"" style=""width: 200px;height: 200px;""></button>","1","star","square","[""square"",""star""]","left-right","[""square"",""star""]","1","practice","1","right","response","1"
"html-audio-button-response","6","1115274","0.0-5.0-1.0","CAN_107","107","","","","","","null","stimuli/bleep.m4a","null","star","square","[""square"",""star""]","left-right","[""square"",""star""]","1","practice","1","right","audio_feedback","1"
"html-button-response","7","1115790","0.0-6.0","CAN_107","107","","","","","","null","<button class=""jspsych-btn""><img src=""stimuli/white_square.png"" style=""width: 200px;height: 200px;""></button>","null","star","square","[""square"",""star""]","left-right","[""square"",""star""]","1","practice","1","right","iti",""
"html-button-response","8","1118706","0.0-7.0","CAN_107","107","","","","","","2910","","0","triangle","pentagram","[""triangle"",""pentagram""]","left-right","[""triangle"",""pentagram""]","1","practice","1","left","trigger",""
"html-button-response","9","1119611","0.0-8.0-0.0","CAN_107","107","","","","","","897","<button class=""jspsych-btn""><img src=""stimuli/triangle.png"" style=""width: 200px;height: 200px;""></button>","0","triangle","pentagram","[""triangle"",""pentagram""]","left-right","[""triangle"",""pentagram""]","1","practice","1","left","response","1"
"html-audio-button-response","10","1119821","0.0-8.0-1.0","CAN_107","107","","","","","","null","stimuli/bleep.m4a","null","triangle","pentagram","[""triangle"",""pentagram""]","left-right","[""triangle"",""pentagram""]","1","practice","1","left","audio_feedback","1"
"html-button-response","11","1120345","0.0-9.0","CAN_107","107","","","","","","null","<button class=""jspsych-btn""><img src=""stimuli/white_square.png"" style=""width: 200px;height: 200px;""></button>","null","triangle","pentagram","[""triangle"",""pentagram""]","left-right","[""triangle"",""pentagram""]","1","practice","1","left","iti",""
"html-button-response","12","1121396","0.0-10.0","CAN_107","107","","","","","","1027","","0","diamond","rectangle","[""rectangle"",""diamond""]","left-right","[""rectangle"",""diamond""]","1","practice","1","right","trigger",""
"html-button-response","13","1122280","0.0-11.0-0.0","CAN_107","107","","","","","","874","<button class=""jspsych-btn""><img src=""stimuli/diamond.png"" style=""width: 200px;height: 200px;""></button>","1","diamond","rectangle","[""rectangle"",""diamond""]","left-right","[""rectangle"",""diamond""]","1","practice","1","right","response","1"
"html-audio-button-response","14","1122488","0.0-11.0-1.0","CAN_107","107","","","","","","null","stimuli/bleep.m4a","null","diamond","rectangle","[""rectangle"",""diamond""]","left-right","[""rectangle"",""diamond""]","1","practice","1","right","audio_feedback","1"
"html-button-response","15","1123013","0.0-12.0","CAN_107","107","","","","","","null","<button class=""jspsych-btn""><img src=""stimuli/white_square.png"" style=""width: 200px;height: 200px;""></button>","null","diamond","rectangle","[""rectangle"",""diamond""]","left-right","[""rectangle"",""diamond""]","1","practice","1","right","iti",""
"html-button-response","16","1123774","0.0-13.0","CAN_107","107","","","","","","739","","0","pentagram","star","[""pentagram"",""star""]","left-right","[""pentagram"",""star""]","1","practice","1","left","trigger",""
"html-button-response","17","1124640","0.0-14.0-0.0","CAN_107","107","","","","","","857","<button class=""jspsych-btn""><img src=""stimuli/pentagram.png"" style=""width: 200px;height: 200px;""></button>","0","pentagram","star","[""pentagram"",""star""]","left-right","[""pentagram"",""star""]","1","practice","1","left","response","1"
"html-audio-button-response","18","1124845","0.0-14.0-1.0","CAN_107","107","","","","","","null","stimuli/bleep.m4a","null","pentagram","star","[""pentagram"",""star""]","left-right","[""pentagram"",""star""]","1","practice","1","left","audio_feedback","1"
"html-button-response","19","1125365","0.0-15.0","CAN_107","107","","","","","","null","<button class=""jspsych-btn""><img src=""stimuli/white_square.png"" style=""width: 200px;height: 200px;""></button>","null","pentagram","star","[""pentagram"",""star""]","left-right","[""pentagram"",""star""]","1","practice","1","left","iti",""
"html-button-response","20","1133152","0.0-16.0","CAN_107","107","","","","","","7766","","0","","","","","","","","","","",""
"html-button-response","21","1134013","0.0-17.0","CAN_107","107","","","","","","845","","0","pink","neonyellow","[""pink"",""neonyellow"",""low nameability""]","right-left","[""neonyellow"",""pink""]","1","low nameability","1","right","trigger",""
"html-button-response","22","1134809","0.0-18.0-0.0","CAN_107","107","","","","","","787","<button class=""jspsych-btn""><img src=""stimuli/pink.png"" style=""width: 200px;height: 200px;""></button>","1","pink","neonyellow","[""pink"",""neonyellow"",""low nameability""]","right-left","[""neonyellow"",""pink""]","1","low nameability","1","right","response","1"
"html-audio-button-response","23","1135016","0.0-18.0-1.0","CAN_107","107","","","","","","null","stimuli/bleep.m4a","null","pink","neonyellow","[""pink"",""neonyellow"",""low nameability""]","right-left","[""neonyellow"",""pink""]","1","low nameability","1","right","audio_feedback","1"
"html-button-response","24","1135538","0.0-19.0","CAN_107","107","","","","","","null","<button class=""jspsych-btn""><img src=""stimuli/white_square.png"" style=""width: 200px;height: 200px;""></button>","null","pink","neonyellow","[""pink"",""neonyellow"",""low nameability""]","right-left","[""neonyellow"",""pink""]","1","low nameability","1","right","iti",""
"html-button-response","25","1136280","0.0-20.0","CAN_107","107","","","","","","717","","0","purple","yellow","[""purple"",""yellow"",""high nameability""]","right-left","[""yellow"",""purple""]","1","high nameability","2","right","trigger",""
"html-button-response","26","1137053","0.0-21.0-0.0","CAN_107","107","","","","","","764","<button class=""jspsych-btn""><img src=""stimuli/purple.png"" style=""width: 200px;height: 200px;""></button>","1","purple","yellow","[""purple"",""yellow"",""high nameability""]","right-left","[""yellow"",""purple""]","1","high nameability","2","right","response","1"
"html-audio-button-response","27","1137263","0.0-21.0-1.0","CAN_107","107","","","","","","null","stimuli/bleep.m4a","null","purple","yellow","[""purple"",""yellow"",""high nameability""]","right-left","[""yellow"",""purple""]","1","high nameability","2","right","audio_feedback","1"
"html-button-response","28","1137794","0.0-22.0","CAN_107","107","","","","","","null","<button class=""jspsych-btn""><img src=""stimuli/white_square.png"" style=""width: 200px;height: 200px;""></button>","null","purple","yellow","[""purple"",""yellow"",""high nameability""]","right-left","[""yellow"",""purple""]","1","high nameability","2","right","iti",""
"html-button-response","29","1138502","0.0-23.0","CAN_107","107","","","","","","684","","0","yellow","brown","[""yellow"",""brown"",""high nameability""]","left-right","[""yellow"",""brown"",""high nameability""]","1","high nameability","3","left","trigger",""
"html-button-response","30","1139211","0.0-24.0-0.0","CAN_107","107","","","","","","700","<button class=""jspsych-btn""><img src=""stimuli/yellow.png"" style=""width: 200px;height: 200px;""></button>","0","yellow","brown","[""yellow"",""brown"",""high nameability""]","left-right","[""yellow"",""brown"",""high nameability""]","1","high nameability","3","left","response","1"
"html-audio-button-response","31","1139418","0.0-24.0-1.0","CAN_107","107","","","","","","null","stimuli/bleep.m4a","null","yellow","brown","[""yellow"",""brown"",""high nameability""]","left-right","[""yellow"",""brown"",""high nameability""]","1","high nameability","3","left","audio_feedback","1"
"html-button-response","32","1139941","0.0-25.0","CAN_107","107","","","","","","null","<button class=""jspsych-btn""><img src=""stimuli/white_square.png"" style=""width: 200px;height: 200px;""></button>","null","yellow","brown","[""yellow"",""brown"",""high nameability""]","left-right","[""yellow"",""brown"",""high nameability""]","1","high nameability","3","left","iti",""
"html-button-response","33","1140711","0.0-26.0","CAN_107","107","","","","","","735","","0","red","brown","[""red"",""brown"",""high nameability""]","left-right","[""red"",""brown"",""high nameability""]","1","high nameability","4","left","trigger",""
"html-button-response","34","1141486","0.0-27.0-0.0","CAN_107","107","","","","","","766","<button class=""jspsych-btn""><img src=""stimuli/red.png"" style=""width: 200px;height: 200px;""></button>","0","red","brown","[""red"",""brown"",""high nameability""]","left-right","[""red"",""brown"",""high nameability""]","1","high nameability","4","left","response","1"
"html-audio-button-response","35","1141692","0.0-27.0-1.0","CAN_107","107","","","","","","null","stimuli/bleep.m4a","null","red","brown","[""red"",""brown"",""high nameability""]","left-right","[""red"",""brown"",""high nameability""]","1","high nameability","4","left","audio_feedback","1"
"html-button-response","36","1142215","0.0-28.0","CAN_107","107","","","","","","null","<button class=""jspsych-btn""><img src=""stimuli/white_square.png"" style=""width: 200px;height: 200px;""></button>","null","red","brown","[""red"",""brown"",""high nameability""]","left-right","[""red"",""brown"",""high nameability""]","1","high nameability","4","left","iti",""
"html-button-response","37","1143005","0.0-29.0","CAN_107","107","","","","","","775","","0","brown","purple","[""brown"",""purple"",""high nameability""]","right-left","[""purple"",""brown""]","1","high nameability","5","right","trigger",""
"html-button-response","38","1143778","0.0-30.0-0.0","CAN_107","107","","","","","","764","<button class=""jspsych-btn""><img src=""stimuli/brown.png"" style=""width: 200px;height: 200px;""></button>","1","brown","purple","[""brown"",""purple"",""high nameability""]","right-left","[""purple"",""brown""]","1","high nameability","5","right","response","1"
"html-audio-button-response","39","1143984","0.0-30.0-1.0","CAN_107","107","","","","","","null","stimuli/bleep.m4a","null","brown","purple","[""brown"",""purple"",""high nameability""]","right-left","[""purple"",""brown""]","1","high nameability","5","right","audio_feedback","1"
"html-button-response","40","1144504","0.0-31.0","CAN_107","107","","","","","","null","<button class=""jspsych-btn""><img src=""stimuli/white_square.png"" style=""width: 200px;height: 200px;""></button>","null","brown","purple","[""brown"",""purple"",""high nameability""]","right-left","[""purple"",""brown""]","1","high nameability","5","right","iti",""
"html-button-response","41","1145207","0.0-32.0","CAN_107","107","","","","","","685","","0","red","purple","[""red"",""purple"",""high nameability""]","left-right","[""red"",""purple"",""high nameability""]","1","high nameability","6","left","trigger",""
"html-button-response","42","1145944","0.0-33.0-0.0","CAN_107","107","","","","","","730","<button class=""jspsych-btn""><img src=""stimuli/red.png"" style=""width: 200px;height: 200px;""></button>","0","red","purple","[""red"",""purple"",""high nameability""]","left-right","[""red"",""purple"",""high nameability""]","1","high nameability","6","left","response","1"
"html-audio-button-response","43","1146147","0.0-33.0-1.0","CAN_107","107","","","","","","null","stimuli/bleep.m4a","null","red","purple","[""red"",""purple"",""high nameability""]","left-right","[""red"",""purple"",""high nameability""]","1","high nameability","6","left","audio_feedback","1"
"html-button-response","44","1146668","0.0-34.0","CAN_107","107","","","","","","null","<button class=""jspsych-btn""><img src=""stimuli/white_square.png"" style=""width: 200px;height: 200px;""></button>","null","red","purple","[""red"",""purple"",""high nameability""]","left-right","[""red"",""purple"",""high nameability""]","1","high nameability","6","left","iti",""
"html-button-response","45","1147330","0.0-35.0","CAN_107","107","","","","","","645","","0","yellow","purple","[""yellow"",""purple"",""high nameability""]","left-right","[""yellow"",""purple"",""high nameability""]","1","high nameability","7","left","trigger",""
"html-button-response","46","1148026","0.0-36.0-0.0","CAN_107","107","","","","","","689","<button class=""jspsych-btn""><img src=""stimuli/yellow.png"" style=""width: 200px;height: 200px;""></button>","0","yellow","purple","[""yellow"",""purple"",""high nameability""]","left-right","[""yellow"",""purple"",""high nameability""]","1","high nameability","7","left","response","1"
"html-audio-button-response","47","1148233","0.0-36.0-1.0","CAN_107","107","","","","","","null","stimuli/bleep.m4a","null","yellow","purple","[""yellow"",""purple"",""high nameability""]","left-right","[""yellow"",""purple"",""high nameability""]","1","high nameability","7","left","audio_feedback","1"
"html-button-response","48","1148747","0.0-37.0","CAN_107","107","","","","","","null","<button class=""jspsych-btn""><img src=""stimuli/white_square.png"" style=""width: 200px;height: 200px;""></button>","null","yellow","purple","[""yellow"",""purple"",""high nameability""]","left-right","[""yellow"",""purple"",""high nameability""]","1","high nameability","7","left","iti",""
"html-button-response","49","1149375","0.0-38.0","CAN_107","107","","","","","","623","","0","turquoise","darkgreenblue","[""turquoise"",""darkgreenblue"",""low nameability""]","right-left","[""darkgreenblue"",""turquoise""]","1","low nameability","8","right","trigger",""
"html-button-response","50","1150103","0.0-39.0-0.0","CAN_107","107","","","","","","720","<button class=""jspsych-btn""><img src=""stimuli/turquoise.png"" style=""width: 200px;height: 200px;""></button>","1","turquoise","darkgreenblue","[""turquoise"",""darkgreenblue"",""low nameability""]","right-left","[""darkgreenblue"",""turquoise""]","1","low nameability","8","right","response","1"
"html-audio-button-response","51","1150307","0.0-39.0-1.0","CAN_107","107","","","","","","null","stimuli/bleep.m4a","null","turquoise","darkgreenblue","[""turquoise"",""darkgreenblue"",""low nameability""]","right-left","[""darkgreenblue"",""turquoise""]","1","low nameability","8","right","audio_feedback","1"
"html-button-response","52","1150827","0.0-40.0","CAN_107","107","","","","","","null","<button class=""jspsych-btn""><img src=""stimuli/white_square.png"" style=""width: 200px;height: 200px;""></button>","null","turquoise","darkgreenblue","[""turquoise"",""darkgreenblue"",""low nameability""]","right-left","[""darkgreenblue"",""turquoise""]","1","low nameability","8","right","iti",""
"html-button-response","53","1151487","0.0-41.0","CAN_107","107","","","","","","640","","0","brown","orange","[""brown"",""orange"",""high nameability""]","right-left","[""orange"",""brown""]","1","high nameability","9","right","trigger",""
"html-button-response","54","1152174","0.0-42.0-0.0","CAN_107","107","","","","","","677","<button class=""jspsych-btn""><img src=""stimuli/brown.png"" style=""width: 200px;height: 200px;""></button>","1","brown","orange","[""brown"",""orange"",""high nameability""]","right-left","[""orange"",""brown""]","1","high nameability","9","right","response","1"
"html-audio-button-response","55","1152376","0.0-42.0-1.0","CAN_107","107","","","","","","null","stimuli/bleep.m4a","null","brown","orange","[""brown"",""orange"",""high nameability""]","right-left","[""orange"",""brown""]","1","high nameability","9","right","audio_feedback","1"
"html-button-response","56","1152896","0.0-43.0","CAN_107","107","","","","","","null","<button class=""jspsych-btn""><img src=""stimuli/white_square.png"" style=""width: 200px;height: 200px;""></button>","null","brown","orange","[""brown"",""orange"",""high nameability""]","right-left","[""orange"",""brown""]","1","high nameability","9","right","iti",""
"html-button-response","57","1153542","0.0-44.0","CAN_107","107","","","","","","626","","0","purple","blue","[""purple"",""blue"",""high nameability""]","right-left","[""blue"",""purple""]","1","high nameability","10","right","trigger",""
"html-button-response","58","1154277","0.0-45.0-0.0","CAN_107","107","","","","","","728","<button class=""jspsych-btn""><img src=""stimuli/purple.png"" style=""width: 200px;height: 200px;""></button>","1","purple","blue","[""purple"",""blue"",""high nameability""]","right-left","[""blue"",""purple""]","1","high nameability","10","right","response","1"
"html-audio-button-response","59","1154480","0.0-45.0-1.0","CAN_107","107","","","","","","null","stimuli/bleep.m4a","null","purple","blue","[""purple"",""blue"",""high nameability""]","right-left","[""blue"",""purple""]","1","high nameability","10","right","audio_feedback","1"
"html-button-response","60","1155007","0.0-46.0","CAN_107","107","","","","","","null","<button class=""jspsych-btn""><img src=""stimuli/white_square.png"" style=""width: 200px;height: 200px;""></button>","null","purple","blue","[""purple"",""blue"",""high nameability""]","right-left","[""blue"",""purple""]","1","high nameability","10","right","iti",""
"pavlovia","61","1155141","0.0-47.0","CAN_107","107","","","","","","","","","","","","","","","","","","",""
"pavlovia","62","1155156","0.0-48.0","CAN_107","107","","","","","","","","","","","","","","","","","","",""
"html-audio-button-response","63","1158264","0.0-49.0","CAN_107","107","","","","","","3259","stimuli/tada.m4a","0","","","","","","","","","","",""
"html-button-response","64","1159758","0.0-50.0","CAN_107","107","","","","","","1488","","0","","","","","","","","","","",""
"html-button-response","65","1160865","0.0-51.0","CAN_107","107","","","","","","1099","","0","pink","lightred","[""pink"",""lightred"",""low nameability""]","right-left","[""lightred"",""pink""]","2","low nameability","11","right","trigger",""
"html-button-response","66","1161612","0.0-52.0-0.0","CAN_107","107","","","","","","740","<button class=""jspsych-btn""><img src=""stimuli/pink.png"" style=""width: 200px;height: 200px;""></button>","1","pink","lightred","[""pink"",""lightred"",""low nameability""]","right-left","[""lightred"",""pink""]","2","low nameability","11","right","response","1"
"html-audio-button-response","67","1161822","0.0-52.0-1.0","CAN_107","107","","","","","","null","stimuli/bleep.m4a","null","pink","lightred","[""pink"",""lightred"",""low nameability""]","right-left","[""lightred"",""pink""]","2","low nameability","11","right","audio_feedback","1"
"html-button-response","68","1162341","0.0-53.0","CAN_107","107","","","","","","null","<button class=""jspsych-btn""><img src=""stimuli/white_square.png"" style=""width: 200px;height: 200px;""></button>","null","pink","lightred","[""pink"",""lightred"",""low nameability""]","right-left","[""lightred"",""pink""]","2","low nameability","11","right","iti",""
"html-button-response","69","1162937","0.0-54.0","CAN_107","107","","","","","","575","","0","blue","purple","[""blue"",""purple"",""high nameability""]","left-right","[""blue"",""purple"",""high nameability""]","2","high nameability","12","left","trigger",""
"html-button-response","70","1163779","0.0-55.0-0.0","CAN_107","107","","","","","","834","<button class=""jspsych-btn""><img src=""stimuli/blue.png"" style=""width: 200px;height: 200px;""></button>","0","blue","purple","[""blue"",""purple"",""high nameability""]","left-right","[""blue"",""purple"",""high nameability""]","2","high nameability","12","left","response","1"
"html-audio-button-response","71","1163982","0.0-55.0-1.0","CAN_107","107","","","","","","null","stimuli/bleep.m4a","null","blue","purple","[""blue"",""purple"",""high nameability""]","left-right","[""blue"",""purple"",""high nameability""]","2","high nameability","12","left","audio_feedback","1"
"html-button-response","72","1164503","0.0-56.0","CAN_107","107","","","","","","null","<button class=""jspsych-btn""><img src=""stimuli/white_square.png"" style=""width: 200px;height: 200px;""></button>","null","blue","purple","[""blue"",""purple"",""high nameability""]","left-right","[""blue"",""purple"",""high nameability""]","2","high nameability","12","left","iti",""
"html-button-response","73","1165119","0.0-57.0","CAN_107","107","","","","","","597","","0","orange","yellow","[""orange"",""yellow"",""high nameability""]","left-right","[""orange"",""yellow"",""high nameability""]","2","high nameability","13","left","trigger",""
"html-button-response","74","1165817","0.0-58.0-0.0","CAN_107","107","","","","","","692","<button class=""jspsych-btn""><img src=""stimuli/orange.png"" style=""width: 200px;height: 200px;""></button>","0","orange","yellow","[""orange"",""yellow"",""high nameability""]","left-right","[""orange"",""yellow"",""high nameability""]","2","high nameability","13","left","response","1"
"html-audio-button-response","75","1166019","0.0-58.0-1.0","CAN_107","107","","","","","","null","stimuli/bleep.m4a","null","orange","yellow","[""orange"",""yellow"",""high nameability""]","left-right","[""orange"",""yellow"",""high nameability""]","2","high nameability","13","left","audio_feedback","1"
"html-button-response","76","1166542","0.0-59.0","CAN_107","107","","","","","","null","<button class=""jspsych-btn""><img src=""stimuli/white_square.png"" style=""width: 200px;height: 200px;""></button>","null","orange","yellow","[""orange"",""yellow"",""high nameability""]","left-right","[""orange"",""yellow"",""high nameability""]","2","high nameability","13","left","iti",""
"html-button-response","77","1167140","0.0-60.0","CAN_107","107","","","","","","577","","0","darkgreenblue","lightred","[""darkgreenblue"",""lightred"",""low nameability""]","right-left","[""lightred"",""darkgreenblue""]","2","low nameability","14","right","trigger",""
"html-button-response","78","1167937","0.0-61.0-0.0","CAN_107","107","","","","","","790","<button class=""jspsych-btn""><img src=""stimuli/darkgreenblue.png"" style=""width: 200px;height: 200px;""></button>","1","darkgreenblue","lightred","[""darkgreenblue"",""lightred"",""low nameability""]","right-left","[""lightred"",""darkgreenblue""]","2","low nameability","14","right","response","1"
"html-audio-button-response","79","1168145","0.0-61.0-1.0","CAN_107","107","","","","","","null","stimuli/bleep.m4a","null","darkgreenblue","lightred","[""darkgreenblue"",""lightred"",""low nameability""]","right-left","[""lightred"",""darkgreenblue""]","2","low nameability","14","right","audio_feedback","1"
"html-button-response","80","1168667","0.0-62.0","CAN_107","107","","","","","","null","<button class=""jspsych-btn""><img src=""stimuli/white_square.png"" style=""width: 200px;height: 200px;""></button>","null","darkgreenblue","lightred","[""darkgreenblue"",""lightred"",""low nameability""]","right-left","[""lightred"",""darkgreenblue""]","2","low nameability","14","right","iti",""
"html-button-response","81","1169298","0.0-63.0","CAN_107","107","","","","","","607","","0","neonyellow","lightred","[""neonyellow"",""lightred"",""low nameability""]","right-left","[""lightred"",""neonyellow""]","2","low nameability","15","right","trigger",""
"html-button-response","82","1170105","0.0-64.0-0.0","CAN_107","107","","","","","","799","<button class=""jspsych-btn""><img src=""stimuli/neonyellow.png"" style=""width: 200px;height: 200px;""></button>","1","neonyellow","lightred","[""neonyellow"",""lightred"",""low nameability""]","right-left","[""lightred"",""neonyellow""]","2","low nameability","15","right","response","1"
"html-audio-button-response","83","1170308","0.0-64.0-1.0","CAN_107","107","","","","","","null","stimuli/bleep.m4a","null","neonyellow","lightred","[""neonyellow"",""lightred"",""low nameability""]","right-left","[""lightred"",""neonyellow""]","2","low nameability","15","right","audio_feedback","1"
"html-button-response","84","1170833","0.0-65.0","CAN_107","107","","","","","","null","<button class=""jspsych-btn""><img src=""stimuli/white_square.png"" style=""width: 200px;height: 200px;""></button>","null","neonyellow","lightred","[""neonyellow"",""lightred"",""low nameability""]","right-left","[""lightred"",""neonyellow""]","2","low nameability","15","right","iti",""
"html-button-response","85","1171428","0.0-66.0","CAN_107","107","","","","","","576","","0","turquoise","pink","[""turquoise"",""pink"",""low nameability""]","right-left","[""pink"",""turquoise""]","2","low nameability","16","right","trigger",""
"html-button-response","86","1172178","0.0-67.0-0.0","CAN_107","107","","","","","","742","<button class=""jspsych-btn""><img src=""stimuli/turquoise.png"" style=""width: 200px;height: 200px;""></button>","1","turquoise","pink","[""turquoise"",""pink"",""low nameability""]","right-left","[""pink"",""turquoise""]","2","low nameability","16","right","response","1"
"html-audio-button-response","87","1172385","0.0-67.0-1.0","CAN_107","107","","","","","","null","stimuli/bleep.m4a","null","turquoise","pink","[""turquoise"",""pink"",""low nameability""]","right-left","[""pink"",""turquoise""]","2","low nameability","16","right","audio_feedback","1"
"html-button-response","88","1172906","0.0-68.0","CAN_107","107","","","","","","null","<button class=""jspsych-btn""><img src=""stimuli/white_square.png"" style=""width: 200px;height: 200px;""></button>","null","turquoise","pink","[""turquoise"",""pink"",""low nameability""]","right-left","[""pink"",""turquoise""]","2","low nameability","16","right","iti",""
"html-button-response","89","1173642","0.0-69.0","CAN_107","107","","","","","","709","","0","lightred","mustard","[""lightred"",""mustard"",""low nameability""]","right-left","[""mustard"",""lightred""]","2","low nameability","17","right","trigger",""
"html-button-response","90","1174359","0.0-70.0-0.0","CAN_107","107","","","","","","708","<button class=""jspsych-btn""><img src=""stimuli/lightred.png"" style=""width: 200px;height: 200px;""></button>","1","lightred","mustard","[""lightred"",""mustard"",""low nameability""]","right-left","[""mustard"",""lightred""]","2","low nameability","17","right","response","1"
"html-audio-button-response","91","1174564","0.0-70.0-1.0","CAN_107","107","","","","","","null","stimuli/bleep.m4a","null","lightred","mustard","[""lightred"",""mustard"",""low nameability""]","right-left","[""mustard"",""lightred""]","2","low nameability","17","right","audio_feedback","1"
"html-button-response","92","1175084","0.0-71.0","CAN_107","107","","","","","","null","<button class=""jspsych-btn""><img src=""stimuli/white_square.png"" style=""width: 200px;height: 200px;""></button>","null","lightred","mustard","[""lightred"",""mustard"",""low nameability""]","right-left","[""mustard"",""lightred""]","2","low nameability","17","right","iti",""
"html-button-response","93","1175733","0.0-72.0","CAN_107","107","","","","","","625","","0","mustard","lightred","[""mustard"",""lightred"",""low nameability""]","right-left","[""lightred"",""mustard""]","2","low nameability","18","right","trigger",""
"html-button-response","94","1176500","0.0-73.0-0.0","CAN_107","107","","","","","","760","<button class=""jspsych-btn""><img src=""stimuli/mustard.png"" style=""width: 200px;height: 200px;""></button>","1","mustard","lightred","[""mustard"",""lightred"",""low nameability""]","right-left","[""lightred"",""mustard""]","2","low nameability","18","right","response","1"
"html-audio-button-response","95","1176707","0.0-73.0-1.0","CAN_107","107","","","","","","null","stimuli/bleep.m4a","null","mustard","lightred","[""mustard"",""lightred"",""low nameability""]","right-left","[""lightred"",""mustard""]","2","low nameability","18","right","audio_feedback","1"
"html-button-response","96","1177236","0.0-74.0","CAN_107","107","","","","","","null","<button class=""jspsych-btn""><img src=""stimuli/white_square.png"" style=""width: 200px;height: 200px;""></button>","null","mustard","lightred","[""mustard"",""lightred"",""low nameability""]","right-left","[""lightred"",""mustard""]","2","low nameability","18","right","iti",""
"html-button-response","97","1177950","0.0-75.0","CAN_107","107","","","","","","699","","0","red","orange","[""red"",""orange"",""high nameability""]","right-left","[""orange"",""red""]","2","high nameability","19","right","trigger",""
"html-button-response","98","1178658","0.0-76.0-0.0","CAN_107","107","","","","","","702","<button class=""jspsych-btn""><img src=""stimuli/red.png"" style=""width: 200px;height: 200px;""></button>","1","red","orange","[""red"",""orange"",""high nameability""]","right-left","[""orange"",""red""]","2","high nameability","19","right","response","1"
"html-audio-button-response","99","1178864","0.0-76.0-1.0","CAN_107","107","","","","","","null","stimuli/bleep.m4a","null","red","orange","[""red"",""orange"",""high nameability""]","right-left","[""orange"",""red""]","2","high nameability","19","right","audio_feedback","1"
"html-button-response","100","1179387","0.0-77.0","CAN_107","107","","","","","","null","<button class=""jspsych-btn""><img src=""stimuli/white_square.png"" style=""width: 200px;height: 200px;""></button>","null","red","orange","[""red"",""orange"",""high nameability""]","right-left","[""orange"",""red""]","2","high nameability","19","right","iti",""
"html-button-response","101","1180013","0.0-78.0","CAN_107","107","","","","","","608","","0","turquoise","lightred","[""turquoise"",""lightred"",""low nameability""]","left-right","[""turquoise"",""lightred"",""low nameability""]","2","low nameability","20","left","trigger",""
"html-button-response","102","1180749","0.0-79.0-0.0","CAN_107","107","","","","","","730","<button class=""jspsych-btn""><img src=""stimuli/turquoise.png"" style=""width: 200px;height: 200px;""></button>","0","turquoise","lightred","[""turquoise"",""lightred"",""low nameability""]","left-right","[""turquoise"",""lightred"",""low nameability""]","2","low nameability","20","left","response","1"
"html-audio-button-response","103","1180959","0.0-79.0-1.0","CAN_107","107","","","","","","null","stimuli/bleep.m4a","null","turquoise","lightred","[""turquoise"",""lightred"",""low nameability""]","left-right","[""turquoise"",""lightred"",""low nameability""]","2","low nameability","20","left","audio_feedback","1"
"html-button-response","104","1181486","0.0-80.0","CAN_107","107","","","","","","null","<button class=""jspsych-btn""><img src=""stimuli/white_square.png"" style=""width: 200px;height: 200px;""></button>","null","turquoise","lightred","[""turquoise"",""lightred"",""low nameability""]","left-right","[""turquoise"",""lightred"",""low nameability""]","2","low nameability","20","left","iti",""
"pavlovia","105","1181561","0.0-81.0","CAN_107","107","","","","","","","","","","","","","","","","","","",""
"pavlovia","106","1181569","0.0-82.0","CAN_107","107","","","","","","","","","","","","","","","","","","",""
"html-audio-button-response","107","1183485","0.0-83.0","CAN_107","107","","","","","","2003","stimuli/tada.m4a","0","","","","","","","","","","",""
"html-button-response","108","1184669","0.0-84.0","CAN_107","107","","","","","","1176","","0","","","","","","","","","","",""
"html-button-response","109","1185400","0.0-85.0","CAN_107","107","","","","","","725","","0","neonyellow","pink","[""neonyellow"",""pink"",""low nameability""]","right-left","[""pink"",""neonyellow""]","3","low nameability","21","right","trigger",""
"html-button-response","110","1186067","0.0-86.0-0.0","CAN_107","107","","","","","","656","<button class=""jspsych-btn""><img src=""stimuli/neonyellow.png"" style=""width: 200px;height: 200px;""></button>","1","neonyellow","pink","[""neonyellow"",""pink"",""low nameability""]","right-left","[""pink"",""neonyellow""]","3","low nameability","21","right","response","1"
"html-audio-button-response","111","1186274","0.0-86.0-1.0","CAN_107","107","","","","","","null","stimuli/bleep.m4a","null","neonyellow","pink","[""neonyellow"",""pink"",""low nameability""]","right-left","[""pink"",""neonyellow""]","3","low nameability","21","right","audio_feedback","1"
"html-button-response","112","1186795","0.0-87.0","CAN_107","107","","","","","","null","<button class=""jspsych-btn""><img src=""stimuli/white_square.png"" style=""width: 200px;height: 200px;""></button>","null","neonyellow","pink","[""neonyellow"",""pink"",""low nameability""]","right-left","[""pink"",""neonyellow""]","3","low nameability","21","right","iti",""
"html-button-response","113","1187422","0.0-88.0","CAN_107","107","","","","","","604","","0","red","blue","[""red"",""blue"",""high nameability""]","left-right","[""red"",""blue"",""high nameability""]","3","high nameability","22","left","trigger",""
"html-button-response","114","1188096","0.0-89.0-0.0","CAN_107","107","","","","","","666","<button class=""jspsych-btn""><img src=""stimuli/red.png"" style=""width: 200px;height: 200px;""></button>","0","red","blue","[""red"",""blue"",""high nameability""]","left-right","[""red"",""blue"",""high nameability""]","3","high nameability","22","left","response","1"
"html-audio-button-response","115","1188303","0.0-89.0-1.0","CAN_107","107","","","","","","null","stimuli/bleep.m4a","null","red","blue","[""red"",""blue"",""high nameability""]","left-right","[""red"",""blue"",""high nameability""]","3","high nameability","22","left","audio_feedback","1"
"html-button-response","116","1188826","0.0-90.0","CAN_107","107","","","","","","null","<button class=""jspsych-btn""><img src=""stimuli/white_square.png"" style=""width: 200px;height: 200px;""></button>","null","red","blue","[""red"",""blue"",""high nameability""]","left-right","[""red"",""blue"",""high nameability""]","3","high nameability","22","left","iti",""
"html-button-response","117","1189422","0.0-91.0","CAN_107","107","","","","","","573","","0","blue","brown","[""blue"",""brown"",""high nameability""]","left-right","[""blue"",""brown"",""high nameability""]","3","high nameability","23","left","trigger",""
"html-button-response","118","1190112","0.0-92.0-0.0","CAN_107","107","","","","","","682","<button class=""jspsych-btn""><img src=""stimuli/blue.png"" style=""width: 200px;height: 200px;""></button>","0","blue","brown","[""blue"",""brown"",""high nameability""]","left-right","[""blue"",""brown"",""high nameability""]","3","high nameability","23","left","response","1"
"html-audio-button-response","119","1190318","0.0-92.0-1.0","CAN_107","107","","","","","","null","stimuli/bleep.m4a","null","blue","brown","[""blue"",""brown"",""high nameability""]","left-right","[""blue"",""brown"",""high nameability""]","3","high nameability","23","left","audio_feedback","1"
"html-button-response","120","1190838","0.0-93.0","CAN_107","107","","","","","","null","<button class=""jspsych-btn""><img src=""stimuli/white_square.png"" style=""width: 200px;height: 200px;""></button>","null","blue","brown","[""blue"",""brown"",""high nameability""]","left-right","[""blue"",""brown"",""high nameability""]","3","high nameability","23","left","iti",""
"html-button-response","121","1191468","0.0-94.0","CAN_107","107","","","","","","609","","0","orange","blue","[""orange"",""blue"",""high nameability""]","left-right","[""orange"",""blue"",""high nameability""]","3","high nameability","24","left","trigger",""
"html-button-response","122","1192171","0.0-95.0-0.0","CAN_107","107","","","","","","696","<button class=""jspsych-btn""><img src=""stimuli/orange.png"" style=""width: 200px;height: 200px;""></button>","0","orange","blue","[""orange"",""blue"",""high nameability""]","left-right","[""orange"",""blue"",""high nameability""]","3","high nameability","24","left","response","1"
"html-audio-button-response","123","1192374","0.0-95.0-1.0","CAN_107","107","","","","","","null","stimuli/bleep.m4a","null","orange","blue","[""orange"",""blue"",""high nameability""]","left-right","[""orange"",""blue"",""high nameability""]","3","high nameability","24","left","audio_feedback","1"
"html-button-response","124","1192891","0.0-96.0","CAN_107","107","","","","","","null","<button class=""jspsych-btn""><img src=""stimuli/white_square.png"" style=""width: 200px;height: 200px;""></button>","null","orange","blue","[""orange"",""blue"",""high nameability""]","left-right","[""orange"",""blue"",""high nameability""]","3","high nameability","24","left","iti",""
"html-button-response","125","1193443","0.0-97.0","CAN_107","107","","","","","","537","","0","mustard","turquoise","[""mustard"",""turquoise"",""low nameability""]","right-left","[""turquoise"",""mustard""]","3","low nameability","25","right","trigger",""
"html-button-response","126","1194130","0.0-98.0-0.0","CAN_107","107","","","","","","678","<button class=""jspsych-btn""><img src=""stimuli/mustard.png"" style=""width: 200px;height: 200px;""></button>","1","mustard","turquoise","[""mustard"",""turquoise"",""low nameability""]","right-left","[""turquoise"",""mustard""]","3","low nameability","25","right","response","1"
"html-audio-button-response","127","1194336","0.0-98.0-1.0","CAN_107","107","","","","","","null","stimuli/bleep.m4a","null","mustard","turquoise","[""mustard"",""turquoise"",""low nameability""]","right-left","[""turquoise"",""mustard""]","3","low nameability","25","right","audio_feedback","1"
"html-button-response","128","1194855","0.0-99.0","CAN_107","107","","","","","","null","<button class=""jspsych-btn""><img src=""stimuli/white_square.png"" style=""width: 200px;height: 200px;""></button>","null","mustard","turquoise","[""mustard"",""turquoise"",""low nameability""]","right-left","[""turquoise"",""mustard""]","3","low nameability","25","right","iti",""
"html-button-response","129","1195447","0.0-100.0","CAN_107","107","","","","","","581","","0","darkgreenblue","mustard","[""darkgreenblue"",""mustard"",""low nameability""]","left-right","[""darkgreenblue"",""mustard"",""low nameability""]","3","low nameability","26","left","trigger",""
"html-button-response","130","1196308","0.0-101.0-0.0","CAN_107","107","","","","","","853","<button class=""jspsych-btn""><img src=""stimuli/darkgreenblue.png"" style=""width: 200px;height: 200px;""></button>","0","darkgreenblue","mustard","[""darkgreenblue"",""mustard"",""low nameability""]","left-right","[""darkgreenblue"",""mustard"",""low nameability""]","3","low nameability","26","left","response","1"
"html-audio-button-response","131","1196515","0.0-101.0-1.0","CAN_107","107","","","","","","null","stimuli/bleep.m4a","null","darkgreenblue","mustard","[""darkgreenblue"",""mustard"",""low nameability""]","left-right","[""darkgreenblue"",""mustard"",""low nameability""]","3","low nameability","26","left","audio_feedback","1"
"html-button-response","132","1197034","0.0-102.0","CAN_107","107","","","","","","null","<button class=""jspsych-btn""><img src=""stimuli/white_square.png"" style=""width: 200px;height: 200px;""></button>","null","darkgreenblue","mustard","[""darkgreenblue"",""mustard"",""low nameability""]","left-right","[""darkgreenblue"",""mustard"",""low nameability""]","3","low nameability","26","left","iti",""
"html-button-response","133","1197603","0.0-103.0","CAN_107","107","","","","","","552","","0","lightred","pink","[""lightred"",""pink"",""low nameability""]","right-left","[""pink"",""lightred""]","3","low nameability","27","right","trigger",""
"html-button-response","134","1198310","0.0-104.0-0.0","CAN_107","107","","","","","","699","<button class=""jspsych-btn""><img src=""stimuli/lightred.png"" style=""width: 200px;height: 200px;""></button>","1","lightred","pink","[""lightred"",""pink"",""low nameability""]","right-left","[""pink"",""lightred""]","3","low nameability","27","right","response","1"
"html-audio-button-response","135","1198514","0.0-104.0-1.0","CAN_107","107","","","","","","null","stimuli/bleep.m4a","null","lightred","pink","[""lightred"",""pink"",""low nameability""]","right-left","[""pink"",""lightred""]","3","low nameability","27","right","audio_feedback","1"
"html-button-response","136","1199035","0.0-105.0","CAN_107","107","","","","","","null","<button class=""jspsych-btn""><img src=""stimuli/white_square.png"" style=""width: 200px;height: 200px;""></button>","null","lightred","pink","[""lightred"",""pink"",""low nameability""]","right-left","[""pink"",""lightred""]","3","low nameability","27","right","iti",""
"html-button-response","137","1199664","0.0-106.0","CAN_107","107","","","","","","620","","0","darkgreenblue","pink","[""darkgreenblue"",""pink"",""low nameability""]","right-left","[""pink"",""darkgreenblue""]","3","low nameability","28","right","trigger",""
"html-button-response","138","1200373","0.0-107.0-0.0","CAN_107","107","","","","","","702","<button class=""jspsych-btn""><img src=""stimuli/darkgreenblue.png"" style=""width: 200px;height: 200px;""></button>","1","darkgreenblue","pink","[""darkgreenblue"",""pink"",""low nameability""]","right-left","[""pink"",""darkgreenblue""]","3","low nameability","28","right","response","1"
"html-audio-button-response","139","1200575","0.0-107.0-1.0","CAN_107","107","","","","","","null","stimuli/bleep.m4a","null","darkgreenblue","pink","[""darkgreenblue"",""pink"",""low nameability""]","right-left","[""pink"",""darkgreenblue""]","3","low nameability","28","right","audio_feedback","1"
"html-button-response","140","1201091","0.0-108.0","CAN_107","107","","","","","","null","<button class=""jspsych-btn""><img src=""stimuli/white_square.png"" style=""width: 200px;height: 200px;""></button>","null","darkgreenblue","pink","[""darkgreenblue"",""pink"",""low nameability""]","right-left","[""pink"",""darkgreenblue""]","3","low nameability","28","right","iti",""
"html-button-response","141","1201864","0.0-109.0","CAN_107","107","","","","","","755","","0","lightred","neonyellow","[""lightred"",""neonyellow"",""low nameability""]","right-left","[""neonyellow"",""lightred""]","3","low nameability","29","right","trigger",""
"html-button-response","142","1202513","0.0-110.0-0.0","CAN_107","107","","","","","","641","<button class=""jspsych-btn""><img src=""stimuli/lightred.png"" style=""width: 200px;height: 200px;""></button>","1","lightred","neonyellow","[""lightred"",""neonyellow"",""low nameability""]","right-left","[""neonyellow"",""lightred""]","3","low nameability","29","right","response","1"
"html-audio-button-response","143","1202715","0.0-110.0-1.0","CAN_107","107","","","","","","null","stimuli/bleep.m4a","null","lightred","neonyellow","[""lightred"",""neonyellow"",""low nameability""]","right-left","[""neonyellow"",""lightred""]","3","low nameability","29","right","audio_feedback","1"
"html-button-response","144","1203235","0.0-111.0","CAN_107","107","","","","","","null","<button class=""jspsych-btn""><img src=""stimuli/white_square.png"" style=""width: 200px;height: 200px;""></button>","null","lightred","neonyellow","[""lightred"",""neonyellow"",""low nameability""]","right-left","[""neonyellow"",""lightred""]","3","low nameability","29","right","iti",""
"html-button-response","145","1203771","0.0-112.0","CAN_107","107","","","","","","518","","0","pink","darkgreenblue","[""pink"",""darkgreenblue"",""low nameability""]","right-left","[""darkgreenblue"",""pink""]","3","low nameability","30","right","trigger",""
"html-button-response","146","1204441","0.0-113.0-0.0","CAN_107","107","","","","","","665","<button class=""jspsych-btn""><img src=""stimuli/pink.png"" style=""width: 200px;height: 200px;""></button>","1","pink","darkgreenblue","[""pink"",""darkgreenblue"",""low nameability""]","right-left","[""darkgreenblue"",""pink""]","3","low nameability","30","right","response","1"
"html-audio-button-response","147","1204646","0.0-113.0-1.0","CAN_107","107","","","","","","null","stimuli/bleep.m4a","null","pink","darkgreenblue","[""pink"",""darkgreenblue"",""low nameability""]","right-left","[""darkgreenblue"",""pink""]","3","low nameability","30","right","audio_feedback","1"
"html-button-response","148","1205164","0.0-114.0","CAN_107","107","","","","","","null","<button class=""jspsych-btn""><img src=""stimuli/white_square.png"" style=""width: 200px;height: 200px;""></button>","null","pink","darkgreenblue","[""pink"",""darkgreenblue"",""low nameability""]","right-left","[""darkgreenblue"",""pink""]","3","low nameability","30","right","iti",""
"pavlovia","149","1205229","0.0-115.0","CAN_107","107","","","","","","","","","","","","","","","","","","",""
"pavlovia","150","1205236","0.0-116.0","CAN_107","107","","","","","","","","","","","","","","","","","","",""
"html-audio-button-response","151","1207113","0.0-117.0","CAN_107","107","","","","","","1952","stimuli/tada.m4a","0","","","","","","","","","","",""
"html-button-response","152","1208168","0.0-118.0","CAN_107","107","","","","","","1049","","0","","","","","","","","","","",""
"html-button-response","153","1208823","0.0-119.0","CAN_107","107","","","","","","648","","0","yellow","red","[""yellow"",""red"",""high nameability""]","right-left","[""red"",""yellow""]","4","high nameability","31","right","trigger",""
"html-button-response","154","1209463","0.0-120.0-0.0","CAN_107","107","","","","","","633","<button class=""jspsych-btn""><img src=""stimuli/yellow.png"" style=""width: 200px;height: 200px;""></button>","1","yellow","red","[""yellow"",""red"",""high nameability""]","right-left","[""red"",""yellow""]","4","high nameability","31","right","response","1"
"html-audio-button-response","155","1209668","0.0-120.0-1.0","CAN_107","107","","","","","","null","stimuli/bleep.m4a","null","yellow","red","[""yellow"",""red"",""high nameability""]","right-left","[""red"",""yellow""]","4","high nameability","31","right","audio_feedback","1"
"html-button-response","156","1210188","0.0-121.0","CAN_107","107","","","","","","null","<button class=""jspsych-btn""><img src=""stimuli/white_square.png"" style=""width: 200px;height: 200px;""></button>","null","yellow","red","[""yellow"",""red"",""high nameability""]","right-left","[""red"",""yellow""]","4","high nameability","31","right","iti",""
"html-button-response","157","1210792","0.0-122.0","CAN_107","107","","","","","","588","","0","turquoise","mustard","[""turquoise"",""mustard"",""low nameability""]","left-right","[""turquoise"",""mustard"",""low nameability""]","4","low nameability","32","left","trigger",""
"html-button-response","158","1211455","0.0-123.0-0.0","CAN_107","107","","","","","","655","<button class=""jspsych-btn""><img src=""stimuli/turquoise.png"" style=""width: 200px;height: 200px;""></button>","0","turquoise","mustard","[""turquoise"",""mustard"",""low nameability""]","left-right","[""turquoise"",""mustard"",""low nameability""]","4","low nameability","32","left","response","1"
"html-audio-button-response","159","1211659","0.0-123.0-1.0","CAN_107","107","","","","","","null","stimuli/bleep.m4a","null","turquoise","mustard","[""turquoise"",""mustard"",""low nameability""]","left-right","[""turquoise"",""mustard"",""low nameability""]","4","low nameability","32","left","audio_feedback","1"
"html-button-response","160","1212176","0.0-124.0","CAN_107","107","","","","","","null","<button class=""jspsych-btn""><img src=""stimuli/white_square.png"" style=""width: 200px;height: 200px;""></button>","null","turquoise","mustard","[""turquoise"",""mustard"",""low nameability""]","left-right","[""turquoise"",""mustard"",""low nameability""]","4","low nameability","32","left","iti",""
"html-button-response","161","1212711","0.0-125.0","CAN_107","107","","","","","","511","","0","brown","blue","[""brown"",""blue"",""high nameability""]","left-right","[""brown"",""blue"",""high nameability""]","4","high nameability","33","left","trigger",""
"html-button-response","162","1213367","0.0-126.0-0.0","CAN_107","107","","","","","","650","<button class=""jspsych-btn""><img src=""stimuli/brown.png"" style=""width: 200px;height: 200px;""></button>","0","brown","blue","[""brown"",""blue"",""high nameability""]","left-right","[""brown"",""blue"",""high nameability""]","4","high nameability","33","left","response","1"
"html-audio-button-response","163","1213571","0.0-126.0-1.0","CAN_107","107","","","","","","null","stimuli/bleep.m4a","null","brown","blue","[""brown"",""blue"",""high nameability""]","left-right","[""brown"",""blue"",""high nameability""]","4","high nameability","33","left","audio_feedback","1"
"html-button-response","164","1214096","0.0-127.0","CAN_107","107","","","","","","null","<button class=""jspsych-btn""><img src=""stimuli/white_square.png"" style=""width: 200px;height: 200px;""></button>","null","brown","blue","[""brown"",""blue"",""high nameability""]","left-right","[""brown"",""blue"",""high nameability""]","4","high nameability","33","left","iti",""
"html-button-response","165","1214706","0.0-128.0","CAN_107","107","","","","","","592","","0","yellow","orange","[""yellow"",""orange"",""high nameability""]","right-left","[""orange"",""yellow""]","4","high nameability","34","right","trigger",""
"html-button-response","166","1215382","0.0-129.0-0.0","CAN_107","107","","","","","","668","<button class=""jspsych-btn""><img src=""stimuli/yellow.png"" style=""width: 200px;height: 200px;""></button>","1","yellow","orange","[""yellow"",""orange"",""high nameability""]","right-left","[""orange"",""yellow""]","4","high nameability","34","right","response","1"
"html-audio-button-response","167","1215587","0.0-129.0-1.0","CAN_107","107","","","","","","null","stimuli/bleep.m4a","null","yellow","orange","[""yellow"",""orange"",""high nameability""]","right-left","[""orange"",""yellow""]","4","high nameability","34","right","audio_feedback","1"
"html-button-response","168","1216105","0.0-130.0","CAN_107","107","","","","","","null","<button class=""jspsych-btn""><img src=""stimuli/white_square.png"" style=""width: 200px;height: 200px;""></button>","null","yellow","orange","[""yellow"",""orange"",""high nameability""]","right-left","[""orange"",""yellow""]","4","high nameability","34","right","iti",""
"html-button-response","169","1216678","0.0-131.0","CAN_107","107","","","","","","556","","0","orange","purple","[""orange"",""purple"",""high nameability""]","left-right","[""orange"",""purple"",""high nameability""]","4","high nameability","35","left","trigger",""
"html-button-response","170","1217316","0.0-132.0-0.0","CAN_107","107","","","","","","630","<button class=""jspsych-btn""><img src=""stimuli/orange.png"" style=""width: 200px;height: 200px;""></button>","0","orange","purple","[""orange"",""purple"",""high nameability""]","left-right","[""orange"",""purple"",""high nameability""]","4","high nameability","35","left","response","1"
"html-audio-button-response","171","1217522","0.0-132.0-1.0","CAN_107","107","","","","","","null","stimuli/bleep.m4a","null","orange","purple","[""orange"",""purple"",""high nameability""]","left-right","[""orange"",""purple"",""high nameability""]","4","high nameability","35","left","audio_feedback","1"
"html-button-response","172","1218041","0.0-133.0","CAN_107","107","","","","","","null","<button class=""jspsych-btn""><img src=""stimuli/white_square.png"" style=""width: 200px;height: 200px;""></button>","null","orange","purple","[""orange"",""purple"",""high nameability""]","left-right","[""orange"",""purple"",""high nameability""]","4","high nameability","35","left","iti",""
"html-button-response","173","1218667","0.0-134.0","CAN_107","107","","","","","","602","","0","mustard","pink","[""mustard"",""pink"",""low nameability""]","right-left","[""pink"",""mustard""]","4","low nameability","36","right","trigger",""
"html-button-response","174","1219261","0.0-135.0-0.0","CAN_107","107","","","","","","585","<button class=""jspsych-btn""><img src=""stimuli/mustard.png"" style=""width: 200px;height: 200px;""></button>","1","mustard","pink","[""mustard"",""pink"",""low nameability""]","right-left","[""pink"",""mustard""]","4","low nameability","36","right","response","1"
"html-audio-button-response","175","1219472","0.0-135.0-1.0","CAN_107","107","","","","","","null","stimuli/bleep.m4a","null","mustard","pink","[""mustard"",""pink"",""low nameability""]","right-left","[""pink"",""mustard""]","4","low nameability","36","right","audio_feedback","1"
"html-button-response","176","1219984","0.0-136.0","CAN_107","107","","","","","","null","<button class=""jspsych-btn""><img src=""stimuli/white_square.png"" style=""width: 200px;height: 200px;""></button>","null","mustard","pink","[""mustard"",""pink"",""low nameability""]","right-left","[""pink"",""mustard""]","4","low nameability","36","right","iti",""
"html-button-response","177","1220555","0.0-137.0","CAN_107","107","","","","","","540","","0","orange","red","[""orange"",""red"",""high nameability""]","left-right","[""orange"",""red"",""high nameability""]","4","high nameability","37","left","trigger",""
"html-button-response","178","1221293","0.0-138.0-0.0","CAN_107","107","","","","","","728","<button class=""jspsych-btn""><img src=""stimuli/orange.png"" style=""width: 200px;height: 200px;""></button>","0","orange","red","[""orange"",""red"",""high nameability""]","left-right","[""orange"",""red"",""high nameability""]","4","high nameability","37","left","response","1"
"html-audio-button-response","179","1221499","0.0-138.0-1.0","CAN_107","107","","","","","","null","stimuli/bleep.m4a","null","orange","red","[""orange"",""red"",""high nameability""]","left-right","[""orange"",""red"",""high nameability""]","4","high nameability","37","left","audio_feedback","1"
"html-button-response","180","1222017","0.0-139.0","CAN_107","107","","","","","","null","<button class=""jspsych-btn""><img src=""stimuli/white_square.png"" style=""width: 200px;height: 200px;""></button>","null","orange","red","[""orange"",""red"",""high nameability""]","left-right","[""orange"",""red"",""high nameability""]","4","high nameability","37","left","iti",""
"html-button-response","181","1222547","0.0-140.0","CAN_107","107","","","","","","505","","0","neonyellow","darkgreenblue","[""neonyellow"",""darkgreenblue"",""low nameability""]","left-right","[""neonyellow"",""darkgreenblue"",""low nameability""]","4","low nameability","38","left","trigger",""
"html-button-response","182","1223197","0.0-141.0-0.0","CAN_107","107","","","","","","637","<button class=""jspsych-btn""><img src=""stimuli/neonyellow.png"" style=""width: 200px;height: 200px;""></button>","0","neonyellow","darkgreenblue","[""neonyellow"",""darkgreenblue"",""low nameability""]","left-right","[""neonyellow"",""darkgreenblue"",""low nameability""]","4","low nameability","38","left","response","1"
"html-audio-button-response","183","1223408","0.0-141.0-1.0","CAN_107","107","","","","","","null","stimuli/bleep.m4a","null","neonyellow","darkgreenblue","[""neonyellow"",""darkgreenblue"",""low nameability""]","left-right","[""neonyellow"",""darkgreenblue"",""low nameability""]","4","low nameability","38","left","audio_feedback","1"
"html-button-response","184","1223924","0.0-142.0","CAN_107","107","","","","","","null","<button class=""jspsych-btn""><img src=""stimuli/white_square.png"" style=""width: 200px;height: 200px;""></button>","null","neonyellow","darkgreenblue","[""neonyellow"",""darkgreenblue"",""low nameability""]","left-right","[""neonyellow"",""darkgreenblue"",""low nameability""]","4","low nameability","38","left","iti",""
"html-button-response","185","1224503","0.0-143.0","CAN_107","107","","","","","","551","","0","neonyellow","mustard","[""neonyellow"",""mustard"",""low nameability""]","right-left","[""mustard"",""neonyellow""]","4","low nameability","39","right","trigger",""
"html-button-response","186","1225194","0.0-144.0-0.0","CAN_107","107","","","","","","682","<button class=""jspsych-btn""><img src=""stimuli/neonyellow.png"" style=""width: 200px;height: 200px;""></button>","1","neonyellow","mustard","[""neonyellow"",""mustard"",""low nameability""]","right-left","[""mustard"",""neonyellow""]","4","low nameability","39","right","response","1"
"html-audio-button-response","187","1225396","0.0-144.0-1.0","CAN_107","107","","","","","","null","stimuli/bleep.m4a","null","neonyellow","mustard","[""neonyellow"",""mustard"",""low nameability""]","right-left","[""mustard"",""neonyellow""]","4","low nameability","39","right","audio_feedback","1"
"html-button-response","188","1225914","0.0-145.0","CAN_107","107","","","","","","null","<button class=""jspsych-btn""><img src=""stimuli/white_square.png"" style=""width: 200px;height: 200px;""></button>","null","neonyellow","mustard","[""neonyellow"",""mustard"",""low nameability""]","right-left","[""mustard"",""neonyellow""]","4","low nameability","39","right","iti",""
"html-button-response","189","1226531","0.0-146.0","CAN_107","107","","","","","","600","","0","pink","turquoise","[""pink"",""turquoise"",""low nameability""]","left-right","[""pink"",""turquoise"",""low nameability""]","4","low nameability","40","left","trigger",""
"html-button-response","190","1227242","0.0-147.0-0.0","CAN_107","107","","","","","","705","<button class=""jspsych-btn""><img src=""stimuli/pink.png"" style=""width: 200px;height: 200px;""></button>","0","pink","turquoise","[""pink"",""turquoise"",""low nameability""]","left-right","[""pink"",""turquoise"",""low nameability""]","4","low nameability","40","left","response","1"
"html-audio-button-response","191","1227451","0.0-147.0-1.0","CAN_107","107","","","","","","null","stimuli/bleep.m4a","null","pink","turquoise","[""pink"",""turquoise"",""low nameability""]","left-right","[""pink"",""turquoise"",""low nameability""]","4","low nameability","40","left","audio_feedback","1"
"html-button-response","192","1227969","0.0-148.0","CAN_107","107","","","","","","null","<button class=""jspsych-btn""><img src=""stimuli/white_square.png"" style=""width: 200px;height: 200px;""></button>","null","pink","turquoise","[""pink"",""turquoise"",""low nameability""]","left-right","[""pink"",""turquoise"",""low nameability""]","4","low nameability","40","left","iti",""
"pavlovia","193","1228030","0.0-149.0","CAN_107","107","","","","","","","","","","","","","","","","","","",""
"pavlovia","194","1228038","0.0-150.0","CAN_107","107","","","","","","","","","","","","","","","","","","",""
"html-audio-button-response","195","1230159","0.0-151.0","CAN_107","107","","","","","","2187","stimuli/tada.m4a","0","","","","","","","","","","",""
"html-button-response","196","1231458","0.0-152.0","CAN_107","107","","","","","","1295","","0","","","","","","","","","","",""
"html-button-response","197","1232132","0.0-153.0","CAN_107","107","","","","","","667","","0","mustard","darkgreenblue","[""mustard"",""darkgreenblue"",""low nameability""]","left-right","[""mustard"",""darkgreenblue"",""low nameability""]","5","low nameability","41","left","trigger",""
"html-button-response","198","1232785","0.0-154.0-0.0","CAN_107","107","","","","","","647","<button class=""jspsych-btn""><img src=""stimuli/mustard.png"" style=""width: 200px;height: 200px;""></button>","0","mustard","darkgreenblue","[""mustard"",""darkgreenblue"",""low nameability""]","left-right","[""mustard"",""darkgreenblue"",""low nameability""]","5","low nameability","41","left","response","1"
"html-audio-button-response","199","1232987","0.0-154.0-1.0","CAN_107","107","","","","","","null","stimuli/bleep.m4a","null","mustard","darkgreenblue","[""mustard"",""darkgreenblue"",""low nameability""]","left-right","[""mustard"",""darkgreenblue"",""low nameability""]","5","low nameability","41","left","audio_feedback","1"
"html-button-response","200","1233513","0.0-155.0","CAN_107","107","","","","","","null","<button class=""jspsych-btn""><img src=""stimuli/white_square.png"" style=""width: 200px;height: 200px;""></button>","null","mustard","darkgreenblue","[""mustard"",""darkgreenblue"",""low nameability""]","left-right","[""mustard"",""darkgreenblue"",""low nameability""]","5","low nameability","41","left","iti",""
"html-button-response","201","1234065","0.0-156.0","CAN_107","107","","","","","","516","","0","darkgreenblue","neonyellow","[""darkgreenblue"",""neonyellow"",""low nameability""]","left-right","[""darkgreenblue"",""neonyellow"",""low nameability""]","5","low nameability","42","left","trigger",""
"html-button-response","202","1234727","0.0-157.0-0.0","CAN_107","107","","","","","","651","<button class=""jspsych-btn""><img src=""stimuli/darkgreenblue.png"" style=""width: 200px;height: 200px;""></button>","0","darkgreenblue","neonyellow","[""darkgreenblue"",""neonyellow"",""low nameability""]","left-right","[""darkgreenblue"",""neonyellow"",""low nameability""]","5","low nameability","42","left","response","1"
"html-audio-button-response","203","1234926","0.0-157.0-1.0","CAN_107","107","","","","","","null","stimuli/bleep.m4a","null","darkgreenblue","neonyellow","[""darkgreenblue"",""neonyellow"",""low nameability""]","left-right","[""darkgreenblue"",""neonyellow"",""low nameability""]","5","low nameability","42","left","audio_feedback","1"
"html-button-response","204","1235448","0.0-158.0","CAN_107","107","","","","","","null","<button class=""jspsych-btn""><img src=""stimuli/white_square.png"" style=""width: 200px;height: 200px;""></button>","null","darkgreenblue","neonyellow","[""darkgreenblue"",""neonyellow"",""low nameability""]","left-right","[""darkgreenblue"",""neonyellow"",""low nameability""]","5","low nameability","42","left","iti",""
"html-button-response","205","1236052","0.0-159.0","CAN_107","107","","","","","","583","","0","darkgreenblue","turquoise","[""darkgreenblue"",""turquoise"",""low nameability""]","left-right","[""darkgreenblue"",""turquoise"",""low nameability""]","5","low nameability","43","left","trigger",""
"html-button-response","206","1236653","0.0-160.0-0.0","CAN_107","107","","","","","","595","<button class=""jspsych-btn""><img src=""stimuli/darkgreenblue.png"" style=""width: 200px;height: 200px;""></button>","0","darkgreenblue","turquoise","[""darkgreenblue"",""turquoise"",""low nameability""]","left-right","[""darkgreenblue"",""turquoise"",""low nameability""]","5","low nameability","43","left","response","1"
"html-audio-button-response","207","1236855","0.0-160.0-1.0","CAN_107","107","","","","","","null","stimuli/bleep.m4a","null","darkgreenblue","turquoise","[""darkgreenblue"",""turquoise"",""low nameability""]","left-right","[""darkgreenblue"",""turquoise"",""low nameability""]","5","low nameability","43","left","audio_feedback","1"
"html-button-response","208","1237377","0.0-161.0","CAN_107","107","","","","","","null","<button class=""jspsych-btn""><img src=""stimuli/white_square.png"" style=""width: 200px;height: 200px;""></button>","null","darkgreenblue","turquoise","[""darkgreenblue"",""turquoise"",""low nameability""]","left-right","[""darkgreenblue"",""turquoise"",""low nameability""]","5","low nameability","43","left","iti",""
"html-button-response","209","1238000","0.0-162.0","CAN_107","107","","","","","","605","","0","orange","brown","[""orange"",""brown"",""high nameability""]","left-right","[""orange"",""brown"",""high nameability""]","5","high nameability","44","left","trigger",""
"html-button-response","210","1238622","0.0-163.0-0.0","CAN_107","107","","","","","","614","<button class=""jspsych-btn""><img src=""stimuli/orange.png"" style=""width: 200px;height: 200px;""></button>","0","orange","brown","[""orange"",""brown"",""high nameability""]","left-right","[""orange"",""brown"",""high nameability""]","5","high nameability","44","left","response","1"
"html-audio-button-response","211","1238822","0.0-163.0-1.0","CAN_107","107","","","","","","null","stimuli/bleep.m4a","null","orange","brown","[""orange"",""brown"",""high nameability""]","left-right","[""orange"",""brown"",""high nameability""]","5","high nameability","44","left","audio_feedback","1"
"html-button-response","212","1239347","0.0-164.0","CAN_107","107","","","","","","null","<button class=""jspsych-btn""><img src=""stimuli/white_square.png"" style=""width: 200px;height: 200px;""></button>","null","orange","brown","[""orange"",""brown"",""high nameability""]","left-right","[""orange"",""brown"",""high nameability""]","5","high nameability","44","left","iti",""
"html-button-response","213","1239917","0.0-165.0","CAN_107","107","","","","","","543","","0","yellow","blue","[""yellow"",""blue"",""high nameability""]","left-right","[""yellow"",""blue"",""high nameability""]","5","high nameability","45","left","trigger",""
"html-button-response","214","1240521","0.0-166.0-0.0","CAN_107","107","","","","","","595","<button class=""jspsych-btn""><img src=""stimuli/yellow.png"" style=""width: 200px;height: 200px;""></button>","0","yellow","blue","[""yellow"",""blue"",""high nameability""]","left-right","[""yellow"",""blue"",""high nameability""]","5","high nameability","45","left","response","1"
"html-audio-button-response","215","1240727","0.0-166.0-1.0","CAN_107","107","","","","","","null","stimuli/bleep.m4a","null","yellow","blue","[""yellow"",""blue"",""high nameability""]","left-right","[""yellow"",""blue"",""high nameability""]","5","high nameability","45","left","audio_feedback","1"
"html-button-response","216","1241243","0.0-167.0","CAN_107","107","","","","","","null","<button class=""jspsych-btn""><img src=""stimuli/white_square.png"" style=""width: 200px;height: 200px;""></button>","null","yellow","blue","[""yellow"",""blue"",""high nameability""]","left-right","[""yellow"",""blue"",""high nameability""]","5","high nameability","45","left","iti",""
"html-button-response","217","1241878","0.0-168.0","CAN_107","107","","","","","","621","","0","neonyellow","turquoise","[""neonyellow"",""turquoise"",""low nameability""]","left-right","[""neonyellow"",""turquoise"",""low nameability""]","5","low nameability","46","left","trigger",""
"html-button-response","218","1242595","0.0-169.0-0.0","CAN_107","107","","","","","","706","<button class=""jspsych-btn""><img src=""stimuli/neonyellow.png"" style=""width: 200px;height: 200px;""></button>","0","neonyellow","turquoise","[""neonyellow"",""turquoise"",""low nameability""]","left-right","[""neonyellow"",""turquoise"",""low nameability""]","5","low nameability","46","left","response","1"
"html-audio-button-response","219","1242795","0.0-169.0-1.0","CAN_107","107","","","","","","null","stimuli/bleep.m4a","null","neonyellow","turquoise","[""neonyellow"",""turquoise"",""low nameability""]","left-right","[""neonyellow"",""turquoise"",""low nameability""]","5","low nameability","46","left","audio_feedback","1"
"html-button-response","220","1243315","0.0-170.0","CAN_107","107","","","","","","null","<button class=""jspsych-btn""><img src=""stimuli/white_square.png"" style=""width: 200px;height: 200px;""></button>","null","neonyellow","turquoise","[""neonyellow"",""turquoise"",""low nameability""]","left-right","[""neonyellow"",""turquoise"",""low nameability""]","5","low nameability","46","left","iti",""
"html-button-response","221","1243974","0.0-171.0","CAN_107","107","","","","","","638","","0","red","yellow","[""red"",""yellow"",""high nameability""]","right-left","[""yellow"",""red""]","5","high nameability","47","right","trigger",""
"html-button-response","222","1244708","0.0-172.0-0.0","CAN_107","107","","","","","","724","<button class=""jspsych-btn""><img src=""stimuli/red.png"" style=""width: 200px;height: 200px;""></button>","1","red","yellow","[""red"",""yellow"",""high nameability""]","right-left","[""yellow"",""red""]","5","high nameability","47","right","response","1"
"html-audio-button-response","223","1244912","0.0-172.0-1.0","CAN_107","107","","","","","","null","stimuli/bleep.m4a","null","red","yellow","[""red"",""yellow"",""high nameability""]","right-left","[""yellow"",""red""]","5","high nameability","47","right","audio_feedback","1"
"html-button-response","224","1245435","0.0-173.0","CAN_107","107","","","","","","null","<button class=""jspsych-btn""><img src=""stimuli/white_square.png"" style=""width: 200px;height: 200px;""></button>","null","red","yellow","[""red"",""yellow"",""high nameability""]","right-left","[""yellow"",""red""]","5","high nameability","47","right","iti",""
"html-button-response","225","1246036","0.0-174.0","CAN_107","107","","","","","","585","","0","brown","yellow","[""brown"",""yellow"",""high nameability""]","right-left","[""yellow"",""brown""]","5","high nameability","48","right","trigger",""
"html-button-response","226","1247037","0.0-175.0-0.0","CAN_107","107","","","","","","993","<button class=""jspsych-btn""><img src=""stimuli/brown.png"" style=""width: 200px;height: 200px;""></button>","1","brown","yellow","[""brown"",""yellow"",""high nameability""]","right-left","[""yellow"",""brown""]","5","high nameability","48","right","response","1"
"html-audio-button-response","227","1247238","0.0-175.0-1.0","CAN_107","107","","","","","","null","stimuli/bleep.m4a","null","brown","yellow","[""brown"",""yellow"",""high nameability""]","right-left","[""yellow"",""brown""]","5","high nameability","48","right","audio_feedback","1"
"html-button-response","228","1247760","0.0-176.0","CAN_107","107","","","","","","null","<button class=""jspsych-btn""><img src=""stimuli/white_square.png"" style=""width: 200px;height: 200px;""></button>","null","brown","yellow","[""brown"",""yellow"",""high nameability""]","right-left","[""yellow"",""brown""]","5","high nameability","48","right","iti",""
"html-button-response","229","1248264","0.0-177.0","CAN_107","107","","","","","","488","","0","lightred","darkgreenblue","[""lightred"",""darkgreenblue"",""low nameability""]","right-left","[""darkgreenblue"",""lightred""]","5","low nameability","49","right","trigger",""
"html-button-response","230","1248866","0.0-178.0-0.0","CAN_107","107","","","","","","594","<button class=""jspsych-btn""><img src=""stimuli/lightred.png"" style=""width: 200px;height: 200px;""></button>","1","lightred","darkgreenblue","[""lightred"",""darkgreenblue"",""low nameability""]","right-left","[""darkgreenblue"",""lightred""]","5","low nameability","49","right","response","1"
"html-audio-button-response","231","1249071","0.0-178.0-1.0","CAN_107","107","","","","","","null","stimuli/bleep.m4a","null","lightred","darkgreenblue","[""lightred"",""darkgreenblue"",""low nameability""]","right-left","[""darkgreenblue"",""lightred""]","5","low nameability","49","right","audio_feedback","1"
"html-button-response","232","1249587","0.0-179.0","CAN_107","107","","","","","","null","<button class=""jspsych-btn""><img src=""stimuli/white_square.png"" style=""width: 200px;height: 200px;""></button>","null","lightred","darkgreenblue","[""lightred"",""darkgreenblue"",""low nameability""]","right-left","[""darkgreenblue"",""lightred""]","5","low nameability","49","right","iti",""
"html-button-response","233","1250144","0.0-180.0","CAN_107","107","","","","","","541","","0","purple","brown","[""purple"",""brown"",""high nameability""]","left-right","[""purple"",""brown"",""high nameability""]","5","high nameability","50","left","trigger",""
"html-button-response","234","1250689","0.0-181.0-0.0","CAN_107","107","","","","","","539","<button class=""jspsych-btn""><img src=""stimuli/purple.png"" style=""width: 200px;height: 200px;""></button>","0","purple","brown","[""purple"",""brown"",""high nameability""]","left-right","[""purple"",""brown"",""high nameability""]","5","high nameability","50","left","response","1"
"html-audio-button-response","235","1250891","0.0-181.0-1.0","CAN_107","107","","","","","","null","stimuli/bleep.m4a","null","purple","brown","[""purple"",""brown"",""high nameability""]","left-right","[""purple"",""brown"",""high nameability""]","5","high nameability","50","left","audio_feedback","1"
"html-button-response","236","1251410","0.0-182.0","CAN_107","107","","","","","","null","<button class=""jspsych-btn""><img src=""stimuli/white_square.png"" style=""width: 200px;height: 200px;""></button>","null","purple","brown","[""purple"",""brown"",""high nameability""]","left-right","[""purple"",""brown"",""high nameability""]","5","high nameability","50","left","iti",""
"pavlovia","237","1251484","0.0-183.0","CAN_107","107","","","","","","","","","","","","","","","","","","",""
"pavlovia","238","1251500","0.0-184.0","CAN_107","107","","","","","","","","","","","","","","","","","","",""
"html-audio-button-response","239","1253540","0.0-185.0","CAN_107","107","","","","","","2128","stimuli/tada.m4a","0","","","","","","","","","","",""
"html-button-response","240","1254919","0.0-186.0","CAN_107","107","","","","","","1372","","0","","","","","","","","","","",""
"html-button-response","241","1255578","0.0-187.0","CAN_107","107","","","","","","653","","0","mustard","neonyellow","[""mustard"",""neonyellow"",""low nameability""]","left-right","[""mustard"",""neonyellow"",""low nameability""]","6","low nameability","51","left","trigger",""
"html-button-response","242","1256339","0.0-188.0-0.0","CAN_107","107","","","","","","755","<button class=""jspsych-btn""><img src=""stimuli/mustard.png"" style=""width: 200px;height: 200px;""></button>","0","mustard","neonyellow","[""mustard"",""neonyellow"",""low nameability""]","left-right","[""mustard"",""neonyellow"",""low nameability""]","6","low nameability","51","left","response","1"
"html-audio-button-response","243","1256543","0.0-188.0-1.0","CAN_107","107","","","","","","null","stimuli/bleep.m4a","null","mustard","neonyellow","[""mustard"",""neonyellow"",""low nameability""]","left-right","[""mustard"",""neonyellow"",""low nameability""]","6","low nameability","51","left","audio_feedback","1"
"html-button-response","244","1257064","0.0-189.0","CAN_107","107","","","","","","null","<button class=""jspsych-btn""><img src=""stimuli/white_square.png"" style=""width: 200px;height: 200px;""></button>","null","mustard","neonyellow","[""mustard"",""neonyellow"",""low nameability""]","left-right","[""mustard"",""neonyellow"",""low nameability""]","6","low nameability","51","left","iti",""
"html-button-response","245","1257659","0.0-190.0","CAN_107","107","","","","","","575","","0","purple","orange","[""purple"",""orange"",""high nameability""]","right-left","[""orange"",""purple""]","6","high nameability","52","right","trigger",""
"html-button-response","246","1258224","0.0-191.0-0.0","CAN_107","107","","","","","","559","<button class=""jspsych-btn""><img src=""stimuli/purple.png"" style=""width: 200px;height: 200px;""></button>","1","purple","orange","[""purple"",""orange"",""high nameability""]","right-left","[""orange"",""purple""]","6","high nameability","52","right","response","1"
"html-audio-button-response","247","1258429","0.0-191.0-1.0","CAN_107","107","","","","","","null","stimuli/bleep.m4a","null","purple","orange","[""purple"",""orange"",""high nameability""]","right-left","[""orange"",""purple""]","6","high nameability","52","right","audio_feedback","1"
"html-button-response","248","1258945","0.0-192.0","CAN_107","107","","","","","","null","<button class=""jspsych-btn""><img src=""stimuli/white_square.png"" style=""width: 200px;height: 200px;""></button>","null","purple","orange","[""purple"",""orange"",""high nameability""]","right-left","[""orange"",""purple""]","6","high nameability","52","right","iti",""
"html-button-response","249","1259469","0.0-193.0","CAN_107","107","","","","","","509","","0","pink","mustard","[""pink"",""mustard"",""low nameability""]","left-right","[""pink"",""mustard"",""low nameability""]","6","low nameability","53","left","trigger",""
"html-button-response","250","1260089","0.0-194.0-0.0","CAN_107","107","","","","","","612","<button class=""jspsych-btn""><img src=""stimuli/pink.png"" style=""width: 200px;height: 200px;""></button>","0","pink","mustard","[""pink"",""mustard"",""low nameability""]","left-right","[""pink"",""mustard"",""low nameability""]","6","low nameability","53","left","response","1"
"html-audio-button-response","251","1260295","0.0-194.0-1.0","CAN_107","107","","","","","","null","stimuli/bleep.m4a","null","pink","mustard","[""pink"",""mustard"",""low nameability""]","left-right","[""pink"",""mustard"",""low nameability""]","6","low nameability","53","left","audio_feedback","1"
"html-button-response","252","1260812","0.0-195.0","CAN_107","107","","","","","","null","<button class=""jspsych-btn""><img src=""stimuli/white_square.png"" style=""width: 200px;height: 200px;""></button>","null","pink","mustard","[""pink"",""mustard"",""low nameability""]","left-right","[""pink"",""mustard"",""low nameability""]","6","low nameability","53","left","iti",""
"html-button-response","253","1261332","0.0-196.0","CAN_107","107","","","","","","509","","0","lightred","turquoise","[""lightred"",""turquoise"",""low nameability""]","right-left","[""turquoise"",""lightred""]","6","low nameability","54","right","trigger",""
"html-button-response","254","1261903","0.0-197.0-0.0","CAN_107","107","","","","","","565","<button class=""jspsych-btn""><img src=""stimuli/lightred.png"" style=""width: 200px;height: 200px;""></button>","1","lightred","turquoise","[""lightred"",""turquoise"",""low nameability""]","right-left","[""turquoise"",""lightred""]","6","low nameability","54","right","response","1"
"html-audio-button-response","255","1262108","0.0-197.0-1.0","CAN_107","107","","","","","","null","stimuli/bleep.m4a","null","lightred","turquoise","[""lightred"",""turquoise"",""low nameability""]","right-left","[""turquoise"",""lightred""]","6","low nameability","54","right","audio_feedback","1"
"html-button-response","256","1262629","0.0-198.0","CAN_107","107","","","","","","null","<button class=""jspsych-btn""><img src=""stimuli/white_square.png"" style=""width: 200px;height: 200px;""></button>","null","lightred","turquoise","[""lightred"",""turquoise"",""low nameability""]","right-left","[""turquoise"",""lightred""]","6","low nameability","54","right","iti",""
"html-button-response","257","1263214","0.0-199.0","CAN_107","107","","","","","","560","","0","blue","orange","[""blue"",""orange"",""high nameability""]","left-right","[""blue"",""orange"",""high nameability""]","6","high nameability","55","left","trigger",""
"html-button-response","258","1263841","0.0-200.0-0.0","CAN_107","107","","","","","","620","<button class=""jspsych-btn""><img src=""stimuli/blue.png"" style=""width: 200px;height: 200px;""></button>","0","blue","orange","[""blue"",""orange"",""high nameability""]","left-right","[""blue"",""orange"",""high nameability""]","6","high nameability","55","left","response","1"
"html-audio-button-response","259","1264047","0.0-200.0-1.0","CAN_107","107","","","","","","null","stimuli/bleep.m4a","null","blue","orange","[""blue"",""orange"",""high nameability""]","left-right","[""blue"",""orange"",""high nameability""]","6","high nameability","55","left","audio_feedback","1"
"html-button-response","260","1264565","0.0-201.0","CAN_107","107","","","","","","null","<button class=""jspsych-btn""><img src=""stimuli/white_square.png"" style=""width: 200px;height: 200px;""></button>","null","blue","orange","[""blue"",""orange"",""high nameability""]","left-right","[""blue"",""orange"",""high nameability""]","6","high nameability","55","left","iti",""
"html-button-response","261","1265176","0.0-202.0","CAN_107","107","","","","","","591","","0","blue","yellow","[""blue"",""yellow"",""high nameability""]","left-right","[""blue"",""yellow"",""high nameability""]","6","high nameability","56","left","trigger",""
"html-button-response","262","1265756","0.0-203.0-0.0","CAN_107","107","","","","","","574","<button class=""jspsych-btn""><img src=""stimuli/blue.png"" style=""width: 200px;height: 200px;""></button>","0","blue","yellow","[""blue"",""yellow"",""high nameability""]","left-right","[""blue"",""yellow"",""high nameability""]","6","high nameability","56","left","response","1"
"html-audio-button-response","263","1265959","0.0-203.0-1.0","CAN_107","107","","","","","","null","stimuli/bleep.m4a","null","blue","yellow","[""blue"",""yellow"",""high nameability""]","left-right","[""blue"",""yellow"",""high nameability""]","6","high nameability","56","left","audio_feedback","1"
"html-button-response","264","1266477","0.0-204.0","CAN_107","107","","","","","","null","<button class=""jspsych-btn""><img src=""stimuli/white_square.png"" style=""width: 200px;height: 200px;""></button>","null","blue","yellow","[""blue"",""yellow"",""high nameability""]","left-right","[""blue"",""yellow"",""high nameability""]","6","high nameability","56","left","iti",""
"html-button-response","265","1267100","0.0-205.0","CAN_107","107","","","","","","605","","0","blue","red","[""blue"",""red"",""high nameability""]","right-left","[""red"",""blue""]","6","high nameability","57","right","trigger",""
"html-button-response","266","1267693","0.0-206.0-0.0","CAN_107","107","","","","","","583","<button class=""jspsych-btn""><img src=""stimuli/blue.png"" style=""width: 200px;height: 200px;""></button>","1","blue","red","[""blue"",""red"",""high nameability""]","right-left","[""red"",""blue""]","6","high nameability","57","right","response","1"
"html-audio-button-response","267","1267894","0.0-206.0-1.0","CAN_107","107","","","","","","null","stimuli/bleep.m4a","null","blue","red","[""blue"",""red"",""high nameability""]","right-left","[""red"",""blue""]","6","high nameability","57","right","audio_feedback","1"
"html-button-response","268","1268413","0.0-207.0","CAN_107","107","","","","","","null","<button class=""jspsych-btn""><img src=""stimuli/white_square.png"" style=""width: 200px;height: 200px;""></button>","null","blue","red","[""blue"",""red"",""high nameability""]","right-left","[""red"",""blue""]","6","high nameability","57","right","iti",""
"html-button-response","269","1269068","0.0-208.0","CAN_107","107","","","","","","644","","0","purple","red","[""purple"",""red"",""high nameability""]","left-right","[""purple"",""red"",""high nameability""]","6","high nameability","58","left","trigger",""
"html-button-response","270","1269721","0.0-209.0-0.0","CAN_107","107","","","","","","644","<button class=""jspsych-btn""><img src=""stimuli/purple.png"" style=""width: 200px;height: 200px;""></button>","0","purple","red","[""purple"",""red"",""high nameability""]","left-right","[""purple"",""red"",""high nameability""]","6","high nameability","58","left","response","1"
"html-audio-button-response","271","1269924","0.0-209.0-1.0","CAN_107","107","","","","","","null","stimuli/bleep.m4a","null","purple","red","[""purple"",""red"",""high nameability""]","left-right","[""purple"",""red"",""high nameability""]","6","high nameability","58","left","audio_feedback","1"
"html-button-response","272","1270446","0.0-210.0","CAN_107","107","","","","","","null","<button class=""jspsych-btn""><img src=""stimuli/white_square.png"" style=""width: 200px;height: 200px;""></button>","null","purple","red","[""purple"",""red"",""high nameability""]","left-right","[""purple"",""red"",""high nameability""]","6","high nameability","58","left","iti",""
"html-button-response","273","1271078","0.0-211.0","CAN_107","107","","","","","","612","","0","brown","red","[""brown"",""red"",""high nameability""]","left-right","[""brown"",""red"",""high nameability""]","6","high nameability","59","left","trigger",""
"html-button-response","274","1271816","0.0-212.0-0.0","CAN_107","107","","","","","","730","<button class=""jspsych-btn""><img src=""stimuli/brown.png"" style=""width: 200px;height: 200px;""></button>","0","brown","red","[""brown"",""red"",""high nameability""]","left-right","[""brown"",""red"",""high nameability""]","6","high nameability","59","left","response","1"
"html-audio-button-response","275","1272019","0.0-212.0-1.0","CAN_107","107","","","","","","null","stimuli/bleep.m4a","null","brown","red","[""brown"",""red"",""high nameability""]","left-right","[""brown"",""red"",""high nameability""]","6","high nameability","59","left","audio_feedback","1"
"html-button-response","276","1272538","0.0-213.0","CAN_107","107","","","","","","null","<button class=""jspsych-btn""><img src=""stimuli/white_square.png"" style=""width: 200px;height: 200px;""></button>","null","brown","red","[""brown"",""red"",""high nameability""]","left-right","[""brown"",""red"",""high nameability""]","6","high nameability","59","left","iti",""
"html-button-response","277","1273230","0.0-214.0","CAN_107","107","","","","","","674","","0","turquoise","neonyellow","[""turquoise"",""neonyellow"",""low nameability""]","right-left","[""neonyellow"",""turquoise""]","6","low nameability","60","right","trigger",""
"html-button-response","278","1273863","0.0-215.0-0.0","CAN_107","107","","","","","","627","<button class=""jspsych-btn""><img src=""stimuli/turquoise.png"" style=""width: 200px;height: 200px;""></button>","1","turquoise","neonyellow","[""turquoise"",""neonyellow"",""low nameability""]","right-left","[""neonyellow"",""turquoise""]","6","low nameability","60","right","response","1"
"html-audio-button-response","279","1274066","0.0-215.0-1.0","CAN_107","107","","","","","","null","stimuli/bleep.m4a","null","turquoise","neonyellow","[""turquoise"",""neonyellow"",""low nameability""]","right-left","[""neonyellow"",""turquoise""]","6","low nameability","60","right","audio_feedback","1"
"html-button-response","280","1274587","0.0-216.0","CAN_107","107","","","","","","null","<button class=""jspsych-btn""><img src=""stimuli/white_square.png"" style=""width: 200px;height: 200px;""></button>","null","turquoise","neonyellow","[""turquoise"",""neonyellow"",""low nameability""]","right-left","[""neonyellow"",""turquoise""]","6","low nameability","60","right","iti",""
