"trial_type","trial_index","time_elapsed","internal_node_id","subject_id","seed","success","timeout","failed_images","failed_audio","failed_video","rt","stimulus","response","target","foil","choices","combination_order","choices_in_order","round","condition","trial_counter","target_location","trial_kind","correct"
"pavlovia","0","23","0.0-0.0","CAN_139","139","","","","","","","","","","","","","","","","","","",""
"preload","1","749","0.0-1.0","CAN_139","139","true","false","[]","[]","[]","","","","","","","","","","","","","",""
"fullscreen","2","98205","0.0-2.0","CAN_139","139","true","","","","","","","","","","","","","","","","","",""
"html-button-response","3","127048","0.0-3.0","CAN_139","139","","","","","","28820","","0","","","","","","","","","","",""
"html-button-response","4","129073","0.0-4.0","CAN_139","139","","","","","","2013","","0","star","square","[""square"",""star""]","left-right","[""square"",""star""]","1","practice","1","right","trigger",""
"html-button-response","5","132458","0.0-5.0-0.0","CAN_139","139","","","","","","3373","<button class=""jspsych-btn""><img src=""stimuli/star.png"" style=""width: 200px;height: 200px;""></button>","1","star","square","[""square"",""star""]","left-right","[""square"",""star""]","1","practice","1","right","response","1"
"html-audio-button-response","6","132670","0.0-5.0-1.0","CAN_139","139","","","","","","null","stimuli/bleep.m4a","null","star","square","[""square"",""star""]","left-right","[""square"",""star""]","1","practice","1","right","audio_feedback","1"
"html-button-response","7","133202","0.0-6.0","CAN_139","139","","","","","","null","<button class=""jspsych-btn""><img src=""stimuli/white_square.png"" style=""width: 200px;height: 200px;""></button>","null","star","square","[""square"",""star""]","left-right","[""square"",""star""]","1","practice","1","right","iti",""
"html-button-response","8","135247","0.0-7.0","CAN_139","139","","","","","","2025","","0","triangle","pentagram","[""triangle"",""pentagram""]","left-right","[""triangle"",""pentagram""]","1","practice","1","left","trigger",""
"html-button-response","9","136342","0.0-8.0-0.0","CAN_139","139","","","","","","1087","<button class=""jspsych-btn""><img src=""stimuli/triangle.png"" style=""width: 200px;height: 200px;""></button>","0","triangle","pentagram","[""triangle"",""pentagram""]","left-right","[""triangle"",""pentagram""]","1","practice","1","left","response","1"
"html-audio-button-response","10","136552","0.0-8.0-1.0","CAN_139","139","","","","","","null","stimuli/bleep.m4a","null","triangle","pentagram","[""triangle"",""pentagram""]","left-right","[""triangle"",""pentagram""]","1","practice","1","left","audio_feedback","1"
"html-button-response","11","137073","0.0-9.0","CAN_139","139","","","","","","null","<button class=""jspsych-btn""><img src=""stimuli/white_square.png"" style=""width: 200px;height: 200px;""></button>","null","triangle","pentagram","[""triangle"",""pentagram""]","left-right","[""triangle"",""pentagram""]","1","practice","1","left","iti",""
"html-button-response","12","137858","0.0-10.0","CAN_139","139","","","","","","763","","0","diamond","rectangle","[""rectangle"",""diamond""]","left-right","[""rectangle"",""diamond""]","1","practice","1","right","trigger",""
"html-button-response","13","138720","0.0-11.0-0.0","CAN_139","139","","","","","","854","<button class=""jspsych-btn""><img src=""stimuli/diamond.png"" style=""width: 200px;height: 200px;""></button>","1","diamond","rectangle","[""rectangle"",""diamond""]","left-right","[""rectangle"",""diamond""]","1","practice","1","right","response","1"
"html-audio-button-response","14","138930","0.0-11.0-1.0","CAN_139","139","","","","","","null","stimuli/bleep.m4a","null","diamond","rectangle","[""rectangle"",""diamond""]","left-right","[""rectangle"",""diamond""]","1","practice","1","right","audio_feedback","1"
"html-button-response","15","139453","0.0-12.0","CAN_139","139","","","","","","null","<button class=""jspsych-btn""><img src=""stimuli/white_square.png"" style=""width: 200px;height: 200px;""></button>","null","diamond","rectangle","[""rectangle"",""diamond""]","left-right","[""rectangle"",""diamond""]","1","practice","1","right","iti",""
"html-button-response","16","140112","0.0-13.0","CAN_139","139","","","","","","641","","0","pentagram","star","[""pentagram"",""star""]","left-right","[""pentagram"",""star""]","1","practice","1","left","trigger",""
"html-button-response","17","140987","0.0-14.0-0.0","CAN_139","139","","","","","","864","<button class=""jspsych-btn""><img src=""stimuli/pentagram.png"" style=""width: 200px;height: 200px;""></button>","0","pentagram","star","[""pentagram"",""star""]","left-right","[""pentagram"",""star""]","1","practice","1","left","response","1"
"html-audio-button-response","18","141193","0.0-14.0-1.0","CAN_139","139","","","","","","null","stimuli/bleep.m4a","null","pentagram","star","[""pentagram"",""star""]","left-right","[""pentagram"",""star""]","1","practice","1","left","audio_feedback","1"
"html-button-response","19","141719","0.0-15.0","CAN_139","139","","","","","","null","<button class=""jspsych-btn""><img src=""stimuli/white_square.png"" style=""width: 200px;height: 200px;""></button>","null","pentagram","star","[""pentagram"",""star""]","left-right","[""pentagram"",""star""]","1","practice","1","left","iti",""
"html-button-response","20","146373","0.0-16.0","CAN_139","139","","","","","","4644","","0","","","","","","","","","","",""
"html-button-response","21","147172","0.0-17.0","CAN_139","139","","","","","","793","","0","darkgreenblue","neonyellow","[""darkgreenblue"",""neonyellow"",""low nameability""]","right-left","[""neonyellow"",""darkgreenblue""]","1","low nameability","1","right","trigger",""
"html-button-response","22","147979","0.0-18.0-0.0","CAN_139","139","","","","","","797","<button class=""jspsych-btn""><img src=""stimuli/darkgreenblue.png"" style=""width: 200px;height: 200px;""></button>","1","darkgreenblue","neonyellow","[""darkgreenblue"",""neonyellow"",""low nameability""]","right-left","[""neonyellow"",""darkgreenblue""]","1","low nameability","1","right","response","1"
"html-audio-button-response","23","148185","0.0-18.0-1.0","CAN_139","139","","","","","","null","stimuli/bleep.m4a","null","darkgreenblue","neonyellow","[""darkgreenblue"",""neonyellow"",""low nameability""]","right-left","[""neonyellow"",""darkgreenblue""]","1","low nameability","1","right","audio_feedback","1"
"html-button-response","24","148704","0.0-19.0","CAN_139","139","","","","","","null","<button class=""jspsych-btn""><img src=""stimuli/white_square.png"" style=""width: 200px;height: 200px;""></button>","null","darkgreenblue","neonyellow","[""darkgreenblue"",""neonyellow"",""low nameability""]","right-left","[""neonyellow"",""darkgreenblue""]","1","low nameability","1","right","iti",""
"html-button-response","25","149402","0.0-20.0","CAN_139","139","","","","","","675","","0","purple","orange","[""purple"",""orange"",""high nameability""]","right-left","[""orange"",""purple""]","1","high nameability","2","right","trigger",""
"html-button-response","26","150103","0.0-21.0-0.0","CAN_139","139","","","","","","690","<button class=""jspsych-btn""><img src=""stimuli/purple.png"" style=""width: 200px;height: 200px;""></button>","1","purple","orange","[""purple"",""orange"",""high nameability""]","right-left","[""orange"",""purple""]","1","high nameability","2","right","response","1"
"html-audio-button-response","27","150309","0.0-21.0-1.0","CAN_139","139","","","","","","null","stimuli/bleep.m4a","null","purple","orange","[""purple"",""orange"",""high nameability""]","right-left","[""orange"",""purple""]","1","high nameability","2","right","audio_feedback","1"
"html-button-response","28","150832","0.0-22.0","CAN_139","139","","","","","","null","<button class=""jspsych-btn""><img src=""stimuli/white_square.png"" style=""width: 200px;height: 200px;""></button>","null","purple","orange","[""purple"",""orange"",""high nameability""]","right-left","[""orange"",""purple""]","1","high nameability","2","right","iti",""
"html-button-response","29","151380","0.0-23.0","CAN_139","139","","","","","","531","","0","purple","blue","[""purple"",""blue"",""high nameability""]","right-left","[""blue"",""purple""]","1","high nameability","3","right","trigger",""
"html-button-response","30","152047","0.0-24.0-0.0","CAN_139","139","","","","","","660","<button class=""jspsych-btn""><img src=""stimuli/purple.png"" style=""width: 200px;height: 200px;""></button>","1","purple","blue","[""purple"",""blue"",""high nameability""]","right-left","[""blue"",""purple""]","1","high nameability","3","right","response","1"
"html-audio-button-response","31","152253","0.0-24.0-1.0","CAN_139","139","","","","","","null","stimuli/bleep.m4a","null","purple","blue","[""purple"",""blue"",""high nameability""]","right-left","[""blue"",""purple""]","1","high nameability","3","right","audio_feedback","1"
"html-button-response","32","152778","0.0-25.0","CAN_139","139","","","","","","null","<button class=""jspsych-btn""><img src=""stimuli/white_square.png"" style=""width: 200px;height: 200px;""></button>","null","purple","blue","[""purple"",""blue"",""high nameability""]","right-left","[""blue"",""purple""]","1","high nameability","3","right","iti",""
"html-button-response","33","153324","0.0-26.0","CAN_139","139","","","","","","528","","0","blue","brown","[""blue"",""brown"",""high nameability""]","left-right","[""blue"",""brown"",""high nameability""]","1","high nameability","4","left","trigger",""
"html-button-response","34","153979","0.0-27.0-0.0","CAN_139","139","","","","","","647","<button class=""jspsych-btn""><img src=""stimuli/blue.png"" style=""width: 200px;height: 200px;""></button>","0","blue","brown","[""blue"",""brown"",""high nameability""]","left-right","[""blue"",""brown"",""high nameability""]","1","high nameability","4","left","response","1"
"html-audio-button-response","35","154184","0.0-27.0-1.0","CAN_139","139","","","","","","null","stimuli/bleep.m4a","null","blue","brown","[""blue"",""brown"",""high nameability""]","left-right","[""blue"",""brown"",""high nameability""]","1","high nameability","4","left","audio_feedback","1"
"html-button-response","36","154701","0.0-28.0","CAN_139","139","","","","","","null","<button class=""jspsych-btn""><img src=""stimuli/white_square.png"" style=""width: 200px;height: 200px;""></button>","null","blue","brown","[""blue"",""brown"",""high nameability""]","left-right","[""blue"",""brown"",""high nameability""]","1","high nameability","4","left","iti",""
"html-button-response","37","155312","0.0-29.0","CAN_139","139","","","","","","586","","0","red","orange","[""red"",""orange"",""high nameability""]","right-left","[""orange"",""red""]","1","high nameability","5","right","trigger",""
"html-button-response","38","155957","0.0-30.0-0.0","CAN_139","139","","","","","","637","<button class=""jspsych-btn""><img src=""stimuli/red.png"" style=""width: 200px;height: 200px;""></button>","1","red","orange","[""red"",""orange"",""high nameability""]","right-left","[""orange"",""red""]","1","high nameability","5","right","response","1"
"html-audio-button-response","39","156161","0.0-30.0-1.0","CAN_139","139","","","","","","null","stimuli/bleep.m4a","null","red","orange","[""red"",""orange"",""high nameability""]","right-left","[""orange"",""red""]","1","high nameability","5","right","audio_feedback","1"
"html-button-response","40","156683","0.0-31.0","CAN_139","139","","","","","","null","<button class=""jspsych-btn""><img src=""stimuli/white_square.png"" style=""width: 200px;height: 200px;""></button>","null","red","orange","[""red"",""orange"",""high nameability""]","right-left","[""orange"",""red""]","1","high nameability","5","right","iti",""
"html-button-response","41","157304","0.0-32.0","CAN_139","139","","","","","","603","","0","yellow","purple","[""yellow"",""purple"",""high nameability""]","right-left","[""purple"",""yellow""]","1","high nameability","6","right","trigger",""
"html-button-response","42","157921","0.0-33.0-0.0","CAN_139","139","","","","","","610","<button class=""jspsych-btn""><img src=""stimuli/yellow.png"" style=""width: 200px;height: 200px;""></button>","1","yellow","purple","[""yellow"",""purple"",""high nameability""]","right-left","[""purple"",""yellow""]","1","high nameability","6","right","response","1"
"html-audio-button-response","43","158124","0.0-33.0-1.0","CAN_139","139","","","","","","null","stimuli/bleep.m4a","null","yellow","purple","[""yellow"",""purple"",""high nameability""]","right-left","[""purple"",""yellow""]","1","high nameability","6","right","audio_feedback","1"
"html-button-response","44","158647","0.0-34.0","CAN_139","139","","","","","","null","<button class=""jspsych-btn""><img src=""stimuli/white_square.png"" style=""width: 200px;height: 200px;""></button>","null","yellow","purple","[""yellow"",""purple"",""high nameability""]","right-left","[""purple"",""yellow""]","1","high nameability","6","right","iti",""
"html-button-response","45","159240","0.0-35.0","CAN_139","139","","","","","","577","","0","pink","darkgreenblue","[""pink"",""darkgreenblue"",""low nameability""]","left-right","[""pink"",""darkgreenblue"",""low nameability""]","1","low nameability","7","left","trigger",""
"html-button-response","46","159990","0.0-36.0-0.0","CAN_139","139","","","","","","742","<button class=""jspsych-btn""><img src=""stimuli/pink.png"" style=""width: 200px;height: 200px;""></button>","0","pink","darkgreenblue","[""pink"",""darkgreenblue"",""low nameability""]","left-right","[""pink"",""darkgreenblue"",""low nameability""]","1","low nameability","7","left","response","1"
"html-audio-button-response","47","160205","0.0-36.0-1.0","CAN_139","139","","","","","","null","stimuli/bleep.m4a","null","pink","darkgreenblue","[""pink"",""darkgreenblue"",""low nameability""]","left-right","[""pink"",""darkgreenblue"",""low nameability""]","1","low nameability","7","left","audio_feedback","1"
"html-button-response","48","160731","0.0-37.0","CAN_139","139","","","","","","null","<button class=""jspsych-btn""><img src=""stimuli/white_square.png"" style=""width: 200px;height: 200px;""></button>","null","pink","darkgreenblue","[""pink"",""darkgreenblue"",""low nameability""]","left-right","[""pink"",""darkgreenblue"",""low nameability""]","1","low nameability","7","left","iti",""
"html-button-response","49","161334","0.0-38.0","CAN_139","139","","","","","","583","","0","turquoise","darkgreenblue","[""turquoise"",""darkgreenblue"",""low nameability""]","left-right","[""turquoise"",""darkgreenblue"",""low nameability""]","1","low nameability","8","left","trigger",""
"html-button-response","50","162102","0.0-39.0-0.0","CAN_139","139","","","","","","763","<button class=""jspsych-btn""><img src=""stimuli/turquoise.png"" style=""width: 200px;height: 200px;""></button>","0","turquoise","darkgreenblue","[""turquoise"",""darkgreenblue"",""low nameability""]","left-right","[""turquoise"",""darkgreenblue"",""low nameability""]","1","low nameability","8","left","response","1"
"html-audio-button-response","51","162309","0.0-39.0-1.0","CAN_139","139","","","","","","null","stimuli/bleep.m4a","null","turquoise","darkgreenblue","[""turquoise"",""darkgreenblue"",""low nameability""]","left-right","[""turquoise"",""darkgreenblue"",""low nameability""]","1","low nameability","8","left","audio_feedback","1"
"html-button-response","52","162826","0.0-40.0","CAN_139","139","","","","","","null","<button class=""jspsych-btn""><img src=""stimuli/white_square.png"" style=""width: 200px;height: 200px;""></button>","null","turquoise","darkgreenblue","[""turquoise"",""darkgreenblue"",""low nameability""]","left-right","[""turquoise"",""darkgreenblue"",""low nameability""]","1","low nameability","8","left","iti",""
"html-button-response","53","163353","0.0-41.0","CAN_139","139","","","","","","515","","0","purple","red","[""purple"",""red"",""high nameability""]","left-right","[""purple"",""red"",""high nameability""]","1","high nameability","9","left","trigger",""
"html-button-response","54","164035","0.0-42.0-0.0","CAN_139","139","","","","","","676","<button class=""jspsych-btn""><img src=""stimuli/purple.png"" style=""width: 200px;height: 200px;""></button>","0","purple","red","[""purple"",""red"",""high nameability""]","left-right","[""purple"",""red"",""high nameability""]","1","high nameability","9","left","response","1"
"html-audio-button-response","55","164241","0.0-42.0-1.0","CAN_139","139","","","","","","null","stimuli/bleep.m4a","null","purple","red","[""purple"",""red"",""high nameability""]","left-right","[""purple"",""red"",""high nameability""]","1","high nameability","9","left","audio_feedback","1"
"html-button-response","56","164766","0.0-43.0","CAN_139","139","","","","","","null","<button class=""jspsych-btn""><img src=""stimuli/white_square.png"" style=""width: 200px;height: 200px;""></button>","null","purple","red","[""purple"",""red"",""high nameability""]","left-right","[""purple"",""red"",""high nameability""]","1","high nameability","9","left","iti",""
"html-button-response","57","165326","0.0-44.0","CAN_139","139","","","","","","540","","0","lightred","mustard","[""lightred"",""mustard"",""low nameability""]","right-left","[""mustard"",""lightred""]","1","low nameability","10","right","trigger",""
"html-button-response","58","166045","0.0-45.0-0.0","CAN_139","139","","","","","","711","<button class=""jspsych-btn""><img src=""stimuli/lightred.png"" style=""width: 200px;height: 200px;""></button>","1","lightred","mustard","[""lightred"",""mustard"",""low nameability""]","right-left","[""mustard"",""lightred""]","1","low nameability","10","right","response","1"
"html-audio-button-response","59","166249","0.0-45.0-1.0","CAN_139","139","","","","","","null","stimuli/bleep.m4a","null","lightred","mustard","[""lightred"",""mustard"",""low nameability""]","right-left","[""mustard"",""lightred""]","1","low nameability","10","right","audio_feedback","1"
"html-button-response","60","166771","0.0-46.0","CAN_139","139","","","","","","null","<button class=""jspsych-btn""><img src=""stimuli/white_square.png"" style=""width: 200px;height: 200px;""></button>","null","lightred","mustard","[""lightred"",""mustard"",""low nameability""]","right-left","[""mustard"",""lightred""]","1","low nameability","10","right","iti",""
"pavlovia","61","166846","0.0-47.0","CAN_139","139","","","","","","","","","","","","","","","","","","",""
"pavlovia","62","166862","0.0-48.0","CAN_139","139","","","","","","","","","","","","","","","","","","",""
"html-audio-button-response","63","168796","0.0-49.0","CAN_139","139","","","","","","2024","stimuli/tada.m4a","0","","","","","","","","","","",""
"html-button-response","64","169552","0.0-50.0","CAN_139","139","","","","","","750","","0","","","","","","","","","","",""
"html-button-response","65","170422","0.0-51.0","CAN_139","139","","","","","","863","","0","red","purple","[""red"",""purple"",""high nameability""]","left-right","[""red"",""purple"",""high nameability""]","2","high nameability","11","left","trigger",""
"html-button-response","66","171192","0.0-52.0-0.0","CAN_139","139","","","","","","763","<button class=""jspsych-btn""><img src=""stimuli/red.png"" style=""width: 200px;height: 200px;""></button>","0","red","purple","[""red"",""purple"",""high nameability""]","left-right","[""red"",""purple"",""high nameability""]","2","high nameability","11","left","response","1"
"html-audio-button-response","67","171397","0.0-52.0-1.0","CAN_139","139","","","","","","null","stimuli/bleep.m4a","null","red","purple","[""red"",""purple"",""high nameability""]","left-right","[""red"",""purple"",""high nameability""]","2","high nameability","11","left","audio_feedback","1"
"html-button-response","68","171915","0.0-53.0","CAN_139","139","","","","","","null","<button class=""jspsych-btn""><img src=""stimuli/white_square.png"" style=""width: 200px;height: 200px;""></button>","null","red","purple","[""red"",""purple"",""high nameability""]","left-right","[""red"",""purple"",""high nameability""]","2","high nameability","11","left","iti",""
"html-button-response","69","172445","0.0-54.0","CAN_139","139","","","","","","512","","0","lightred","darkgreenblue","[""lightred"",""darkgreenblue"",""low nameability""]","right-left","[""darkgreenblue"",""lightred""]","2","low nameability","12","right","trigger",""
"html-button-response","70","173067","0.0-55.0-0.0","CAN_139","139","","","","","","617","<button class=""jspsych-btn""><img src=""stimuli/lightred.png"" style=""width: 200px;height: 200px;""></button>","1","lightred","darkgreenblue","[""lightred"",""darkgreenblue"",""low nameability""]","right-left","[""darkgreenblue"",""lightred""]","2","low nameability","12","right","response","1"
"html-audio-button-response","71","173268","0.0-55.0-1.0","CAN_139","139","","","","","","null","stimuli/bleep.m4a","null","lightred","darkgreenblue","[""lightred"",""darkgreenblue"",""low nameability""]","right-left","[""darkgreenblue"",""lightred""]","2","low nameability","12","right","audio_feedback","1"
"html-button-response","72","173788","0.0-56.0","CAN_139","139","","","","","","null","<button class=""jspsych-btn""><img src=""stimuli/white_square.png"" style=""width: 200px;height: 200px;""></button>","null","lightred","darkgreenblue","[""lightred"",""darkgreenblue"",""low nameability""]","right-left","[""darkgreenblue"",""lightred""]","2","low nameability","12","right","iti",""
"html-button-response","73","174345","0.0-57.0","CAN_139","139","","","","","","537","","0","mustard","lightred","[""mustard"",""lightred"",""low nameability""]","left-right","[""mustard"",""lightred"",""low nameability""]","2","low nameability","13","left","trigger",""
"html-button-response","74","174986","0.0-58.0-0.0","CAN_139","139","","","","","","634","<button class=""jspsych-btn""><img src=""stimuli/mustard.png"" style=""width: 200px;height: 200px;""></button>","0","mustard","lightred","[""mustard"",""lightred"",""low nameability""]","left-right","[""mustard"",""lightred"",""low nameability""]","2","low nameability","13","left","response","1"
"html-audio-button-response","75","175189","0.0-58.0-1.0","CAN_139","139","","","","","","null","stimuli/bleep.m4a","null","mustard","lightred","[""mustard"",""lightred"",""low nameability""]","left-right","[""mustard"",""lightred"",""low nameability""]","2","low nameability","13","left","audio_feedback","1"
"html-button-response","76","175712","0.0-59.0","CAN_139","139","","","","","","null","<button class=""jspsych-btn""><img src=""stimuli/white_square.png"" style=""width: 200px;height: 200px;""></button>","null","mustard","lightred","[""mustard"",""lightred"",""low nameability""]","left-right","[""mustard"",""lightred"",""low nameability""]","2","low nameability","13","left","iti",""
"html-button-response","77","176371","0.0-60.0","CAN_139","139","","","","","","641","","0","neonyellow","lightred","[""neonyellow"",""lightred"",""low nameability""]","right-left","[""lightred"",""neonyellow""]","2","low nameability","14","right","trigger",""
"html-button-response","78","176971","0.0-61.0-0.0","CAN_139","139","","","","","","592","<button class=""jspsych-btn""><img src=""stimuli/neonyellow.png"" style=""width: 200px;height: 200px;""></button>","1","neonyellow","lightred","[""neonyellow"",""lightred"",""low nameability""]","right-left","[""lightred"",""neonyellow""]","2","low nameability","14","right","response","1"
"html-audio-button-response","79","177176","0.0-61.0-1.0","CAN_139","139","","","","","","null","stimuli/bleep.m4a","null","neonyellow","lightred","[""neonyellow"",""lightred"",""low nameability""]","right-left","[""lightred"",""neonyellow""]","2","low nameability","14","right","audio_feedback","1"
"html-button-response","80","177696","0.0-62.0","CAN_139","139","","","","","","null","<button class=""jspsych-btn""><img src=""stimuli/white_square.png"" style=""width: 200px;height: 200px;""></button>","null","neonyellow","lightred","[""neonyellow"",""lightred"",""low nameability""]","right-left","[""lightred"",""neonyellow""]","2","low nameability","14","right","iti",""
"html-button-response","81","178156","0.0-63.0","CAN_139","139","","","","","","445","","0","orange","yellow","[""orange"",""yellow"",""high nameability""]","right-left","[""yellow"",""orange""]","2","high nameability","15","right","trigger",""
"html-button-response","82","178722","0.0-64.0-0.0","CAN_139","139","","","","","","558","<button class=""jspsych-btn""><img src=""stimuli/orange.png"" style=""width: 200px;height: 200px;""></button>","1","orange","yellow","[""orange"",""yellow"",""high nameability""]","right-left","[""yellow"",""orange""]","2","high nameability","15","right","response","1"
"html-audio-button-response","83","178925","0.0-64.0-1.0","CAN_139","139","","","","","","null","stimuli/bleep.m4a","null","orange","yellow","[""orange"",""yellow"",""high nameability""]","right-left","[""yellow"",""orange""]","2","high nameability","15","right","audio_feedback","1"
"html-button-response","84","179440","0.0-65.0","CAN_139","139","","","","","","null","<button class=""jspsych-btn""><img src=""stimuli/white_square.png"" style=""width: 200px;height: 200px;""></button>","null","orange","yellow","[""orange"",""yellow"",""high nameability""]","right-left","[""yellow"",""orange""]","2","high nameability","15","right","iti",""
"html-button-response","85","180047","0.0-66.0","CAN_139","139","","","","","","586","","0","pink","neonyellow","[""pink"",""neonyellow"",""low nameability""]","left-right","[""pink"",""neonyellow"",""low nameability""]","2","low nameability","16","left","trigger",""
"html-button-response","86","180705","0.0-67.0-0.0","CAN_139","139","","","","","","653","<button class=""jspsych-btn""><img src=""stimuli/pink.png"" style=""width: 200px;height: 200px;""></button>","0","pink","neonyellow","[""pink"",""neonyellow"",""low nameability""]","left-right","[""pink"",""neonyellow"",""low nameability""]","2","low nameability","16","left","response","1"
"html-audio-button-response","87","180911","0.0-67.0-1.0","CAN_139","139","","","","","","null","stimuli/bleep.m4a","null","pink","neonyellow","[""pink"",""neonyellow"",""low nameability""]","left-right","[""pink"",""neonyellow"",""low nameability""]","2","low nameability","16","left","audio_feedback","1"
"html-button-response","88","181428","0.0-68.0","CAN_139","139","","","","","","null","<button class=""jspsych-btn""><img src=""stimuli/white_square.png"" style=""width: 200px;height: 200px;""></button>","null","pink","neonyellow","[""pink"",""neonyellow"",""low nameability""]","left-right","[""pink"",""neonyellow"",""low nameability""]","2","low nameability","16","left","iti",""
"html-button-response","89","181922","0.0-69.0","CAN_139","139","","","","","","477","","0","purple","yellow","[""purple"",""yellow"",""high nameability""]","right-left","[""yellow"",""purple""]","2","high nameability","17","right","trigger",""
"html-button-response","90","182510","0.0-70.0-0.0","CAN_139","139","","","","","","579","<button class=""jspsych-btn""><img src=""stimuli/purple.png"" style=""width: 200px;height: 200px;""></button>","1","purple","yellow","[""purple"",""yellow"",""high nameability""]","right-left","[""yellow"",""purple""]","2","high nameability","17","right","response","1"
"html-audio-button-response","91","182716","0.0-70.0-1.0","CAN_139","139","","","","","","null","stimuli/bleep.m4a","null","purple","yellow","[""purple"",""yellow"",""high nameability""]","right-left","[""yellow"",""purple""]","2","high nameability","17","right","audio_feedback","1"
"html-button-response","92","183242","0.0-71.0","CAN_139","139","","","","","","null","<button class=""jspsych-btn""><img src=""stimuli/white_square.png"" style=""width: 200px;height: 200px;""></button>","null","purple","yellow","[""purple"",""yellow"",""high nameability""]","right-left","[""yellow"",""purple""]","2","high nameability","17","right","iti",""
"html-button-response","93","183744","0.0-72.0","CAN_139","139","","","","","","482","","0","brown","purple","[""brown"",""purple"",""high nameability""]","right-left","[""purple"",""brown""]","2","high nameability","18","right","trigger",""
"html-button-response","94","184484","0.0-73.0-0.0","CAN_139","139","","","","","","733","<button class=""jspsych-btn""><img src=""stimuli/brown.png"" style=""width: 200px;height: 200px;""></button>","1","brown","purple","[""brown"",""purple"",""high nameability""]","right-left","[""purple"",""brown""]","2","high nameability","18","right","response","1"
"html-audio-button-response","95","184689","0.0-73.0-1.0","CAN_139","139","","","","","","null","stimuli/bleep.m4a","null","brown","purple","[""brown"",""purple"",""high nameability""]","right-left","[""purple"",""brown""]","2","high nameability","18","right","audio_feedback","1"
"html-button-response","96","185210","0.0-74.0","CAN_139","139","","","","","","null","<button class=""jspsych-btn""><img src=""stimuli/white_square.png"" style=""width: 200px;height: 200px;""></button>","null","brown","purple","[""brown"",""purple"",""high nameability""]","right-left","[""purple"",""brown""]","2","high nameability","18","right","iti",""
"html-button-response","97","185828","0.0-75.0","CAN_139","139","","","","","","598","","0","mustard","darkgreenblue","[""mustard"",""darkgreenblue"",""low nameability""]","right-left","[""darkgreenblue"",""mustard""]","2","low nameability","19","right","trigger",""
"html-button-response","98","186397","0.0-76.0-0.0","CAN_139","139","","","","","","560","<button class=""jspsych-btn""><img src=""stimuli/mustard.png"" style=""width: 200px;height: 200px;""></button>","1","mustard","darkgreenblue","[""mustard"",""darkgreenblue"",""low nameability""]","right-left","[""darkgreenblue"",""mustard""]","2","low nameability","19","right","response","1"
"html-audio-button-response","99","186600","0.0-76.0-1.0","CAN_139","139","","","","","","null","stimuli/bleep.m4a","null","mustard","darkgreenblue","[""mustard"",""darkgreenblue"",""low nameability""]","right-left","[""darkgreenblue"",""mustard""]","2","low nameability","19","right","audio_feedback","1"
"html-button-response","100","187120","0.0-77.0","CAN_139","139","","","","","","null","<button class=""jspsych-btn""><img src=""stimuli/white_square.png"" style=""width: 200px;height: 200px;""></button>","null","mustard","darkgreenblue","[""mustard"",""darkgreenblue"",""low nameability""]","right-left","[""darkgreenblue"",""mustard""]","2","low nameability","19","right","iti",""
"html-button-response","101","187720","0.0-78.0","CAN_139","139","","","","","","583","","0","darkgreenblue","turquoise","[""darkgreenblue"",""turquoise"",""low nameability""]","left-right","[""darkgreenblue"",""turquoise"",""low nameability""]","2","low nameability","20","left","trigger",""
"html-button-response","102","188427","0.0-79.0-0.0","CAN_139","139","","","","","","700","<button class=""jspsych-btn""><img src=""stimuli/darkgreenblue.png"" style=""width: 200px;height: 200px;""></button>","0","darkgreenblue","turquoise","[""darkgreenblue"",""turquoise"",""low nameability""]","left-right","[""darkgreenblue"",""turquoise"",""low nameability""]","2","low nameability","20","left","response","1"
"html-audio-button-response","103","188628","0.0-79.0-1.0","CAN_139","139","","","","","","null","stimuli/bleep.m4a","null","darkgreenblue","turquoise","[""darkgreenblue"",""turquoise"",""low nameability""]","left-right","[""darkgreenblue"",""turquoise"",""low nameability""]","2","low nameability","20","left","audio_feedback","1"
"html-button-response","104","189148","0.0-80.0","CAN_139","139","","","","","","null","<button class=""jspsych-btn""><img src=""stimuli/white_square.png"" style=""width: 200px;height: 200px;""></button>","null","darkgreenblue","turquoise","[""darkgreenblue"",""turquoise"",""low nameability""]","left-right","[""darkgreenblue"",""turquoise"",""low nameability""]","2","low nameability","20","left","iti",""
"pavlovia","105","189225","0.0-81.0","CAN_139","139","","","","","","","","","","","","","","","","","","",""
"pavlovia","106","189238","0.0-82.0","CAN_139","139","","","","","","","","","","","","","","","","","","",""
"html-audio-button-response","107","190581","0.0-83.0","CAN_139","139","","","","","","1432","stimuli/tada.m4a","0","","","","","","","","","","",""
"html-button-response","108","191195","0.0-84.0","CAN_139","139","","","","","","606","","0","","","","","","","","","","",""
"html-button-response","109","191884","0.0-85.0","CAN_139","139","","","","","","683","","0","pink","mustard","[""pink"",""mustard"",""low nameability""]","right-left","[""mustard"",""pink""]","3","low nameability","21","right","trigger",""
"html-button-response","110","192465","0.0-86.0-0.0","CAN_139","139","","","","","","573","<button class=""jspsych-btn""><img src=""stimuli/pink.png"" style=""width: 200px;height: 200px;""></button>","1","pink","mustard","[""pink"",""mustard"",""low nameability""]","right-left","[""mustard"",""pink""]","3","low nameability","21","right","response","1"
"html-audio-button-response","111","192670","0.0-86.0-1.0","CAN_139","139","","","","","","null","stimuli/bleep.m4a","null","pink","mustard","[""pink"",""mustard"",""low nameability""]","right-left","[""mustard"",""pink""]","3","low nameability","21","right","audio_feedback","1"
"html-button-response","112","193191","0.0-87.0","CAN_139","139","","","","","","null","<button class=""jspsych-btn""><img src=""stimuli/white_square.png"" style=""width: 200px;height: 200px;""></button>","null","pink","mustard","[""pink"",""mustard"",""low nameability""]","right-left","[""mustard"",""pink""]","3","low nameability","21","right","iti",""
"html-button-response","113","193657","0.0-88.0","CAN_139","139","","","","","","448","","0","turquoise","neonyellow","[""turquoise"",""neonyellow"",""low nameability""]","right-left","[""neonyellow"",""turquoise""]","3","low nameability","22","right","trigger",""
"html-button-response","114","194224","0.0-89.0-0.0","CAN_139","139","","","","","","558","<button class=""jspsych-btn""><img src=""stimuli/turquoise.png"" style=""width: 200px;height: 200px;""></button>","1","turquoise","neonyellow","[""turquoise"",""neonyellow"",""low nameability""]","right-left","[""neonyellow"",""turquoise""]","3","low nameability","22","right","response","1"
"html-audio-button-response","115","194428","0.0-89.0-1.0","CAN_139","139","","","","","","null","stimuli/bleep.m4a","null","turquoise","neonyellow","[""turquoise"",""neonyellow"",""low nameability""]","right-left","[""neonyellow"",""turquoise""]","3","low nameability","22","right","audio_feedback","1"
"html-button-response","116","194949","0.0-90.0","CAN_139","139","","","","","","null","<button class=""jspsych-btn""><img src=""stimuli/white_square.png"" style=""width: 200px;height: 200px;""></button>","null","turquoise","neonyellow","[""turquoise"",""neonyellow"",""low nameability""]","right-left","[""neonyellow"",""turquoise""]","3","low nameability","22","right","iti",""
"html-button-response","117","195386","0.0-91.0","CAN_139","139","","","","","","420","","0","brown","yellow","[""brown"",""yellow"",""high nameability""]","left-right","[""brown"",""yellow"",""high nameability""]","3","high nameability","23","left","trigger",""
"html-button-response","118","196001","0.0-92.0-0.0","CAN_139","139","","","","","","607","<button class=""jspsych-btn""><img src=""stimuli/brown.png"" style=""width: 200px;height: 200px;""></button>","0","brown","yellow","[""brown"",""yellow"",""high nameability""]","left-right","[""brown"",""yellow"",""high nameability""]","3","high nameability","23","left","response","1"
"html-audio-button-response","119","196205","0.0-92.0-1.0","CAN_139","139","","","","","","null","stimuli/bleep.m4a","null","brown","yellow","[""brown"",""yellow"",""high nameability""]","left-right","[""brown"",""yellow"",""high nameability""]","3","high nameability","23","left","audio_feedback","1"
"html-button-response","120","196722","0.0-93.0","CAN_139","139","","","","","","null","<button class=""jspsych-btn""><img src=""stimuli/white_square.png"" style=""width: 200px;height: 200px;""></button>","null","brown","yellow","[""brown"",""yellow"",""high nameability""]","left-right","[""brown"",""yellow"",""high nameability""]","3","high nameability","23","left","iti",""
"html-button-response","121","197247","0.0-94.0","CAN_139","139","","","","","","505","","0","blue","purple","[""blue"",""purple"",""high nameability""]","left-right","[""blue"",""purple"",""high nameability""]","3","high nameability","24","left","trigger",""
"html-button-response","122","197880","0.0-95.0-0.0","CAN_139","139","","","","","","626","<button class=""jspsych-btn""><img src=""stimuli/blue.png"" style=""width: 200px;height: 200px;""></button>","0","blue","purple","[""blue"",""purple"",""high nameability""]","left-right","[""blue"",""purple"",""high nameability""]","3","high nameability","24","left","response","1"
"html-audio-button-response","123","198084","0.0-95.0-1.0","CAN_139","139","","","","","","null","stimuli/bleep.m4a","null","blue","purple","[""blue"",""purple"",""high nameability""]","left-right","[""blue"",""purple"",""high nameability""]","3","high nameability","24","left","audio_feedback","1"
"html-button-response","124","198601","0.0-96.0","CAN_139","139","","","","","","null","<button class=""jspsych-btn""><img src=""stimuli/white_square.png"" style=""width: 200px;height: 200px;""></button>","null","blue","purple","[""blue"",""purple"",""high nameability""]","left-right","[""blue"",""purple"",""high nameability""]","3","high nameability","24","left","iti",""
"html-button-response","125","199097","0.0-97.0","CAN_139","139","","","","","","479","","0","brown","red","[""brown"",""red"",""high nameability""]","left-right","[""brown"",""red"",""high nameability""]","3","high nameability","25","left","trigger",""
"html-button-response","126","199805","0.0-98.0-0.0","CAN_139","139","","","","","","700","<button class=""jspsych-btn""><img src=""stimuli/brown.png"" style=""width: 200px;height: 200px;""></button>","0","brown","red","[""brown"",""red"",""high nameability""]","left-right","[""brown"",""red"",""high nameability""]","3","high nameability","25","left","response","1"
"html-audio-button-response","127","200014","0.0-98.0-1.0","CAN_139","139","","","","","","null","stimuli/bleep.m4a","null","brown","red","[""brown"",""red"",""high nameability""]","left-right","[""brown"",""red"",""high nameability""]","3","high nameability","25","left","audio_feedback","1"
"html-button-response","128","200538","0.0-99.0","CAN_139","139","","","","","","null","<button class=""jspsych-btn""><img src=""stimuli/white_square.png"" style=""width: 200px;height: 200px;""></button>","null","brown","red","[""brown"",""red"",""high nameability""]","left-right","[""brown"",""red"",""high nameability""]","3","high nameability","25","left","iti",""
"html-button-response","129","200998","0.0-100.0","CAN_139","139","","","","","","443","","0","mustard","turquoise","[""mustard"",""turquoise"",""low nameability""]","left-right","[""mustard"",""turquoise"",""low nameability""]","3","low nameability","26","left","trigger",""
"html-button-response","130","201740","0.0-101.0-0.0","CAN_139","139","","","","","","735","<button class=""jspsych-btn""><img src=""stimuli/mustard.png"" style=""width: 200px;height: 200px;""></button>","0","mustard","turquoise","[""mustard"",""turquoise"",""low nameability""]","left-right","[""mustard"",""turquoise"",""low nameability""]","3","low nameability","26","left","response","1"
"html-audio-button-response","131","201946","0.0-101.0-1.0","CAN_139","139","","","","","","null","stimuli/bleep.m4a","null","mustard","turquoise","[""mustard"",""turquoise"",""low nameability""]","left-right","[""mustard"",""turquoise"",""low nameability""]","3","low nameability","26","left","audio_feedback","1"
"html-button-response","132","202464","0.0-102.0","CAN_139","139","","","","","","null","<button class=""jspsych-btn""><img src=""stimuli/white_square.png"" style=""width: 200px;height: 200px;""></button>","null","mustard","turquoise","[""mustard"",""turquoise"",""low nameability""]","left-right","[""mustard"",""turquoise"",""low nameability""]","3","low nameability","26","left","iti",""
"html-button-response","133","203084","0.0-103.0","CAN_139","139","","","","","","599","","0","brown","orange","[""brown"",""orange"",""high nameability""]","right-left","[""orange"",""brown""]","3","high nameability","27","right","trigger",""
"html-button-response","134","203688","0.0-104.0-0.0","CAN_139","139","","","","","","596","<button class=""jspsych-btn""><img src=""stimuli/brown.png"" style=""width: 200px;height: 200px;""></button>","1","brown","orange","[""brown"",""orange"",""high nameability""]","right-left","[""orange"",""brown""]","3","high nameability","27","right","response","1"
"html-audio-button-response","135","203893","0.0-104.0-1.0","CAN_139","139","","","","","","null","stimuli/bleep.m4a","null","brown","orange","[""brown"",""orange"",""high nameability""]","right-left","[""orange"",""brown""]","3","high nameability","27","right","audio_feedback","1"
"html-button-response","136","204414","0.0-105.0","CAN_139","139","","","","","","null","<button class=""jspsych-btn""><img src=""stimuli/white_square.png"" style=""width: 200px;height: 200px;""></button>","null","brown","orange","[""brown"",""orange"",""high nameability""]","right-left","[""orange"",""brown""]","3","high nameability","27","right","iti",""
"html-button-response","137","204976","0.0-106.0","CAN_139","139","","","","","","541","","0","blue","yellow","[""blue"",""yellow"",""high nameability""]","right-left","[""yellow"",""blue""]","3","high nameability","28","right","trigger",""
"html-button-response","138","205615","0.0-107.0-0.0","CAN_139","139","","","","","","634","<button class=""jspsych-btn""><img src=""stimuli/blue.png"" style=""width: 200px;height: 200px;""></button>","1","blue","yellow","[""blue"",""yellow"",""high nameability""]","right-left","[""yellow"",""blue""]","3","high nameability","28","right","response","1"
"html-audio-button-response","139","205820","0.0-107.0-1.0","CAN_139","139","","","","","","null","stimuli/bleep.m4a","null","blue","yellow","[""blue"",""yellow"",""high nameability""]","right-left","[""yellow"",""blue""]","3","high nameability","28","right","audio_feedback","1"
"html-button-response","140","206337","0.0-108.0","CAN_139","139","","","","","","null","<button class=""jspsych-btn""><img src=""stimuli/white_square.png"" style=""width: 200px;height: 200px;""></button>","null","blue","yellow","[""blue"",""yellow"",""high nameability""]","right-left","[""yellow"",""blue""]","3","high nameability","28","right","iti",""
"html-button-response","141","206950","0.0-109.0","CAN_139","139","","","","","","593","","0","lightred","pink","[""lightred"",""pink"",""low nameability""]","left-right","[""lightred"",""pink"",""low nameability""]","3","low nameability","29","left","trigger",""
"html-button-response","142","207559","0.0-110.0-0.0","CAN_139","139","","","","","","604","<button class=""jspsych-btn""><img src=""stimuli/lightred.png"" style=""width: 200px;height: 200px;""></button>","0","lightred","pink","[""lightred"",""pink"",""low nameability""]","left-right","[""lightred"",""pink"",""low nameability""]","3","low nameability","29","left","response","1"
"html-audio-button-response","143","207766","0.0-110.0-1.0","CAN_139","139","","","","","","null","stimuli/bleep.m4a","null","lightred","pink","[""lightred"",""pink"",""low nameability""]","left-right","[""lightred"",""pink"",""low nameability""]","3","low nameability","29","left","audio_feedback","1"
"html-button-response","144","208289","0.0-111.0","CAN_139","139","","","","","","null","<button class=""jspsych-btn""><img src=""stimuli/white_square.png"" style=""width: 200px;height: 200px;""></button>","null","lightred","pink","[""lightred"",""pink"",""low nameability""]","left-right","[""lightred"",""pink"",""low nameability""]","3","low nameability","29","left","iti",""
"html-button-response","145","208777","0.0-112.0","CAN_139","139","","","","","","469","","0","purple","brown","[""purple"",""brown"",""high nameability""]","left-right","[""purple"",""brown"",""high nameability""]","3","high nameability","30","left","trigger",""
"html-button-response","146","209425","0.0-113.0-0.0","CAN_139","139","","","","","","641","<button class=""jspsych-btn""><img src=""stimuli/purple.png"" style=""width: 200px;height: 200px;""></button>","0","purple","brown","[""purple"",""brown"",""high nameability""]","left-right","[""purple"",""brown"",""high nameability""]","3","high nameability","30","left","response","1"
"html-audio-button-response","147","209626","0.0-113.0-1.0","CAN_139","139","","","","","","null","stimuli/bleep.m4a","null","purple","brown","[""purple"",""brown"",""high nameability""]","left-right","[""purple"",""brown"",""high nameability""]","3","high nameability","30","left","audio_feedback","1"
"html-button-response","148","210148","0.0-114.0","CAN_139","139","","","","","","null","<button class=""jspsych-btn""><img src=""stimuli/white_square.png"" style=""width: 200px;height: 200px;""></button>","null","purple","brown","[""purple"",""brown"",""high nameability""]","left-right","[""purple"",""brown"",""high nameability""]","3","high nameability","30","left","iti",""
"pavlovia","149","210220","0.0-115.0","CAN_139","139","","","","","","","","","","","","","","","","","","",""
"pavlovia","150","210232","0.0-116.0","CAN_139","139","","","","","","","","","","","","","","","","","","",""
"html-audio-button-response","151","211261","0.0-117.0","CAN_139","139","","","","","","1117","stimuli/tada.m4a","0","","","","","","","","","","",""
"html-button-response","152","211863","0.0-118.0","CAN_139","139","","","","","","595","","0","","","","","","","","","","",""
"html-button-response","153","212555","0.0-119.0","CAN_139","139","","","","","","683","","0","turquoise","lightred","[""turquoise"",""lightred"",""low nameability""]","right-left","[""lightred"",""turquoise""]","4","low nameability","31","right","trigger",""
"html-button-response","154","213154","0.0-120.0-0.0","CAN_139","139","","","","","","593","<button class=""jspsych-btn""><img src=""stimuli/turquoise.png"" style=""width: 200px;height: 200px;""></button>","1","turquoise","lightred","[""turquoise"",""lightred"",""low nameability""]","right-left","[""lightred"",""turquoise""]","4","low nameability","31","right","response","1"
"html-audio-button-response","155","213363","0.0-120.0-1.0","CAN_139","139","","","","","","null","stimuli/bleep.m4a","null","turquoise","lightred","[""turquoise"",""lightred"",""low nameability""]","right-left","[""lightred"",""turquoise""]","4","low nameability","31","right","audio_feedback","1"
"html-button-response","156","213910","0.0-121.0","CAN_139","139","","","","","","null","<button class=""jspsych-btn""><img src=""stimuli/white_square.png"" style=""width: 200px;height: 200px;""></button>","null","turquoise","lightred","[""turquoise"",""lightred"",""low nameability""]","right-left","[""lightred"",""turquoise""]","4","low nameability","31","right","iti",""
"html-button-response","157","214500","0.0-122.0","CAN_139","139","","","","","","581","","0","yellow","blue","[""yellow"",""blue"",""high nameability""]","left-right","[""yellow"",""blue"",""high nameability""]","4","high nameability","32","left","trigger",""
"html-button-response","158","215102","0.0-123.0-0.0","CAN_139","139","","","","","","594","<button class=""jspsych-btn""><img src=""stimuli/yellow.png"" style=""width: 200px;height: 200px;""></button>","0","yellow","blue","[""yellow"",""blue"",""high nameability""]","left-right","[""yellow"",""blue"",""high nameability""]","4","high nameability","32","left","response","1"
"html-audio-button-response","159","215304","0.0-123.0-1.0","CAN_139","139","","","","","","null","stimuli/bleep.m4a","null","yellow","blue","[""yellow"",""blue"",""high nameability""]","left-right","[""yellow"",""blue"",""high nameability""]","4","high nameability","32","left","audio_feedback","1"
"html-button-response","160","215820","0.0-124.0","CAN_139","139","","","","","","null","<button class=""jspsych-btn""><img src=""stimuli/white_square.png"" style=""width: 200px;height: 200px;""></button>","null","yellow","blue","[""yellow"",""blue"",""high nameability""]","left-right","[""yellow"",""blue"",""high nameability""]","4","high nameability","32","left","iti",""
"html-button-response","161","216519","0.0-125.0","CAN_139","139","","","","","","677","","0","neonyellow","darkgreenblue","[""neonyellow"",""darkgreenblue"",""low nameability""]","right-left","[""darkgreenblue"",""neonyellow""]","4","low nameability","33","right","trigger",""
"html-button-response","162","217077","0.0-126.0-0.0","CAN_139","139","","","","","","549","<button class=""jspsych-btn""><img src=""stimuli/neonyellow.png"" style=""width: 200px;height: 200px;""></button>","1","neonyellow","darkgreenblue","[""neonyellow"",""darkgreenblue"",""low nameability""]","right-left","[""darkgreenblue"",""neonyellow""]","4","low nameability","33","right","response","1"
"html-audio-button-response","163","217280","0.0-126.0-1.0","CAN_139","139","","","","","","null","stimuli/bleep.m4a","null","neonyellow","darkgreenblue","[""neonyellow"",""darkgreenblue"",""low nameability""]","right-left","[""darkgreenblue"",""neonyellow""]","4","low nameability","33","right","audio_feedback","1"
"html-button-response","164","217802","0.0-127.0","CAN_139","139","","","","","","null","<button class=""jspsych-btn""><img src=""stimuli/white_square.png"" style=""width: 200px;height: 200px;""></button>","null","neonyellow","darkgreenblue","[""neonyellow"",""darkgreenblue"",""low nameability""]","right-left","[""darkgreenblue"",""neonyellow""]","4","low nameability","33","right","iti",""
"html-button-response","165","218718","0.0-128.0","CAN_139","139","","","","","","900","","0","yellow","red","[""yellow"",""red"",""high nameability""]","right-left","[""red"",""yellow""]","4","high nameability","34","right","trigger",""
"html-button-response","166","219271","0.0-129.0-0.0","CAN_139","139","","","","","","545","<button class=""jspsych-btn""><img src=""stimuli/yellow.png"" style=""width: 200px;height: 200px;""></button>","1","yellow","red","[""yellow"",""red"",""high nameability""]","right-left","[""red"",""yellow""]","4","high nameability","34","right","response","1"
"html-audio-button-response","167","219485","0.0-129.0-1.0","CAN_139","139","","","","","","null","stimuli/bleep.m4a","null","yellow","red","[""yellow"",""red"",""high nameability""]","right-left","[""red"",""yellow""]","4","high nameability","34","right","audio_feedback","1"
"html-button-response","168","220010","0.0-130.0","CAN_139","139","","","","","","null","<button class=""jspsych-btn""><img src=""stimuli/white_square.png"" style=""width: 200px;height: 200px;""></button>","null","yellow","red","[""yellow"",""red"",""high nameability""]","right-left","[""red"",""yellow""]","4","high nameability","34","right","iti",""
"html-button-response","169","220720","0.0-131.0","CAN_139","139","","","","","","687","","0","orange","purple","[""orange"",""purple"",""high nameability""]","right-left","[""purple"",""orange""]","4","high nameability","35","right","trigger",""
"html-button-response","170","221313","0.0-132.0-0.0","CAN_139","139","","","","","","586","<button class=""jspsych-btn""><img src=""stimuli/orange.png"" style=""width: 200px;height: 200px;""></button>","1","orange","purple","[""orange"",""purple"",""high nameability""]","right-left","[""purple"",""orange""]","4","high nameability","35","right","response","1"
"html-audio-button-response","171","221521","0.0-132.0-1.0","CAN_139","139","","","","","","null","stimuli/bleep.m4a","null","orange","purple","[""orange"",""purple"",""high nameability""]","right-left","[""purple"",""orange""]","4","high nameability","35","right","audio_feedback","1"
"html-button-response","172","222036","0.0-133.0","CAN_139","139","","","","","","null","<button class=""jspsych-btn""><img src=""stimuli/white_square.png"" style=""width: 200px;height: 200px;""></button>","null","orange","purple","[""orange"",""purple"",""high nameability""]","right-left","[""purple"",""orange""]","4","high nameability","35","right","iti",""
"html-button-response","173","222539","0.0-134.0","CAN_139","139","","","","","","487","","0","pink","lightred","[""pink"",""lightred"",""low nameability""]","left-right","[""pink"",""lightred"",""low nameability""]","4","low nameability","36","left","trigger",""
"html-button-response","174","223263","0.0-135.0-0.0","CAN_139","139","","","","","","715","<button class=""jspsych-btn""><img src=""stimuli/pink.png"" style=""width: 200px;height: 200px;""></button>","0","pink","lightred","[""pink"",""lightred"",""low nameability""]","left-right","[""pink"",""lightred"",""low nameability""]","4","low nameability","36","left","response","1"
"html-audio-button-response","175","223469","0.0-135.0-1.0","CAN_139","139","","","","","","null","stimuli/bleep.m4a","null","pink","lightred","[""pink"",""lightred"",""low nameability""]","left-right","[""pink"",""lightred"",""low nameability""]","4","low nameability","36","left","audio_feedback","1"
"html-button-response","176","223990","0.0-136.0","CAN_139","139","","","","","","null","<button class=""jspsych-btn""><img src=""stimuli/white_square.png"" style=""width: 200px;height: 200px;""></button>","null","pink","lightred","[""pink"",""lightred"",""low nameability""]","left-right","[""pink"",""lightred"",""low nameability""]","4","low nameability","36","left","iti",""
"html-button-response","177","224580","0.0-137.0","CAN_139","139","","","","","","571","","0","darkgreenblue","pink","[""darkgreenblue"",""pink"",""low nameability""]","left-right","[""darkgreenblue"",""pink"",""low nameability""]","4","low nameability","37","left","trigger",""
"html-button-response","178","225260","0.0-138.0-0.0","CAN_139","139","","","","","","673","<button class=""jspsych-btn""><img src=""stimuli/darkgreenblue.png"" style=""width: 200px;height: 200px;""></button>","0","darkgreenblue","pink","[""darkgreenblue"",""pink"",""low nameability""]","left-right","[""darkgreenblue"",""pink"",""low nameability""]","4","low nameability","37","left","response","1"
"html-audio-button-response","179","225465","0.0-138.0-1.0","CAN_139","139","","","","","","null","stimuli/bleep.m4a","null","darkgreenblue","pink","[""darkgreenblue"",""pink"",""low nameability""]","left-right","[""darkgreenblue"",""pink"",""low nameability""]","4","low nameability","37","left","audio_feedback","1"
"html-button-response","180","225991","0.0-139.0","CAN_139","139","","","","","","null","<button class=""jspsych-btn""><img src=""stimuli/white_square.png"" style=""width: 200px;height: 200px;""></button>","null","darkgreenblue","pink","[""darkgreenblue"",""pink"",""low nameability""]","left-right","[""darkgreenblue"",""pink"",""low nameability""]","4","low nameability","37","left","iti",""
"html-button-response","181","226648","0.0-140.0","CAN_139","139","","","","","","622","","0","lightred","turquoise","[""lightred"",""turquoise"",""low nameability""]","right-left","[""turquoise"",""lightred""]","4","low nameability","38","right","trigger",""
"html-button-response","182","227199","0.0-141.0-0.0","CAN_139","139","","","","","","537","<button class=""jspsych-btn""><img src=""stimuli/lightred.png"" style=""width: 200px;height: 200px;""></button>","1","lightred","turquoise","[""lightred"",""turquoise"",""low nameability""]","right-left","[""turquoise"",""lightred""]","4","low nameability","38","right","response","1"
"html-audio-button-response","183","227405","0.0-141.0-1.0","CAN_139","139","","","","","","null","stimuli/bleep.m4a","null","lightred","turquoise","[""lightred"",""turquoise"",""low nameability""]","right-left","[""turquoise"",""lightred""]","4","low nameability","38","right","audio_feedback","1"
"html-button-response","184","227923","0.0-142.0","CAN_139","139","","","","","","null","<button class=""jspsych-btn""><img src=""stimuli/white_square.png"" style=""width: 200px;height: 200px;""></button>","null","lightred","turquoise","[""lightred"",""turquoise"",""low nameability""]","right-left","[""turquoise"",""lightred""]","4","low nameability","38","right","iti",""
"html-button-response","185","228582","0.0-143.0","CAN_139","139","","","","","","637","","0","yellow","orange","[""yellow"",""orange"",""high nameability""]","left-right","[""yellow"",""orange"",""high nameability""]","4","high nameability","39","left","trigger",""
"html-button-response","186","229224","0.0-144.0-0.0","CAN_139","139","","","","","","636","<button class=""jspsych-btn""><img src=""stimuli/yellow.png"" style=""width: 200px;height: 200px;""></button>","0","yellow","orange","[""yellow"",""orange"",""high nameability""]","left-right","[""yellow"",""orange"",""high nameability""]","4","high nameability","39","left","response","1"
"html-audio-button-response","187","229429","0.0-144.0-1.0","CAN_139","139","","","","","","null","stimuli/bleep.m4a","null","yellow","orange","[""yellow"",""orange"",""high nameability""]","left-right","[""yellow"",""orange"",""high nameability""]","4","high nameability","39","left","audio_feedback","1"
"html-button-response","188","229947","0.0-145.0","CAN_139","139","","","","","","null","<button class=""jspsych-btn""><img src=""stimuli/white_square.png"" style=""width: 200px;height: 200px;""></button>","null","yellow","orange","[""yellow"",""orange"",""high nameability""]","left-right","[""yellow"",""orange"",""high nameability""]","4","high nameability","39","left","iti",""
"html-button-response","189","230590","0.0-146.0","CAN_139","139","","","","","","628","","0","lightred","neonyellow","[""lightred"",""neonyellow"",""low nameability""]","left-right","[""lightred"",""neonyellow"",""low nameability""]","4","low nameability","40","left","trigger",""
"html-button-response","190","231199","0.0-147.0-0.0","CAN_139","139","","","","","","602","<button class=""jspsych-btn""><img src=""stimuli/lightred.png"" style=""width: 200px;height: 200px;""></button>","0","lightred","neonyellow","[""lightred"",""neonyellow"",""low nameability""]","left-right","[""lightred"",""neonyellow"",""low nameability""]","4","low nameability","40","left","response","1"
"html-audio-button-response","191","231399","0.0-147.0-1.0","CAN_139","139","","","","","","null","stimuli/bleep.m4a","null","lightred","neonyellow","[""lightred"",""neonyellow"",""low nameability""]","left-right","[""lightred"",""neonyellow"",""low nameability""]","4","low nameability","40","left","audio_feedback","1"
"html-button-response","192","231917","0.0-148.0","CAN_139","139","","","","","","null","<button class=""jspsych-btn""><img src=""stimuli/white_square.png"" style=""width: 200px;height: 200px;""></button>","null","lightred","neonyellow","[""lightred"",""neonyellow"",""low nameability""]","left-right","[""lightred"",""neonyellow"",""low nameability""]","4","low nameability","40","left","iti",""
"pavlovia","193","231984","0.0-149.0","CAN_139","139","","","","","","","","","","","","","","","","","","",""
"pavlovia","194","231991","0.0-150.0","CAN_139","139","","","","","","","","","","","","","","","","","","",""
"html-audio-button-response","195","232971","0.0-151.0","CAN_139","139","","","","","","1053","stimuli/tada.m4a","0","","","","","","","","","","",""
"html-button-response","196","233630","0.0-152.0","CAN_139","139","","","","","","653","","0","","","","","","","","","","",""
"html-button-response","197","234276","0.0-153.0","CAN_139","139","","","","","","641","","0","orange","brown","[""orange"",""brown"",""high nameability""]","left-right","[""orange"",""brown"",""high nameability""]","5","high nameability","41","left","trigger",""
"html-button-response","198","234942","0.0-154.0-0.0","CAN_139","139","","","","","","659","<button class=""jspsych-btn""><img src=""stimuli/orange.png"" style=""width: 200px;height: 200px;""></button>","0","orange","brown","[""orange"",""brown"",""high nameability""]","left-right","[""orange"",""brown"",""high nameability""]","5","high nameability","41","left","response","1"
"html-audio-button-response","199","235145","0.0-154.0-1.0","CAN_139","139","","","","","","null","stimuli/bleep.m4a","null","orange","brown","[""orange"",""brown"",""high nameability""]","left-right","[""orange"",""brown"",""high nameability""]","5","high nameability","41","left","audio_feedback","1"
"html-button-response","200","235667","0.0-155.0","CAN_139","139","","","","","","null","<button class=""jspsych-btn""><img src=""stimuli/white_square.png"" style=""width: 200px;height: 200px;""></button>","null","orange","brown","[""orange"",""brown"",""high nameability""]","left-right","[""orange"",""brown"",""high nameability""]","5","high nameability","41","left","iti",""
"html-button-response","201","236297","0.0-156.0","CAN_139","139","","","","","","598","","0","turquoise","pink","[""turquoise"",""pink"",""low nameability""]","left-right","[""turquoise"",""pink"",""low nameability""]","5","low nameability","42","left","trigger",""
"html-button-response","202","236922","0.0-157.0-0.0","CAN_139","139","","","","","","612","<button class=""jspsych-btn""><img src=""stimuli/turquoise.png"" style=""width: 200px;height: 200px;""></button>","0","turquoise","pink","[""turquoise"",""pink"",""low nameability""]","left-right","[""turquoise"",""pink"",""low nameability""]","5","low nameability","42","left","response","1"
"html-audio-button-response","203","237126","0.0-157.0-1.0","CAN_139","139","","","","","","null","stimuli/bleep.m4a","null","turquoise","pink","[""turquoise"",""pink"",""low nameability""]","left-right","[""turquoise"",""pink"",""low nameability""]","5","low nameability","42","left","audio_feedback","1"
"html-button-response","204","237645","0.0-158.0","CAN_139","139","","","","","","null","<button class=""jspsych-btn""><img src=""stimuli/white_square.png"" style=""width: 200px;height: 200px;""></button>","null","turquoise","pink","[""turquoise"",""pink"",""low nameability""]","left-right","[""turquoise"",""pink"",""low nameability""]","5","low nameability","42","left","iti",""
"html-button-response","205","238167","0.0-159.0","CAN_139","139","","","","","","509","","0","orange","blue","[""orange"",""blue"",""high nameability""]","left-right","[""orange"",""blue"",""high nameability""]","5","high nameability","43","left","trigger",""
"html-button-response","206","238824","0.0-160.0-0.0","CAN_139","139","","","","","","648","<button class=""jspsych-btn""><img src=""stimuli/orange.png"" style=""width: 200px;height: 200px;""></button>","0","orange","blue","[""orange"",""blue"",""high nameability""]","left-right","[""orange"",""blue"",""high nameability""]","5","high nameability","43","left","response","1"
"html-audio-button-response","207","239027","0.0-160.0-1.0","CAN_139","139","","","","","","null","stimuli/bleep.m4a","null","orange","blue","[""orange"",""blue"",""high nameability""]","left-right","[""orange"",""blue"",""high nameability""]","5","high nameability","43","left","audio_feedback","1"
"html-button-response","208","239544","0.0-161.0","CAN_139","139","","","","","","null","<button class=""jspsych-btn""><img src=""stimuli/white_square.png"" style=""width: 200px;height: 200px;""></button>","null","orange","blue","[""orange"",""blue"",""high nameability""]","left-right","[""orange"",""blue"",""high nameability""]","5","high nameability","43","left","iti",""
"html-button-response","209","240296","0.0-162.0","CAN_139","139","","","","","","746","","0","red","yellow","[""red"",""yellow"",""high nameability""]","right-left","[""yellow"",""red""]","5","high nameability","44","right","trigger",""
"html-button-response","210","240806","0.0-163.0-0.0","CAN_139","139","","","","","","502","<button class=""jspsych-btn""><img src=""stimuli/red.png"" style=""width: 200px;height: 200px;""></button>","1","red","yellow","[""red"",""yellow"",""high nameability""]","right-left","[""yellow"",""red""]","5","high nameability","44","right","response","1"
"html-audio-button-response","211","241006","0.0-163.0-1.0","CAN_139","139","","","","","","null","stimuli/bleep.m4a","null","red","yellow","[""red"",""yellow"",""high nameability""]","right-left","[""yellow"",""red""]","5","high nameability","44","right","audio_feedback","1"
"html-button-response","212","241526","0.0-164.0","CAN_139","139","","","","","","null","<button class=""jspsych-btn""><img src=""stimuli/white_square.png"" style=""width: 200px;height: 200px;""></button>","null","red","yellow","[""red"",""yellow"",""high nameability""]","right-left","[""yellow"",""red""]","5","high nameability","44","right","iti",""
"html-button-response","213","242183","0.0-165.0","CAN_139","139","","","","","","635","","0","turquoise","mustard","[""turquoise"",""mustard"",""low nameability""]","right-left","[""mustard"",""turquoise""]","5","low nameability","45","right","trigger",""
"html-button-response","214","242804","0.0-166.0-0.0","CAN_139","139","","","","","","615","<button class=""jspsych-btn""><img src=""stimuli/turquoise.png"" style=""width: 200px;height: 200px;""></button>","1","turquoise","mustard","[""turquoise"",""mustard"",""low nameability""]","right-left","[""mustard"",""turquoise""]","5","low nameability","45","right","response","1"
"html-audio-button-response","215","243005","0.0-166.0-1.0","CAN_139","139","","","","","","null","stimuli/bleep.m4a","null","turquoise","mustard","[""turquoise"",""mustard"",""low nameability""]","right-left","[""mustard"",""turquoise""]","5","low nameability","45","right","audio_feedback","1"
"html-button-response","216","243523","0.0-167.0","CAN_139","139","","","","","","null","<button class=""jspsych-btn""><img src=""stimuli/white_square.png"" style=""width: 200px;height: 200px;""></button>","null","turquoise","mustard","[""turquoise"",""mustard"",""low nameability""]","right-left","[""mustard"",""turquoise""]","5","low nameability","45","right","iti",""
"html-button-response","217","244158","0.0-168.0","CAN_139","139","","","","","","614","","0","red","brown","[""red"",""brown"",""high nameability""]","left-right","[""red"",""brown"",""high nameability""]","5","high nameability","46","left","trigger",""
"html-button-response","218","244717","0.0-169.0-0.0","CAN_139","139","","","","","","552","<button class=""jspsych-btn""><img src=""stimuli/red.png"" style=""width: 200px;height: 200px;""></button>","0","red","brown","[""red"",""brown"",""high nameability""]","left-right","[""red"",""brown"",""high nameability""]","5","high nameability","46","left","response","1"
"html-audio-button-response","219","244920","0.0-169.0-1.0","CAN_139","139","","","","","","null","stimuli/bleep.m4a","null","red","brown","[""red"",""brown"",""high nameability""]","left-right","[""red"",""brown"",""high nameability""]","5","high nameability","46","left","audio_feedback","1"
"html-button-response","220","245439","0.0-170.0","CAN_139","139","","","","","","null","<button class=""jspsych-btn""><img src=""stimuli/white_square.png"" style=""width: 200px;height: 200px;""></button>","null","red","brown","[""red"",""brown"",""high nameability""]","left-right","[""red"",""brown"",""high nameability""]","5","high nameability","46","left","iti",""
"html-button-response","221","246132","0.0-171.0","CAN_139","139","","","","","","675","","0","blue","red","[""blue"",""red"",""high nameability""]","left-right","[""blue"",""red"",""high nameability""]","5","high nameability","47","left","trigger",""
"html-button-response","222","246735","0.0-172.0-0.0","CAN_139","139","","","","","","596","<button class=""jspsych-btn""><img src=""stimuli/blue.png"" style=""width: 200px;height: 200px;""></button>","0","blue","red","[""blue"",""red"",""high nameability""]","left-right","[""blue"",""red"",""high nameability""]","5","high nameability","47","left","response","1"
"html-audio-button-response","223","246939","0.0-172.0-1.0","CAN_139","139","","","","","","null","stimuli/bleep.m4a","null","blue","red","[""blue"",""red"",""high nameability""]","left-right","[""blue"",""red"",""high nameability""]","5","high nameability","47","left","audio_feedback","1"
"html-button-response","224","247458","0.0-173.0","CAN_139","139","","","","","","null","<button class=""jspsych-btn""><img src=""stimuli/white_square.png"" style=""width: 200px;height: 200px;""></button>","null","blue","red","[""blue"",""red"",""high nameability""]","left-right","[""blue"",""red"",""high nameability""]","5","high nameability","47","left","iti",""
"html-button-response","225","248005","0.0-174.0","CAN_139","139","","","","","","528","","0","blue","orange","[""blue"",""orange"",""high nameability""]","left-right","[""blue"",""orange"",""high nameability""]","5","high nameability","48","left","trigger",""
"html-button-response","226","248626","0.0-175.0-0.0","CAN_139","139","","","","","","614","<button class=""jspsych-btn""><img src=""stimuli/blue.png"" style=""width: 200px;height: 200px;""></button>","0","blue","orange","[""blue"",""orange"",""high nameability""]","left-right","[""blue"",""orange"",""high nameability""]","5","high nameability","48","left","response","1"
"html-audio-button-response","227","248829","0.0-175.0-1.0","CAN_139","139","","","","","","null","stimuli/bleep.m4a","null","blue","orange","[""blue"",""orange"",""high nameability""]","left-right","[""blue"",""orange"",""high nameability""]","5","high nameability","48","left","audio_feedback","1"
"html-button-response","228","249352","0.0-176.0","CAN_139","139","","","","","","null","<button class=""jspsych-btn""><img src=""stimuli/white_square.png"" style=""width: 200px;height: 200px;""></button>","null","blue","orange","[""blue"",""orange"",""high nameability""]","left-right","[""blue"",""orange"",""high nameability""]","5","high nameability","48","left","iti",""
"html-button-response","229","249917","0.0-177.0","CAN_139","139","","","","","","542","","0","yellow","brown","[""yellow"",""brown"",""high nameability""]","left-right","[""yellow"",""brown"",""high nameability""]","5","high nameability","49","left","trigger",""
"html-button-response","230","250527","0.0-178.0-0.0","CAN_139","139","","","","","","602","<button class=""jspsych-btn""><img src=""stimuli/yellow.png"" style=""width: 200px;height: 200px;""></button>","0","yellow","brown","[""yellow"",""brown"",""high nameability""]","left-right","[""yellow"",""brown"",""high nameability""]","5","high nameability","49","left","response","1"
"html-audio-button-response","231","250728","0.0-178.0-1.0","CAN_139","139","","","","","","null","stimuli/bleep.m4a","null","yellow","brown","[""yellow"",""brown"",""high nameability""]","left-right","[""yellow"",""brown"",""high nameability""]","5","high nameability","49","left","audio_feedback","1"
"html-button-response","232","251245","0.0-179.0","CAN_139","139","","","","","","null","<button class=""jspsych-btn""><img src=""stimuli/white_square.png"" style=""width: 200px;height: 200px;""></button>","null","yellow","brown","[""yellow"",""brown"",""high nameability""]","left-right","[""yellow"",""brown"",""high nameability""]","5","high nameability","49","left","iti",""
"html-button-response","233","251782","0.0-180.0","CAN_139","139","","","","","","523","","0","mustard","pink","[""mustard"",""pink"",""low nameability""]","right-left","[""pink"",""mustard""]","5","low nameability","50","right","trigger",""
"html-button-response","234","252402","0.0-181.0-0.0","CAN_139","139","","","","","","612","<button class=""jspsych-btn""><img src=""stimuli/mustard.png"" style=""width: 200px;height: 200px;""></button>","1","mustard","pink","[""mustard"",""pink"",""low nameability""]","right-left","[""pink"",""mustard""]","5","low nameability","50","right","response","1"
"html-audio-button-response","235","252605","0.0-181.0-1.0","CAN_139","139","","","","","","null","stimuli/bleep.m4a","null","mustard","pink","[""mustard"",""pink"",""low nameability""]","right-left","[""pink"",""mustard""]","5","low nameability","50","right","audio_feedback","1"
"html-button-response","236","253133","0.0-182.0","CAN_139","139","","","","","","null","<button class=""jspsych-btn""><img src=""stimuli/white_square.png"" style=""width: 200px;height: 200px;""></button>","null","mustard","pink","[""mustard"",""pink"",""low nameability""]","right-left","[""pink"",""mustard""]","5","low nameability","50","right","iti",""
"pavlovia","237","253180","0.0-183.0","CAN_139","139","","","","","","","","","","","","","","","","","","",""
"pavlovia","238","253186","0.0-184.0","CAN_139","139","","","","","","","","","","","","","","","","","","",""
"html-audio-button-response","239","254293","0.0-185.0","CAN_139","139","","","","","","1163","stimuli/tada.m4a","0","","","","","","","","","","",""
"html-button-response","240","254939","0.0-186.0","CAN_139","139","","","","","","640","","0","","","","","","","","","","",""
"html-button-response","241","255643","0.0-187.0","CAN_139","139","","","","","","698","","0","brown","blue","[""brown"",""blue"",""high nameability""]","right-left","[""blue"",""brown""]","6","high nameability","51","right","trigger",""
"html-button-response","242","256287","0.0-188.0-0.0","CAN_139","139","","","","","","638","<button class=""jspsych-btn""><img src=""stimuli/brown.png"" style=""width: 200px;height: 200px;""></button>","1","brown","blue","[""brown"",""blue"",""high nameability""]","right-left","[""blue"",""brown""]","6","high nameability","51","right","response","1"
"html-audio-button-response","243","256490","0.0-188.0-1.0","CAN_139","139","","","","","","null","stimuli/bleep.m4a","null","brown","blue","[""brown"",""blue"",""high nameability""]","right-left","[""blue"",""brown""]","6","high nameability","51","right","audio_feedback","1"
"html-button-response","244","257006","0.0-189.0","CAN_139","139","","","","","","null","<button class=""jspsych-btn""><img src=""stimuli/white_square.png"" style=""width: 200px;height: 200px;""></button>","null","brown","blue","[""brown"",""blue"",""high nameability""]","right-left","[""blue"",""brown""]","6","high nameability","51","right","iti",""
"html-button-response","245","257655","0.0-190.0","CAN_139","139","","","","","","632","","0","pink","turquoise","[""pink"",""turquoise"",""low nameability""]","right-left","[""turquoise"",""pink""]","6","low nameability","52","right","trigger",""
"html-button-response","246","258234","0.0-191.0-0.0","CAN_139","139","","","","","","570","<button class=""jspsych-btn""><img src=""stimuli/pink.png"" style=""width: 200px;height: 200px;""></button>","1","pink","turquoise","[""pink"",""turquoise"",""low nameability""]","right-left","[""turquoise"",""pink""]","6","low nameability","52","right","response","1"
"html-audio-button-response","247","258439","0.0-191.0-1.0","CAN_139","139","","","","","","null","stimuli/bleep.m4a","null","pink","turquoise","[""pink"",""turquoise"",""low nameability""]","right-left","[""turquoise"",""pink""]","6","low nameability","52","right","audio_feedback","1"
"html-button-response","248","258957","0.0-192.0","CAN_139","139","","","","","","null","<button class=""jspsych-btn""><img src=""stimuli/white_square.png"" style=""width: 200px;height: 200px;""></button>","null","pink","turquoise","[""pink"",""turquoise"",""low nameability""]","right-left","[""turquoise"",""pink""]","6","low nameability","52","right","iti",""
"html-button-response","249","259678","0.0-193.0","CAN_139","139","","","","","","708","","0","red","blue","[""red"",""blue"",""high nameability""]","right-left","[""blue"",""red""]","6","high nameability","53","right","trigger",""
"html-button-response","250","260265","0.0-194.0-0.0","CAN_139","139","","","","","","578","<button class=""jspsych-btn""><img src=""stimuli/red.png"" style=""width: 200px;height: 200px;""></button>","1","red","blue","[""red"",""blue"",""high nameability""]","right-left","[""blue"",""red""]","6","high nameability","53","right","response","1"
"html-audio-button-response","251","260469","0.0-194.0-1.0","CAN_139","139","","","","","","null","stimuli/bleep.m4a","null","red","blue","[""red"",""blue"",""high nameability""]","right-left","[""blue"",""red""]","6","high nameability","53","right","audio_feedback","1"
"html-button-response","252","260989","0.0-195.0","CAN_139","139","","","","","","null","<button class=""jspsych-btn""><img src=""stimuli/white_square.png"" style=""width: 200px;height: 200px;""></button>","null","red","blue","[""red"",""blue"",""high nameability""]","right-left","[""blue"",""red""]","6","high nameability","53","right","iti",""
"html-button-response","253","261704","0.0-196.0","CAN_139","139","","","","","","698","","0","darkgreenblue","mustard","[""darkgreenblue"",""mustard"",""low nameability""]","left-right","[""darkgreenblue"",""mustard"",""low nameability""]","6","low nameability","54","left","trigger",""
"html-button-response","254","262419","0.0-197.0-0.0","CAN_139","139","","","","","","706","<button class=""jspsych-btn""><img src=""stimuli/darkgreenblue.png"" style=""width: 200px;height: 200px;""></button>","0","darkgreenblue","mustard","[""darkgreenblue"",""mustard"",""low nameability""]","left-right","[""darkgreenblue"",""mustard"",""low nameability""]","6","low nameability","54","left","response","1"
"html-audio-button-response","255","262624","0.0-197.0-1.0","CAN_139","139","","","","","","null","stimuli/bleep.m4a","null","darkgreenblue","mustard","[""darkgreenblue"",""mustard"",""low nameability""]","left-right","[""darkgreenblue"",""mustard"",""low nameability""]","6","low nameability","54","left","audio_feedback","1"
"html-button-response","256","263148","0.0-198.0","CAN_139","139","","","","","","null","<button class=""jspsych-btn""><img src=""stimuli/white_square.png"" style=""width: 200px;height: 200px;""></button>","null","darkgreenblue","mustard","[""darkgreenblue"",""mustard"",""low nameability""]","left-right","[""darkgreenblue"",""mustard"",""low nameability""]","6","low nameability","54","left","iti",""
"html-button-response","257","263746","0.0-199.0","CAN_139","139","","","","","","580","","0","orange","red","[""orange"",""red"",""high nameability""]","left-right","[""orange"",""red"",""high nameability""]","6","high nameability","55","left","trigger",""
"html-button-response","258","264459","0.0-200.0-0.0","CAN_139","139","","","","","","705","<button class=""jspsych-btn""><img src=""stimuli/orange.png"" style=""width: 200px;height: 200px;""></button>","0","orange","red","[""orange"",""red"",""high nameability""]","left-right","[""orange"",""red"",""high nameability""]","6","high nameability","55","left","response","1"
"html-audio-button-response","259","264661","0.0-200.0-1.0","CAN_139","139","","","","","","null","stimuli/bleep.m4a","null","orange","red","[""orange"",""red"",""high nameability""]","left-right","[""orange"",""red"",""high nameability""]","6","high nameability","55","left","audio_feedback","1"
"html-button-response","260","265186","0.0-201.0","CAN_139","139","","","","","","null","<button class=""jspsych-btn""><img src=""stimuli/white_square.png"" style=""width: 200px;height: 200px;""></button>","null","orange","red","[""orange"",""red"",""high nameability""]","left-right","[""orange"",""red"",""high nameability""]","6","high nameability","55","left","iti",""
"html-button-response","261","265769","0.0-202.0","CAN_139","139","","","","","","566","","0","neonyellow","pink","[""neonyellow"",""pink"",""low nameability""]","right-left","[""pink"",""neonyellow""]","6","low nameability","56","right","trigger",""
"html-button-response","262","266373","0.0-203.0-0.0","CAN_139","139","","","","","","597","<button class=""jspsych-btn""><img src=""stimuli/neonyellow.png"" style=""width: 200px;height: 200px;""></button>","1","neonyellow","pink","[""neonyellow"",""pink"",""low nameability""]","right-left","[""pink"",""neonyellow""]","6","low nameability","56","right","response","1"
"html-audio-button-response","263","266582","0.0-203.0-1.0","CAN_139","139","","","","","","null","stimuli/bleep.m4a","null","neonyellow","pink","[""neonyellow"",""pink"",""low nameability""]","right-left","[""pink"",""neonyellow""]","6","low nameability","56","right","audio_feedback","1"
"html-button-response","264","267100","0.0-204.0","CAN_139","139","","","","","","null","<button class=""jspsych-btn""><img src=""stimuli/white_square.png"" style=""width: 200px;height: 200px;""></button>","null","neonyellow","pink","[""neonyellow"",""pink"",""low nameability""]","right-left","[""pink"",""neonyellow""]","6","low nameability","56","right","iti",""
"html-button-response","265","267722","0.0-205.0","CAN_139","139","","","","","","597","","0","neonyellow","mustard","[""neonyellow"",""mustard"",""low nameability""]","right-left","[""mustard"",""neonyellow""]","6","low nameability","57","right","trigger",""
"html-button-response","266","268349","0.0-206.0-0.0","CAN_139","139","","","","","","619","<button class=""jspsych-btn""><img src=""stimuli/neonyellow.png"" style=""width: 200px;height: 200px;""></button>","1","neonyellow","mustard","[""neonyellow"",""mustard"",""low nameability""]","right-left","[""mustard"",""neonyellow""]","6","low nameability","57","right","response","1"
"html-audio-button-response","267","268553","0.0-206.0-1.0","CAN_139","139","","","","","","null","stimuli/bleep.m4a","null","neonyellow","mustard","[""neonyellow"",""mustard"",""low nameability""]","right-left","[""mustard"",""neonyellow""]","6","low nameability","57","right","audio_feedback","1"
"html-button-response","268","269072","0.0-207.0","CAN_139","139","","","","","","null","<button class=""jspsych-btn""><img src=""stimuli/white_square.png"" style=""width: 200px;height: 200px;""></button>","null","neonyellow","mustard","[""neonyellow"",""mustard"",""low nameability""]","right-left","[""mustard"",""neonyellow""]","6","low nameability","57","right","iti",""
"html-button-response","269","269667","0.0-208.0","CAN_139","139","","","","","","578","","0","darkgreenblue","lightred","[""darkgreenblue"",""lightred"",""low nameability""]","left-right","[""darkgreenblue"",""lightred"",""low nameability""]","6","low nameability","58","left","trigger",""
"html-button-response","270","270328","0.0-209.0-0.0","CAN_139","139","","","","","","657","<button class=""jspsych-btn""><img src=""stimuli/darkgreenblue.png"" style=""width: 200px;height: 200px;""></button>","0","darkgreenblue","lightred","[""darkgreenblue"",""lightred"",""low nameability""]","left-right","[""darkgreenblue"",""lightred"",""low nameability""]","6","low nameability","58","left","response","1"
"html-audio-button-response","271","270529","0.0-209.0-1.0","CAN_139","139","","","","","","null","stimuli/bleep.m4a","null","darkgreenblue","lightred","[""darkgreenblue"",""lightred"",""low nameability""]","left-right","[""darkgreenblue"",""lightred"",""low nameability""]","6","low nameability","58","left","audio_feedback","1"
"html-button-response","272","271052","0.0-210.0","CAN_139","139","","","","","","null","<button class=""jspsych-btn""><img src=""stimuli/white_square.png"" style=""width: 200px;height: 200px;""></button>","null","darkgreenblue","lightred","[""darkgreenblue"",""lightred"",""low nameability""]","left-right","[""darkgreenblue"",""lightred"",""low nameability""]","6","low nameability","58","left","iti",""
"html-button-response","273","271697","0.0-211.0","CAN_139","139","","","","","","629","","0","neonyellow","turquoise","[""neonyellow"",""turquoise"",""low nameability""]","right-left","[""turquoise"",""neonyellow""]","6","low nameability","59","right","trigger",""
"html-button-response","274","272253","0.0-212.0-0.0","CAN_139","139","","","","","","548","<button class=""jspsych-btn""><img src=""stimuli/neonyellow.png"" style=""width: 200px;height: 200px;""></button>","1","neonyellow","turquoise","[""neonyellow"",""turquoise"",""low nameability""]","right-left","[""turquoise"",""neonyellow""]","6","low nameability","59","right","response","1"
"html-audio-button-response","275","272458","0.0-212.0-1.0","CAN_139","139","","","","","","null","stimuli/bleep.m4a","null","neonyellow","turquoise","[""neonyellow"",""turquoise"",""low nameability""]","right-left","[""turquoise"",""neonyellow""]","6","low nameability","59","right","audio_feedback","1"
"html-button-response","276","272979","0.0-213.0","CAN_139","139","","","","","","null","<button class=""jspsych-btn""><img src=""stimuli/white_square.png"" style=""width: 200px;height: 200px;""></button>","null","neonyellow","turquoise","[""neonyellow"",""turquoise"",""low nameability""]","right-left","[""turquoise"",""neonyellow""]","6","low nameability","59","right","iti",""
"html-button-response","277","273602","0.0-214.0","CAN_139","139","","","","","","606","","0","mustard","neonyellow","[""mustard"",""neonyellow"",""low nameability""]","left-right","[""mustard"",""neonyellow"",""low nameability""]","6","low nameability","60","left","trigger",""
"html-button-response","278","274248","0.0-215.0-0.0","CAN_139","139","","","","","","639","<button class=""jspsych-btn""><img src=""stimuli/mustard.png"" style=""width: 200px;height: 200px;""></button>","0","mustard","neonyellow","[""mustard"",""neonyellow"",""low nameability""]","left-right","[""mustard"",""neonyellow"",""low nameability""]","6","low nameability","60","left","response","1"
"html-audio-button-response","279","274453","0.0-215.0-1.0","CAN_139","139","","","","","","null","stimuli/bleep.m4a","null","mustard","neonyellow","[""mustard"",""neonyellow"",""low nameability""]","left-right","[""mustard"",""neonyellow"",""low nameability""]","6","low nameability","60","left","audio_feedback","1"
"html-button-response","280","274975","0.0-216.0","CAN_139","139","","","","","","null","<button class=""jspsych-btn""><img src=""stimuli/white_square.png"" style=""width: 200px;height: 200px;""></button>","null","mustard","neonyellow","[""mustard"",""neonyellow"",""low nameability""]","left-right","[""mustard"",""neonyellow"",""low nameability""]","6","low nameability","60","left","iti",""
