"trial_type","trial_index","time_elapsed","internal_node_id","subject_id","seed","success","timeout","failed_images","failed_audio","failed_video","rt","stimulus","response","target","foil","choices","combination_order","choices_in_order","round","condition","trial_counter","target_location","trial_kind","correct"
"pavlovia","0","21","0.0-0.0","CAN_123","123","","","","","","","","","","","","","","","","","","",""
"preload","1","694","0.0-1.0","CAN_123","123","true","false","[]","[]","[]","","","","","","","","","","","","","",""
"fullscreen","2","810190","0.0-2.0","CAN_123","123","true","","","","","","","","","","","","","","","","","",""
"html-button-response","3","842805","0.0-3.0","CAN_123","123","","","","","","32582","","0","","","","","","","","","","",""
"html-button-response","4","849482","0.0-4.0","CAN_123","123","","","","","","6663","","0","star","square","[""square"",""star""]","left-right","[""square"",""star""]","1","practice","1","right","trigger",""
"html-button-response","5","858332","0.0-5.0-0.0","CAN_123","123","","","","","","8837","<button class=""jspsych-btn""><img src=""stimuli/star.png"" style=""width: 200px;height: 200px;""></button>","1","star","square","[""square"",""star""]","left-right","[""square"",""star""]","1","practice","1","right","response","1"
"html-audio-button-response","6","858543","0.0-5.0-1.0","CAN_123","123","","","","","","null","stimuli/bleep.m4a","null","star","square","[""square"",""star""]","left-right","[""square"",""star""]","1","practice","1","right","audio_feedback","1"
"html-button-response","7","859079","0.0-6.0","CAN_123","123","","","","","","null","<button class=""jspsych-btn""><img src=""stimuli/white_square.png"" style=""width: 200px;height: 200px;""></button>","null","star","square","[""square"",""star""]","left-right","[""square"",""star""]","1","practice","1","right","iti",""
"html-button-response","8","860805","0.0-7.0","CAN_123","123","","","","","","1708","","0","triangle","pentagram","[""triangle"",""pentagram""]","left-right","[""triangle"",""pentagram""]","1","practice","1","left","trigger",""
"html-button-response","9","862078","0.0-8.0-0.0","CAN_123","123","","","","","","1265","<button class=""jspsych-btn""><img src=""stimuli/triangle.png"" style=""width: 200px;height: 200px;""></button>","0","triangle","pentagram","[""triangle"",""pentagram""]","left-right","[""triangle"",""pentagram""]","1","practice","1","left","response","1"
"html-audio-button-response","10","862287","0.0-8.0-1.0","CAN_123","123","","","","","","null","stimuli/bleep.m4a","null","triangle","pentagram","[""triangle"",""pentagram""]","left-right","[""triangle"",""pentagram""]","1","practice","1","left","audio_feedback","1"
"html-button-response","11","862811","0.0-9.0","CAN_123","123","","","","","","null","<button class=""jspsych-btn""><img src=""stimuli/white_square.png"" style=""width: 200px;height: 200px;""></button>","null","triangle","pentagram","[""triangle"",""pentagram""]","left-right","[""triangle"",""pentagram""]","1","practice","1","left","iti",""
"html-button-response","12","863773","0.0-10.0","CAN_123","123","","","","","","943","","0","diamond","rectangle","[""rectangle"",""diamond""]","left-right","[""rectangle"",""diamond""]","1","practice","1","right","trigger",""
"html-button-response","13","864740","0.0-11.0-0.0","CAN_123","123","","","","","","956","<button class=""jspsych-btn""><img src=""stimuli/diamond.png"" style=""width: 200px;height: 200px;""></button>","1","diamond","rectangle","[""rectangle"",""diamond""]","left-right","[""rectangle"",""diamond""]","1","practice","1","right","response","1"
"html-audio-button-response","14","864946","0.0-11.0-1.0","CAN_123","123","","","","","","null","stimuli/bleep.m4a","null","diamond","rectangle","[""rectangle"",""diamond""]","left-right","[""rectangle"",""diamond""]","1","practice","1","right","audio_feedback","1"
"html-button-response","15","865469","0.0-12.0","CAN_123","123","","","","","","null","<button class=""jspsych-btn""><img src=""stimuli/white_square.png"" style=""width: 200px;height: 200px;""></button>","null","diamond","rectangle","[""rectangle"",""diamond""]","left-right","[""rectangle"",""diamond""]","1","practice","1","right","iti",""
"html-button-response","16","866253","0.0-13.0","CAN_123","123","","","","","","767","","0","pentagram","star","[""pentagram"",""star""]","left-right","[""pentagram"",""star""]","1","practice","1","left","trigger",""
"html-button-response","17","867386","0.0-14.0-0.0","CAN_123","123","","","","","","1120","<button class=""jspsych-btn""><img src=""stimuli/pentagram.png"" style=""width: 200px;height: 200px;""></button>","0","pentagram","star","[""pentagram"",""star""]","left-right","[""pentagram"",""star""]","1","practice","1","left","response","1"
"html-audio-button-response","18","867591","0.0-14.0-1.0","CAN_123","123","","","","","","null","stimuli/bleep.m4a","null","pentagram","star","[""pentagram"",""star""]","left-right","[""pentagram"",""star""]","1","practice","1","left","audio_feedback","1"
"html-button-response","19","868109","0.0-15.0","CAN_123","123","","","","","","null","<button class=""jspsych-btn""><img src=""stimuli/white_square.png"" style=""width: 200px;height: 200px;""></button>","null","pentagram","star","[""pentagram"",""star""]","left-right","[""pentagram"",""star""]","1","practice","1","left","iti",""
"html-button-response","20","876651","0.0-16.0","CAN_123","123","","","","","","8526","","0","","","","","","","","","","",""
"html-button-response","21","877711","0.0-17.0","CAN_123","123","","","","","","1050","","0","mustard","neonyellow","[""mustard"",""neonyellow"",""low nameability""]","right-left","[""neonyellow"",""mustard""]","1","low nameability","1","right","trigger",""
"html-button-response","22","878924","0.0-18.0-0.0","CAN_123","123","","","","","","1201","<button class=""jspsych-btn""><img src=""stimuli/mustard.png"" style=""width: 200px;height: 200px;""></button>","1","mustard","neonyellow","[""mustard"",""neonyellow"",""low nameability""]","right-left","[""neonyellow"",""mustard""]","1","low nameability","1","right","response","1"
"html-audio-button-response","23","879126","0.0-18.0-1.0","CAN_123","123","","","","","","null","stimuli/bleep.m4a","null","mustard","neonyellow","[""mustard"",""neonyellow"",""low nameability""]","right-left","[""neonyellow"",""mustard""]","1","low nameability","1","right","audio_feedback","1"
"html-button-response","24","879647","0.0-19.0","CAN_123","123","","","","","","null","<button class=""jspsych-btn""><img src=""stimuli/white_square.png"" style=""width: 200px;height: 200px;""></button>","null","mustard","neonyellow","[""mustard"",""neonyellow"",""low nameability""]","right-left","[""neonyellow"",""mustard""]","1","low nameability","1","right","iti",""
"html-button-response","25","880437","0.0-20.0","CAN_123","123","","","","","","775","","0","pink","neonyellow","[""pink"",""neonyellow"",""low nameability""]","right-left","[""neonyellow"",""pink""]","1","low nameability","2","right","trigger",""
"html-button-response","26","882262","0.0-21.0-0.0","CAN_123","123","","","","","","1819","<button class=""jspsych-btn""><img src=""stimuli/pink.png"" style=""width: 200px;height: 200px;""></button>","1","pink","neonyellow","[""pink"",""neonyellow"",""low nameability""]","right-left","[""neonyellow"",""pink""]","1","low nameability","2","right","response","1"
"html-audio-button-response","27","882467","0.0-21.0-1.0","CAN_123","123","","","","","","null","stimuli/bleep.m4a","null","pink","neonyellow","[""pink"",""neonyellow"",""low nameability""]","right-left","[""neonyellow"",""pink""]","1","low nameability","2","right","audio_feedback","1"
"html-button-response","28","882991","0.0-22.0","CAN_123","123","","","","","","null","<button class=""jspsych-btn""><img src=""stimuli/white_square.png"" style=""width: 200px;height: 200px;""></button>","null","pink","neonyellow","[""pink"",""neonyellow"",""low nameability""]","right-left","[""neonyellow"",""pink""]","1","low nameability","2","right","iti",""
"html-button-response","29","883623","0.0-23.0","CAN_123","123","","","","","","615","","0","darkgreenblue","turquoise","[""darkgreenblue"",""turquoise"",""low nameability""]","right-left","[""turquoise"",""darkgreenblue""]","1","low nameability","3","right","trigger",""
"html-button-response","30","884535","0.0-24.0-0.0","CAN_123","123","","","","","","904","<button class=""jspsych-btn""><img src=""stimuli/darkgreenblue.png"" style=""width: 200px;height: 200px;""></button>","1","darkgreenblue","turquoise","[""darkgreenblue"",""turquoise"",""low nameability""]","right-left","[""turquoise"",""darkgreenblue""]","1","low nameability","3","right","response","1"
"html-audio-button-response","31","884740","0.0-24.0-1.0","CAN_123","123","","","","","","null","stimuli/bleep.m4a","null","darkgreenblue","turquoise","[""darkgreenblue"",""turquoise"",""low nameability""]","right-left","[""turquoise"",""darkgreenblue""]","1","low nameability","3","right","audio_feedback","1"
"html-button-response","32","885258","0.0-25.0","CAN_123","123","","","","","","null","<button class=""jspsych-btn""><img src=""stimuli/white_square.png"" style=""width: 200px;height: 200px;""></button>","null","darkgreenblue","turquoise","[""darkgreenblue"",""turquoise"",""low nameability""]","right-left","[""turquoise"",""darkgreenblue""]","1","low nameability","3","right","iti",""
"html-button-response","33","885923","0.0-26.0","CAN_123","123","","","","","","635","","0","lightred","turquoise","[""lightred"",""turquoise"",""low nameability""]","right-left","[""turquoise"",""lightred""]","1","low nameability","4","right","trigger",""
"html-button-response","34","886761","0.0-27.0-0.0","CAN_123","123","","","","","","829","<button class=""jspsych-btn""><img src=""stimuli/lightred.png"" style=""width: 200px;height: 200px;""></button>","1","lightred","turquoise","[""lightred"",""turquoise"",""low nameability""]","right-left","[""turquoise"",""lightred""]","1","low nameability","4","right","response","1"
"html-audio-button-response","35","886967","0.0-27.0-1.0","CAN_123","123","","","","","","null","stimuli/bleep.m4a","null","lightred","turquoise","[""lightred"",""turquoise"",""low nameability""]","right-left","[""turquoise"",""lightred""]","1","low nameability","4","right","audio_feedback","1"
"html-button-response","36","887492","0.0-28.0","CAN_123","123","","","","","","null","<button class=""jspsych-btn""><img src=""stimuli/white_square.png"" style=""width: 200px;height: 200px;""></button>","null","lightred","turquoise","[""lightred"",""turquoise"",""low nameability""]","right-left","[""turquoise"",""lightred""]","1","low nameability","4","right","iti",""
"html-button-response","37","888182","0.0-29.0","CAN_123","123","","","","","","670","","0","red","yellow","[""red"",""yellow"",""high nameability""]","left-right","[""red"",""yellow"",""high nameability""]","1","high nameability","5","left","trigger",""
"html-button-response","38","888963","0.0-30.0-0.0","CAN_123","123","","","","","","771","<button class=""jspsych-btn""><img src=""stimuli/red.png"" style=""width: 200px;height: 200px;""></button>","0","red","yellow","[""red"",""yellow"",""high nameability""]","left-right","[""red"",""yellow"",""high nameability""]","1","high nameability","5","left","response","1"
"html-audio-button-response","39","889169","0.0-30.0-1.0","CAN_123","123","","","","","","null","stimuli/bleep.m4a","null","red","yellow","[""red"",""yellow"",""high nameability""]","left-right","[""red"",""yellow"",""high nameability""]","1","high nameability","5","left","audio_feedback","1"
"html-button-response","40","889683","0.0-31.0","CAN_123","123","","","","","","null","<button class=""jspsych-btn""><img src=""stimuli/white_square.png"" style=""width: 200px;height: 200px;""></button>","null","red","yellow","[""red"",""yellow"",""high nameability""]","left-right","[""red"",""yellow"",""high nameability""]","1","high nameability","5","left","iti",""
"html-button-response","41","890394","0.0-32.0","CAN_123","123","","","","","","694","","0","neonyellow","pink","[""neonyellow"",""pink"",""low nameability""]","right-left","[""pink"",""neonyellow""]","1","low nameability","6","right","trigger",""
"html-button-response","42","891211","0.0-33.0-0.0","CAN_123","123","","","","","","808","<button class=""jspsych-btn""><img src=""stimuli/neonyellow.png"" style=""width: 200px;height: 200px;""></button>","1","neonyellow","pink","[""neonyellow"",""pink"",""low nameability""]","right-left","[""pink"",""neonyellow""]","1","low nameability","6","right","response","1"
"html-audio-button-response","43","891413","0.0-33.0-1.0","CAN_123","123","","","","","","null","stimuli/bleep.m4a","null","neonyellow","pink","[""neonyellow"",""pink"",""low nameability""]","right-left","[""pink"",""neonyellow""]","1","low nameability","6","right","audio_feedback","1"
"html-button-response","44","891927","0.0-34.0","CAN_123","123","","","","","","null","<button class=""jspsych-btn""><img src=""stimuli/white_square.png"" style=""width: 200px;height: 200px;""></button>","null","neonyellow","pink","[""neonyellow"",""pink"",""low nameability""]","right-left","[""pink"",""neonyellow""]","1","low nameability","6","right","iti",""
"html-button-response","45","892672","0.0-35.0","CAN_123","123","","","","","","729","","0","neonyellow","darkgreenblue","[""neonyellow"",""darkgreenblue"",""low nameability""]","left-right","[""neonyellow"",""darkgreenblue"",""low nameability""]","1","low nameability","7","left","trigger",""
"html-button-response","46","893540","0.0-36.0-0.0","CAN_123","123","","","","","","859","<button class=""jspsych-btn""><img src=""stimuli/neonyellow.png"" style=""width: 200px;height: 200px;""></button>","0","neonyellow","darkgreenblue","[""neonyellow"",""darkgreenblue"",""low nameability""]","left-right","[""neonyellow"",""darkgreenblue"",""low nameability""]","1","low nameability","7","left","response","1"
"html-audio-button-response","47","893751","0.0-36.0-1.0","CAN_123","123","","","","","","null","stimuli/bleep.m4a","null","neonyellow","darkgreenblue","[""neonyellow"",""darkgreenblue"",""low nameability""]","left-right","[""neonyellow"",""darkgreenblue"",""low nameability""]","1","low nameability","7","left","audio_feedback","1"
"html-button-response","48","894278","0.0-37.0","CAN_123","123","","","","","","null","<button class=""jspsych-btn""><img src=""stimuli/white_square.png"" style=""width: 200px;height: 200px;""></button>","null","neonyellow","darkgreenblue","[""neonyellow"",""darkgreenblue"",""low nameability""]","left-right","[""neonyellow"",""darkgreenblue"",""low nameability""]","1","low nameability","7","left","iti",""
"html-button-response","49","894971","0.0-38.0","CAN_123","123","","","","","","677","","0","turquoise","mustard","[""turquoise"",""mustard"",""low nameability""]","left-right","[""turquoise"",""mustard"",""low nameability""]","1","low nameability","8","left","trigger",""
"html-button-response","50","895753","0.0-39.0-0.0","CAN_123","123","","","","","","773","<button class=""jspsych-btn""><img src=""stimuli/turquoise.png"" style=""width: 200px;height: 200px;""></button>","0","turquoise","mustard","[""turquoise"",""mustard"",""low nameability""]","left-right","[""turquoise"",""mustard"",""low nameability""]","1","low nameability","8","left","response","1"
"html-audio-button-response","51","895958","0.0-39.0-1.0","CAN_123","123","","","","","","null","stimuli/bleep.m4a","null","turquoise","mustard","[""turquoise"",""mustard"",""low nameability""]","left-right","[""turquoise"",""mustard"",""low nameability""]","1","low nameability","8","left","audio_feedback","1"
"html-button-response","52","896481","0.0-40.0","CAN_123","123","","","","","","null","<button class=""jspsych-btn""><img src=""stimuli/white_square.png"" style=""width: 200px;height: 200px;""></button>","null","turquoise","mustard","[""turquoise"",""mustard"",""low nameability""]","left-right","[""turquoise"",""mustard"",""low nameability""]","1","low nameability","8","left","iti",""
"html-button-response","53","897089","0.0-41.0","CAN_123","123","","","","","","589","","0","darkgreenblue","pink","[""darkgreenblue"",""pink"",""low nameability""]","left-right","[""darkgreenblue"",""pink"",""low nameability""]","1","low nameability","9","left","trigger",""
"html-button-response","54","897943","0.0-42.0-0.0","CAN_123","123","","","","","","844","<button class=""jspsych-btn""><img src=""stimuli/darkgreenblue.png"" style=""width: 200px;height: 200px;""></button>","0","darkgreenblue","pink","[""darkgreenblue"",""pink"",""low nameability""]","left-right","[""darkgreenblue"",""pink"",""low nameability""]","1","low nameability","9","left","response","1"
"html-audio-button-response","55","898147","0.0-42.0-1.0","CAN_123","123","","","","","","null","stimuli/bleep.m4a","null","darkgreenblue","pink","[""darkgreenblue"",""pink"",""low nameability""]","left-right","[""darkgreenblue"",""pink"",""low nameability""]","1","low nameability","9","left","audio_feedback","1"
"html-button-response","56","898666","0.0-43.0","CAN_123","123","","","","","","null","<button class=""jspsych-btn""><img src=""stimuli/white_square.png"" style=""width: 200px;height: 200px;""></button>","null","darkgreenblue","pink","[""darkgreenblue"",""pink"",""low nameability""]","left-right","[""darkgreenblue"",""pink"",""low nameability""]","1","low nameability","9","left","iti",""
"html-button-response","57","899432","0.0-44.0","CAN_123","123","","","","","","752","","0","orange","blue","[""orange"",""blue"",""high nameability""]","left-right","[""orange"",""blue"",""high nameability""]","1","high nameability","10","left","trigger",""
"html-button-response","58","900120","0.0-45.0-0.0","CAN_123","123","","","","","","680","<button class=""jspsych-btn""><img src=""stimuli/orange.png"" style=""width: 200px;height: 200px;""></button>","0","orange","blue","[""orange"",""blue"",""high nameability""]","left-right","[""orange"",""blue"",""high nameability""]","1","high nameability","10","left","response","1"
"html-audio-button-response","59","900326","0.0-45.0-1.0","CAN_123","123","","","","","","null","stimuli/bleep.m4a","null","orange","blue","[""orange"",""blue"",""high nameability""]","left-right","[""orange"",""blue"",""high nameability""]","1","high nameability","10","left","audio_feedback","1"
"html-button-response","60","900843","0.0-46.0","CAN_123","123","","","","","","null","<button class=""jspsych-btn""><img src=""stimuli/white_square.png"" style=""width: 200px;height: 200px;""></button>","null","orange","blue","[""orange"",""blue"",""high nameability""]","left-right","[""orange"",""blue"",""high nameability""]","1","high nameability","10","left","iti",""
"pavlovia","61","900919","0.0-47.0","CAN_123","123","","","","","","","","","","","","","","","","","","",""
"pavlovia","62","900936","0.0-48.0","CAN_123","123","","","","","","","","","","","","","","","","","","",""
"html-audio-button-response","63","902960","0.0-49.0","CAN_123","123","","","","","","2112","stimuli/tada.m4a","0","","","","","","","","","","",""
"html-button-response","64","904025","0.0-50.0","CAN_123","123","","","","","","1057","","0","","","","","","","","","","",""
"html-button-response","65","904801","0.0-51.0","CAN_123","123","","","","","","770","","0","darkgreenblue","lightred","[""darkgreenblue"",""lightred"",""low nameability""]","left-right","[""darkgreenblue"",""lightred"",""low nameability""]","2","low nameability","11","left","trigger",""
"html-button-response","66","905615","0.0-52.0-0.0","CAN_123","123","","","","","","806","<button class=""jspsych-btn""><img src=""stimuli/darkgreenblue.png"" style=""width: 200px;height: 200px;""></button>","0","darkgreenblue","lightred","[""darkgreenblue"",""lightred"",""low nameability""]","left-right","[""darkgreenblue"",""lightred"",""low nameability""]","2","low nameability","11","left","response","1"
"html-audio-button-response","67","905814","0.0-52.0-1.0","CAN_123","123","","","","","","null","stimuli/bleep.m4a","null","darkgreenblue","lightred","[""darkgreenblue"",""lightred"",""low nameability""]","left-right","[""darkgreenblue"",""lightred"",""low nameability""]","2","low nameability","11","left","audio_feedback","1"
"html-button-response","68","906330","0.0-53.0","CAN_123","123","","","","","","null","<button class=""jspsych-btn""><img src=""stimuli/white_square.png"" style=""width: 200px;height: 200px;""></button>","null","darkgreenblue","lightred","[""darkgreenblue"",""lightred"",""low nameability""]","left-right","[""darkgreenblue"",""lightred"",""low nameability""]","2","low nameability","11","left","iti",""
"html-button-response","69","906939","0.0-54.0","CAN_123","123","","","","","","591","","0","purple","brown","[""purple"",""brown"",""high nameability""]","right-left","[""brown"",""purple""]","2","high nameability","12","right","trigger",""
"html-button-response","70","907640","0.0-55.0-0.0","CAN_123","123","","","","","","696","<button class=""jspsych-btn""><img src=""stimuli/purple.png"" style=""width: 200px;height: 200px;""></button>","1","purple","brown","[""purple"",""brown"",""high nameability""]","right-left","[""brown"",""purple""]","2","high nameability","12","right","response","1"
"html-audio-button-response","71","907847","0.0-55.0-1.0","CAN_123","123","","","","","","null","stimuli/bleep.m4a","null","purple","brown","[""purple"",""brown"",""high nameability""]","right-left","[""brown"",""purple""]","2","high nameability","12","right","audio_feedback","1"
"html-button-response","72","908371","0.0-56.0","CAN_123","123","","","","","","null","<button class=""jspsych-btn""><img src=""stimuli/white_square.png"" style=""width: 200px;height: 200px;""></button>","null","purple","brown","[""purple"",""brown"",""high nameability""]","right-left","[""brown"",""purple""]","2","high nameability","12","right","iti",""
"html-button-response","73","909165","0.0-57.0","CAN_123","123","","","","","","772","","0","purple","blue","[""purple"",""blue"",""high nameability""]","right-left","[""blue"",""purple""]","2","high nameability","13","right","trigger",""
"html-button-response","74","909960","0.0-58.0-0.0","CAN_123","123","","","","","","787","<button class=""jspsych-btn""><img src=""stimuli/purple.png"" style=""width: 200px;height: 200px;""></button>","1","purple","blue","[""purple"",""blue"",""high nameability""]","right-left","[""blue"",""purple""]","2","high nameability","13","right","response","1"
"html-audio-button-response","75","910165","0.0-58.0-1.0","CAN_123","123","","","","","","null","stimuli/bleep.m4a","null","purple","blue","[""purple"",""blue"",""high nameability""]","right-left","[""blue"",""purple""]","2","high nameability","13","right","audio_feedback","1"
"html-button-response","76","910687","0.0-59.0","CAN_123","123","","","","","","null","<button class=""jspsych-btn""><img src=""stimuli/white_square.png"" style=""width: 200px;height: 200px;""></button>","null","purple","blue","[""purple"",""blue"",""high nameability""]","right-left","[""blue"",""purple""]","2","high nameability","13","right","iti",""
"html-button-response","77","911380","0.0-60.0","CAN_123","123","","","","","","676","","0","pink","turquoise","[""pink"",""turquoise"",""low nameability""]","left-right","[""pink"",""turquoise"",""low nameability""]","2","low nameability","14","left","trigger",""
"html-button-response","78","912245","0.0-61.0-0.0","CAN_123","123","","","","","","858","<button class=""jspsych-btn""><img src=""stimuli/pink.png"" style=""width: 200px;height: 200px;""></button>","0","pink","turquoise","[""pink"",""turquoise"",""low nameability""]","left-right","[""pink"",""turquoise"",""low nameability""]","2","low nameability","14","left","response","1"
"html-audio-button-response","79","912449","0.0-61.0-1.0","CAN_123","123","","","","","","null","stimuli/bleep.m4a","null","pink","turquoise","[""pink"",""turquoise"",""low nameability""]","left-right","[""pink"",""turquoise"",""low nameability""]","2","low nameability","14","left","audio_feedback","1"
"html-button-response","80","912965","0.0-62.0","CAN_123","123","","","","","","null","<button class=""jspsych-btn""><img src=""stimuli/white_square.png"" style=""width: 200px;height: 200px;""></button>","null","pink","turquoise","[""pink"",""turquoise"",""low nameability""]","left-right","[""pink"",""turquoise"",""low nameability""]","2","low nameability","14","left","iti",""
"html-button-response","81","913748","0.0-63.0","CAN_123","123","","","","","","764","","0","turquoise","pink","[""turquoise"",""pink"",""low nameability""]","left-right","[""turquoise"",""pink"",""low nameability""]","2","low nameability","15","left","trigger",""
"html-button-response","82","914468","0.0-64.0-0.0","CAN_123","123","","","","","","713","<button class=""jspsych-btn""><img src=""stimuli/turquoise.png"" style=""width: 200px;height: 200px;""></button>","0","turquoise","pink","[""turquoise"",""pink"",""low nameability""]","left-right","[""turquoise"",""pink"",""low nameability""]","2","low nameability","15","left","response","1"
"html-audio-button-response","83","914669","0.0-64.0-1.0","CAN_123","123","","","","","","null","stimuli/bleep.m4a","null","turquoise","pink","[""turquoise"",""pink"",""low nameability""]","left-right","[""turquoise"",""pink"",""low nameability""]","2","low nameability","15","left","audio_feedback","1"
"html-button-response","84","915192","0.0-65.0","CAN_123","123","","","","","","null","<button class=""jspsych-btn""><img src=""stimuli/white_square.png"" style=""width: 200px;height: 200px;""></button>","null","turquoise","pink","[""turquoise"",""pink"",""low nameability""]","left-right","[""turquoise"",""pink"",""low nameability""]","2","low nameability","15","left","iti",""
"html-button-response","85","915972","0.0-66.0","CAN_123","123","","","","","","765","","0","neonyellow","mustard","[""neonyellow"",""mustard"",""low nameability""]","left-right","[""neonyellow"",""mustard"",""low nameability""]","2","low nameability","16","left","trigger",""
"html-button-response","86","916947","0.0-67.0-0.0","CAN_123","123","","","","","","967","<button class=""jspsych-btn""><img src=""stimuli/neonyellow.png"" style=""width: 200px;height: 200px;""></button>","0","neonyellow","mustard","[""neonyellow"",""mustard"",""low nameability""]","left-right","[""neonyellow"",""mustard"",""low nameability""]","2","low nameability","16","left","response","1"
"html-audio-button-response","87","917153","0.0-67.0-1.0","CAN_123","123","","","","","","null","stimuli/bleep.m4a","null","neonyellow","mustard","[""neonyellow"",""mustard"",""low nameability""]","left-right","[""neonyellow"",""mustard"",""low nameability""]","2","low nameability","16","left","audio_feedback","1"
"html-button-response","88","917674","0.0-68.0","CAN_123","123","","","","","","null","<button class=""jspsych-btn""><img src=""stimuli/white_square.png"" style=""width: 200px;height: 200px;""></button>","null","neonyellow","mustard","[""neonyellow"",""mustard"",""low nameability""]","left-right","[""neonyellow"",""mustard"",""low nameability""]","2","low nameability","16","left","iti",""
"html-button-response","89","918278","0.0-69.0","CAN_123","123","","","","","","585","","0","darkgreenblue","mustard","[""darkgreenblue"",""mustard"",""low nameability""]","left-right","[""darkgreenblue"",""mustard"",""low nameability""]","2","low nameability","17","left","trigger",""
"html-button-response","90","919124","0.0-70.0-0.0","CAN_123","123","","","","","","837","<button class=""jspsych-btn""><img src=""stimuli/darkgreenblue.png"" style=""width: 200px;height: 200px;""></button>","0","darkgreenblue","mustard","[""darkgreenblue"",""mustard"",""low nameability""]","left-right","[""darkgreenblue"",""mustard"",""low nameability""]","2","low nameability","17","left","response","1"
"html-audio-button-response","91","919330","0.0-70.0-1.0","CAN_123","123","","","","","","null","stimuli/bleep.m4a","null","darkgreenblue","mustard","[""darkgreenblue"",""mustard"",""low nameability""]","left-right","[""darkgreenblue"",""mustard"",""low nameability""]","2","low nameability","17","left","audio_feedback","1"
"html-button-response","92","919851","0.0-71.0","CAN_123","123","","","","","","null","<button class=""jspsych-btn""><img src=""stimuli/white_square.png"" style=""width: 200px;height: 200px;""></button>","null","darkgreenblue","mustard","[""darkgreenblue"",""mustard"",""low nameability""]","left-right","[""darkgreenblue"",""mustard"",""low nameability""]","2","low nameability","17","left","iti",""
"html-button-response","93","920505","0.0-72.0","CAN_123","123","","","","","","631","","0","blue","yellow","[""blue"",""yellow"",""high nameability""]","right-left","[""yellow"",""blue""]","2","high nameability","18","right","trigger",""
"html-button-response","94","921264","0.0-73.0-0.0","CAN_123","123","","","","","","750","<button class=""jspsych-btn""><img src=""stimuli/blue.png"" style=""width: 200px;height: 200px;""></button>","1","blue","yellow","[""blue"",""yellow"",""high nameability""]","right-left","[""yellow"",""blue""]","2","high nameability","18","right","response","1"
"html-audio-button-response","95","921471","0.0-73.0-1.0","CAN_123","123","","","","","","null","stimuli/bleep.m4a","null","blue","yellow","[""blue"",""yellow"",""high nameability""]","right-left","[""yellow"",""blue""]","2","high nameability","18","right","audio_feedback","1"
"html-button-response","96","921993","0.0-74.0","CAN_123","123","","","","","","null","<button class=""jspsych-btn""><img src=""stimuli/white_square.png"" style=""width: 200px;height: 200px;""></button>","null","blue","yellow","[""blue"",""yellow"",""high nameability""]","right-left","[""yellow"",""blue""]","2","high nameability","18","right","iti",""
"html-button-response","97","922609","0.0-75.0","CAN_123","123","","","","","","597","","0","yellow","purple","[""yellow"",""purple"",""high nameability""]","right-left","[""purple"",""yellow""]","2","high nameability","19","right","trigger",""
"html-button-response","98","923404","0.0-76.0-0.0","CAN_123","123","","","","","","788","<button class=""jspsych-btn""><img src=""stimuli/yellow.png"" style=""width: 200px;height: 200px;""></button>","1","yellow","purple","[""yellow"",""purple"",""high nameability""]","right-left","[""purple"",""yellow""]","2","high nameability","19","right","response","1"
"html-audio-button-response","99","923610","0.0-76.0-1.0","CAN_123","123","","","","","","null","stimuli/bleep.m4a","null","yellow","purple","[""yellow"",""purple"",""high nameability""]","right-left","[""purple"",""yellow""]","2","high nameability","19","right","audio_feedback","1"
"html-button-response","100","924131","0.0-77.0","CAN_123","123","","","","","","null","<button class=""jspsych-btn""><img src=""stimuli/white_square.png"" style=""width: 200px;height: 200px;""></button>","null","yellow","purple","[""yellow"",""purple"",""high nameability""]","right-left","[""purple"",""yellow""]","2","high nameability","19","right","iti",""
"html-button-response","101","924752","0.0-78.0","CAN_123","123","","","","","","604","","0","orange","brown","[""orange"",""brown"",""high nameability""]","left-right","[""orange"",""brown"",""high nameability""]","2","high nameability","20","left","trigger",""
"html-button-response","102","925451","0.0-79.0-0.0","CAN_123","123","","","","","","690","<button class=""jspsych-btn""><img src=""stimuli/orange.png"" style=""width: 200px;height: 200px;""></button>","0","orange","brown","[""orange"",""brown"",""high nameability""]","left-right","[""orange"",""brown"",""high nameability""]","2","high nameability","20","left","response","1"
"html-audio-button-response","103","925654","0.0-79.0-1.0","CAN_123","123","","","","","","null","stimuli/bleep.m4a","null","orange","brown","[""orange"",""brown"",""high nameability""]","left-right","[""orange"",""brown"",""high nameability""]","2","high nameability","20","left","audio_feedback","1"
"html-button-response","104","926168","0.0-80.0","CAN_123","123","","","","","","null","<button class=""jspsych-btn""><img src=""stimuli/white_square.png"" style=""width: 200px;height: 200px;""></button>","null","orange","brown","[""orange"",""brown"",""high nameability""]","left-right","[""orange"",""brown"",""high nameability""]","2","high nameability","20","left","iti",""
"pavlovia","105","926221","0.0-81.0","CAN_123","123","","","","","","","","","","","","","","","","","","",""
"pavlovia","106","926229","0.0-82.0","CAN_123","123","","","","","","","","","","","","","","","","","","",""
"html-audio-button-response","107","927879","0.0-83.0","CAN_123","123","","","","","","1704","stimuli/tada.m4a","0","","","","","","","","","","",""
"html-button-response","108","928822","0.0-84.0","CAN_123","123","","","","","","939","","0","","","","","","","","","","",""
"html-button-response","109","929365","0.0-85.0","CAN_123","123","","","","","","534","","0","mustard","turquoise","[""mustard"",""turquoise"",""low nameability""]","left-right","[""mustard"",""turquoise"",""low nameability""]","3","low nameability","21","left","trigger",""
"html-button-response","110","930135","0.0-86.0-0.0","CAN_123","123","","","","","","763","<button class=""jspsych-btn""><img src=""stimuli/mustard.png"" style=""width: 200px;height: 200px;""></button>","0","mustard","turquoise","[""mustard"",""turquoise"",""low nameability""]","left-right","[""mustard"",""turquoise"",""low nameability""]","3","low nameability","21","left","response","1"
"html-audio-button-response","111","930341","0.0-86.0-1.0","CAN_123","123","","","","","","null","stimuli/bleep.m4a","null","mustard","turquoise","[""mustard"",""turquoise"",""low nameability""]","left-right","[""mustard"",""turquoise"",""low nameability""]","3","low nameability","21","left","audio_feedback","1"
"html-button-response","112","930860","0.0-87.0","CAN_123","123","","","","","","null","<button class=""jspsych-btn""><img src=""stimuli/white_square.png"" style=""width: 200px;height: 200px;""></button>","null","mustard","turquoise","[""mustard"",""turquoise"",""low nameability""]","left-right","[""mustard"",""turquoise"",""low nameability""]","3","low nameability","21","left","iti",""
"html-button-response","113","931747","0.0-88.0","CAN_123","123","","","","","","866","","0","pink","darkgreenblue","[""pink"",""darkgreenblue"",""low nameability""]","right-left","[""darkgreenblue"",""pink""]","3","low nameability","22","right","trigger",""
"html-button-response","114","932519","0.0-89.0-0.0","CAN_123","123","","","","","","763","<button class=""jspsych-btn""><img src=""stimuli/pink.png"" style=""width: 200px;height: 200px;""></button>","1","pink","darkgreenblue","[""pink"",""darkgreenblue"",""low nameability""]","right-left","[""darkgreenblue"",""pink""]","3","low nameability","22","right","response","1"
"html-audio-button-response","115","932721","0.0-89.0-1.0","CAN_123","123","","","","","","null","stimuli/bleep.m4a","null","pink","darkgreenblue","[""pink"",""darkgreenblue"",""low nameability""]","right-left","[""darkgreenblue"",""pink""]","3","low nameability","22","right","audio_feedback","1"
"html-button-response","116","933240","0.0-90.0","CAN_123","123","","","","","","null","<button class=""jspsych-btn""><img src=""stimuli/white_square.png"" style=""width: 200px;height: 200px;""></button>","null","pink","darkgreenblue","[""pink"",""darkgreenblue"",""low nameability""]","right-left","[""darkgreenblue"",""pink""]","3","low nameability","22","right","iti",""
"html-button-response","117","933997","0.0-91.0","CAN_123","123","","","","","","741","","0","mustard","pink","[""mustard"",""pink"",""low nameability""]","right-left","[""pink"",""mustard""]","3","low nameability","23","right","trigger",""
"html-button-response","118","934694","0.0-92.0-0.0","CAN_123","123","","","","","","690","<button class=""jspsych-btn""><img src=""stimuli/mustard.png"" style=""width: 200px;height: 200px;""></button>","1","mustard","pink","[""mustard"",""pink"",""low nameability""]","right-left","[""pink"",""mustard""]","3","low nameability","23","right","response","1"
"html-audio-button-response","119","934898","0.0-92.0-1.0","CAN_123","123","","","","","","null","stimuli/bleep.m4a","null","mustard","pink","[""mustard"",""pink"",""low nameability""]","right-left","[""pink"",""mustard""]","3","low nameability","23","right","audio_feedback","1"
"html-button-response","120","935412","0.0-93.0","CAN_123","123","","","","","","null","<button class=""jspsych-btn""><img src=""stimuli/white_square.png"" style=""width: 200px;height: 200px;""></button>","null","mustard","pink","[""mustard"",""pink"",""low nameability""]","right-left","[""pink"",""mustard""]","3","low nameability","23","right","iti",""
"html-button-response","121","936016","0.0-94.0","CAN_123","123","","","","","","586","","0","lightred","neonyellow","[""lightred"",""neonyellow"",""low nameability""]","left-right","[""lightred"",""neonyellow"",""low nameability""]","3","low nameability","24","left","trigger",""
"html-button-response","122","936826","0.0-95.0-0.0","CAN_123","123","","","","","","802","<button class=""jspsych-btn""><img src=""stimuli/lightred.png"" style=""width: 200px;height: 200px;""></button>","0","lightred","neonyellow","[""lightred"",""neonyellow"",""low nameability""]","left-right","[""lightred"",""neonyellow"",""low nameability""]","3","low nameability","24","left","response","1"
"html-audio-button-response","123","937035","0.0-95.0-1.0","CAN_123","123","","","","","","null","stimuli/bleep.m4a","null","lightred","neonyellow","[""lightred"",""neonyellow"",""low nameability""]","left-right","[""lightred"",""neonyellow"",""low nameability""]","3","low nameability","24","left","audio_feedback","1"
"html-button-response","124","937554","0.0-96.0","CAN_123","123","","","","","","null","<button class=""jspsych-btn""><img src=""stimuli/white_square.png"" style=""width: 200px;height: 200px;""></button>","null","lightred","neonyellow","[""lightred"",""neonyellow"",""low nameability""]","left-right","[""lightred"",""neonyellow"",""low nameability""]","3","low nameability","24","left","iti",""
"html-button-response","125","938121","0.0-97.0","CAN_123","123","","","","","","545","","0","purple","red","[""purple"",""red"",""high nameability""]","left-right","[""purple"",""red"",""high nameability""]","3","high nameability","25","left","trigger",""
"html-button-response","126","938834","0.0-98.0-0.0","CAN_123","123","","","","","","706","<button class=""jspsych-btn""><img src=""stimuli/purple.png"" style=""width: 200px;height: 200px;""></button>","0","purple","red","[""purple"",""red"",""high nameability""]","left-right","[""purple"",""red"",""high nameability""]","3","high nameability","25","left","response","1"
"html-audio-button-response","127","939041","0.0-98.0-1.0","CAN_123","123","","","","","","null","stimuli/bleep.m4a","null","purple","red","[""purple"",""red"",""high nameability""]","left-right","[""purple"",""red"",""high nameability""]","3","high nameability","25","left","audio_feedback","1"
"html-button-response","128","939560","0.0-99.0","CAN_123","123","","","","","","null","<button class=""jspsych-btn""><img src=""stimuli/white_square.png"" style=""width: 200px;height: 200px;""></button>","null","purple","red","[""purple"",""red"",""high nameability""]","left-right","[""purple"",""red"",""high nameability""]","3","high nameability","25","left","iti",""
"html-button-response","129","940180","0.0-100.0","CAN_123","123","","","","","","604","","0","red","orange","[""red"",""orange"",""high nameability""]","right-left","[""orange"",""red""]","3","high nameability","26","right","trigger",""
"html-button-response","130","941048","0.0-101.0-0.0","CAN_123","123","","","","","","857","<button class=""jspsych-btn""><img src=""stimuli/red.png"" style=""width: 200px;height: 200px;""></button>","1","red","orange","[""red"",""orange"",""high nameability""]","right-left","[""orange"",""red""]","3","high nameability","26","right","response","1"
"html-audio-button-response","131","941253","0.0-101.0-1.0","CAN_123","123","","","","","","null","stimuli/bleep.m4a","null","red","orange","[""red"",""orange"",""high nameability""]","right-left","[""orange"",""red""]","3","high nameability","26","right","audio_feedback","1"
"html-button-response","132","941770","0.0-102.0","CAN_123","123","","","","","","null","<button class=""jspsych-btn""><img src=""stimuli/white_square.png"" style=""width: 200px;height: 200px;""></button>","null","red","orange","[""red"",""orange"",""high nameability""]","right-left","[""orange"",""red""]","3","high nameability","26","right","iti",""
"html-button-response","133","942405","0.0-103.0","CAN_123","123","","","","","","618","","0","pink","lightred","[""pink"",""lightred"",""low nameability""]","left-right","[""pink"",""lightred"",""low nameability""]","3","low nameability","27","left","trigger",""
"html-button-response","134","943288","0.0-104.0-0.0","CAN_123","123","","","","","","875","<button class=""jspsych-btn""><img src=""stimuli/pink.png"" style=""width: 200px;height: 200px;""></button>","0","pink","lightred","[""pink"",""lightred"",""low nameability""]","left-right","[""pink"",""lightred"",""low nameability""]","3","low nameability","27","left","response","1"
"html-audio-button-response","135","943492","0.0-104.0-1.0","CAN_123","123","","","","","","null","stimuli/bleep.m4a","null","pink","lightred","[""pink"",""lightred"",""low nameability""]","left-right","[""pink"",""lightred"",""low nameability""]","3","low nameability","27","left","audio_feedback","1"
"html-button-response","136","944009","0.0-105.0","CAN_123","123","","","","","","null","<button class=""jspsych-btn""><img src=""stimuli/white_square.png"" style=""width: 200px;height: 200px;""></button>","null","pink","lightred","[""pink"",""lightred"",""low nameability""]","left-right","[""pink"",""lightred"",""low nameability""]","3","low nameability","27","left","iti",""
"html-button-response","137","944695","0.0-106.0","CAN_123","123","","","","","","666","","0","red","purple","[""red"",""purple"",""high nameability""]","left-right","[""red"",""purple"",""high nameability""]","3","high nameability","28","left","trigger",""
"html-button-response","138","945418","0.0-107.0-0.0","CAN_123","123","","","","","","715","<button class=""jspsych-btn""><img src=""stimuli/red.png"" style=""width: 200px;height: 200px;""></button>","0","red","purple","[""red"",""purple"",""high nameability""]","left-right","[""red"",""purple"",""high nameability""]","3","high nameability","28","left","response","1"
"html-audio-button-response","139","945622","0.0-107.0-1.0","CAN_123","123","","","","","","null","stimuli/bleep.m4a","null","red","purple","[""red"",""purple"",""high nameability""]","left-right","[""red"",""purple"",""high nameability""]","3","high nameability","28","left","audio_feedback","1"
"html-button-response","140","946136","0.0-108.0","CAN_123","123","","","","","","null","<button class=""jspsych-btn""><img src=""stimuli/white_square.png"" style=""width: 200px;height: 200px;""></button>","null","red","purple","[""red"",""purple"",""high nameability""]","left-right","[""red"",""purple"",""high nameability""]","3","high nameability","28","left","iti",""
"html-button-response","141","946785","0.0-109.0","CAN_123","123","","","","","","633","","0","pink","mustard","[""pink"",""mustard"",""low nameability""]","right-left","[""mustard"",""pink""]","3","low nameability","29","right","trigger",""
"html-button-response","142","947509","0.0-110.0-0.0","CAN_123","123","","","","","","715","<button class=""jspsych-btn""><img src=""stimuli/pink.png"" style=""width: 200px;height: 200px;""></button>","1","pink","mustard","[""pink"",""mustard"",""low nameability""]","right-left","[""mustard"",""pink""]","3","low nameability","29","right","response","1"
"html-audio-button-response","143","947714","0.0-110.0-1.0","CAN_123","123","","","","","","null","stimuli/bleep.m4a","null","pink","mustard","[""pink"",""mustard"",""low nameability""]","right-left","[""mustard"",""pink""]","3","low nameability","29","right","audio_feedback","1"
"html-button-response","144","948229","0.0-111.0","CAN_123","123","","","","","","null","<button class=""jspsych-btn""><img src=""stimuli/white_square.png"" style=""width: 200px;height: 200px;""></button>","null","pink","mustard","[""pink"",""mustard"",""low nameability""]","right-left","[""mustard"",""pink""]","3","low nameability","29","right","iti",""
"html-button-response","145","948768","0.0-112.0","CAN_123","123","","","","","","523","","0","red","blue","[""red"",""blue"",""high nameability""]","left-right","[""red"",""blue"",""high nameability""]","3","high nameability","30","left","trigger",""
"html-button-response","146","949411","0.0-113.0-0.0","CAN_123","123","","","","","","637","<button class=""jspsych-btn""><img src=""stimuli/red.png"" style=""width: 200px;height: 200px;""></button>","0","red","blue","[""red"",""blue"",""high nameability""]","left-right","[""red"",""blue"",""high nameability""]","3","high nameability","30","left","response","1"
"html-audio-button-response","147","949613","0.0-113.0-1.0","CAN_123","123","","","","","","null","stimuli/bleep.m4a","null","red","blue","[""red"",""blue"",""high nameability""]","left-right","[""red"",""blue"",""high nameability""]","3","high nameability","30","left","audio_feedback","1"
"html-button-response","148","950134","0.0-114.0","CAN_123","123","","","","","","null","<button class=""jspsych-btn""><img src=""stimuli/white_square.png"" style=""width: 200px;height: 200px;""></button>","null","red","blue","[""red"",""blue"",""high nameability""]","left-right","[""red"",""blue"",""high nameability""]","3","high nameability","30","left","iti",""
"pavlovia","149","950207","0.0-115.0","CAN_123","123","","","","","","","","","","","","","","","","","","",""
"pavlovia","150","950213","0.0-116.0","CAN_123","123","","","","","","","","","","","","","","","","","","",""
"html-audio-button-response","151","951465","0.0-117.0","CAN_123","123","","","","","","1328","stimuli/tada.m4a","0","","","","","","","","","","",""
"html-button-response","152","952174","0.0-118.0","CAN_123","123","","","","","","702","","0","","","","","","","","","","",""
"html-button-response","153","952739","0.0-119.0","CAN_123","123","","","","","","558","","0","blue","brown","[""blue"",""brown"",""high nameability""]","right-left","[""brown"",""blue""]","4","high nameability","31","right","trigger",""
"html-button-response","154","953464","0.0-120.0-0.0","CAN_123","123","","","","","","717","<button class=""jspsych-btn""><img src=""stimuli/blue.png"" style=""width: 200px;height: 200px;""></button>","1","blue","brown","[""blue"",""brown"",""high nameability""]","right-left","[""brown"",""blue""]","4","high nameability","31","right","response","1"
"html-audio-button-response","155","953665","0.0-120.0-1.0","CAN_123","123","","","","","","null","stimuli/bleep.m4a","null","blue","brown","[""blue"",""brown"",""high nameability""]","right-left","[""brown"",""blue""]","4","high nameability","31","right","audio_feedback","1"
"html-button-response","156","954180","0.0-121.0","CAN_123","123","","","","","","null","<button class=""jspsych-btn""><img src=""stimuli/white_square.png"" style=""width: 200px;height: 200px;""></button>","null","blue","brown","[""blue"",""brown"",""high nameability""]","right-left","[""brown"",""blue""]","4","high nameability","31","right","iti",""
"html-button-response","157","954707","0.0-122.0","CAN_123","123","","","","","","521","","0","yellow","blue","[""yellow"",""blue"",""high nameability""]","left-right","[""yellow"",""blue"",""high nameability""]","4","high nameability","32","left","trigger",""
"html-button-response","158","955489","0.0-123.0-0.0","CAN_123","123","","","","","","774","<button class=""jspsych-btn""><img src=""stimuli/yellow.png"" style=""width: 200px;height: 200px;""></button>","0","yellow","blue","[""yellow"",""blue"",""high nameability""]","left-right","[""yellow"",""blue"",""high nameability""]","4","high nameability","32","left","response","1"
"html-audio-button-response","159","955693","0.0-123.0-1.0","CAN_123","123","","","","","","null","stimuli/bleep.m4a","null","yellow","blue","[""yellow"",""blue"",""high nameability""]","left-right","[""yellow"",""blue"",""high nameability""]","4","high nameability","32","left","audio_feedback","1"
"html-button-response","160","956211","0.0-124.0","CAN_123","123","","","","","","null","<button class=""jspsych-btn""><img src=""stimuli/white_square.png"" style=""width: 200px;height: 200px;""></button>","null","yellow","blue","[""yellow"",""blue"",""high nameability""]","left-right","[""yellow"",""blue"",""high nameability""]","4","high nameability","32","left","iti",""
"html-button-response","161","956837","0.0-125.0","CAN_123","123","","","","","","602","","0","turquoise","neonyellow","[""turquoise"",""neonyellow"",""low nameability""]","left-right","[""turquoise"",""neonyellow"",""low nameability""]","4","low nameability","33","left","trigger",""
"html-button-response","162","957595","0.0-126.0-0.0","CAN_123","123","","","","","","749","<button class=""jspsych-btn""><img src=""stimuli/turquoise.png"" style=""width: 200px;height: 200px;""></button>","0","turquoise","neonyellow","[""turquoise"",""neonyellow"",""low nameability""]","left-right","[""turquoise"",""neonyellow"",""low nameability""]","4","low nameability","33","left","response","1"
"html-audio-button-response","163","957798","0.0-126.0-1.0","CAN_123","123","","","","","","null","stimuli/bleep.m4a","null","turquoise","neonyellow","[""turquoise"",""neonyellow"",""low nameability""]","left-right","[""turquoise"",""neonyellow"",""low nameability""]","4","low nameability","33","left","audio_feedback","1"
"html-button-response","164","958314","0.0-127.0","CAN_123","123","","","","","","null","<button class=""jspsych-btn""><img src=""stimuli/white_square.png"" style=""width: 200px;height: 200px;""></button>","null","turquoise","neonyellow","[""turquoise"",""neonyellow"",""low nameability""]","left-right","[""turquoise"",""neonyellow"",""low nameability""]","4","low nameability","33","left","iti",""
"html-button-response","165","958888","0.0-128.0","CAN_123","123","","","","","","547","","0","lightred","pink","[""lightred"",""pink"",""low nameability""]","right-left","[""pink"",""lightred""]","4","low nameability","34","right","trigger",""
"html-button-response","166","959572","0.0-129.0-0.0","CAN_123","123","","","","","","676","<button class=""jspsych-btn""><img src=""stimuli/lightred.png"" style=""width: 200px;height: 200px;""></button>","1","lightred","pink","[""lightred"",""pink"",""low nameability""]","right-left","[""pink"",""lightred""]","4","low nameability","34","right","response","1"
"html-audio-button-response","167","959774","0.0-129.0-1.0","CAN_123","123","","","","","","null","stimuli/bleep.m4a","null","lightred","pink","[""lightred"",""pink"",""low nameability""]","right-left","[""pink"",""lightred""]","4","low nameability","34","right","audio_feedback","1"
"html-button-response","168","960299","0.0-130.0","CAN_123","123","","","","","","null","<button class=""jspsych-btn""><img src=""stimuli/white_square.png"" style=""width: 200px;height: 200px;""></button>","null","lightred","pink","[""lightred"",""pink"",""low nameability""]","right-left","[""pink"",""lightred""]","4","low nameability","34","right","iti",""
"html-button-response","169","960855","0.0-131.0","CAN_123","123","","","","","","538","","0","darkgreenblue","neonyellow","[""darkgreenblue"",""neonyellow"",""low nameability""]","left-right","[""darkgreenblue"",""neonyellow"",""low nameability""]","4","low nameability","35","left","trigger",""
"html-button-response","170","961554","0.0-132.0-0.0","CAN_123","123","","","","","","693","<button class=""jspsych-btn""><img src=""stimuli/darkgreenblue.png"" style=""width: 200px;height: 200px;""></button>","0","darkgreenblue","neonyellow","[""darkgreenblue"",""neonyellow"",""low nameability""]","left-right","[""darkgreenblue"",""neonyellow"",""low nameability""]","4","low nameability","35","left","response","1"
"html-audio-button-response","171","961761","0.0-132.0-1.0","CAN_123","123","","","","","","null","stimuli/bleep.m4a","null","darkgreenblue","neonyellow","[""darkgreenblue"",""neonyellow"",""low nameability""]","left-right","[""darkgreenblue"",""neonyellow"",""low nameability""]","4","low nameability","35","left","audio_feedback","1"
"html-button-response","172","962282","0.0-133.0","CAN_123","123","","","","","","null","<button class=""jspsych-btn""><img src=""stimuli/white_square.png"" style=""width: 200px;height: 200px;""></button>","null","darkgreenblue","neonyellow","[""darkgreenblue"",""neonyellow"",""low nameability""]","left-right","[""darkgreenblue"",""neonyellow"",""low nameability""]","4","low nameability","35","left","iti",""
"html-button-response","173","962817","0.0-134.0","CAN_123","123","","","","","","517","","0","neonyellow","lightred","[""neonyellow"",""lightred"",""low nameability""]","left-right","[""neonyellow"",""lightred"",""low nameability""]","4","low nameability","36","left","trigger",""
"html-button-response","174","963590","0.0-135.0-0.0","CAN_123","123","","","","","","765","<button class=""jspsych-btn""><img src=""stimuli/neonyellow.png"" style=""width: 200px;height: 200px;""></button>","0","neonyellow","lightred","[""neonyellow"",""lightred"",""low nameability""]","left-right","[""neonyellow"",""lightred"",""low nameability""]","4","low nameability","36","left","response","1"
"html-audio-button-response","175","963801","0.0-135.0-1.0","CAN_123","123","","","","","","null","stimuli/bleep.m4a","null","neonyellow","lightred","[""neonyellow"",""lightred"",""low nameability""]","left-right","[""neonyellow"",""lightred"",""low nameability""]","4","low nameability","36","left","audio_feedback","1"
"html-button-response","176","964317","0.0-136.0","CAN_123","123","","","","","","null","<button class=""jspsych-btn""><img src=""stimuli/white_square.png"" style=""width: 200px;height: 200px;""></button>","null","neonyellow","lightred","[""neonyellow"",""lightred"",""low nameability""]","left-right","[""neonyellow"",""lightred"",""low nameability""]","4","low nameability","36","left","iti",""
"html-button-response","177","964998","0.0-137.0","CAN_123","123","","","","","","640","","0","brown","orange","[""brown"",""orange"",""high nameability""]","right-left","[""orange"",""brown""]","4","high nameability","37","right","trigger",""
"html-button-response","178","965849","0.0-138.0-0.0","CAN_123","123","","","","","","840","<button class=""jspsych-btn""><img src=""stimuli/brown.png"" style=""width: 200px;height: 200px;""></button>","1","brown","orange","[""brown"",""orange"",""high nameability""]","right-left","[""orange"",""brown""]","4","high nameability","37","right","response","1"
"html-audio-button-response","179","966049","0.0-138.0-1.0","CAN_123","123","","","","","","null","stimuli/bleep.m4a","null","brown","orange","[""brown"",""orange"",""high nameability""]","right-left","[""orange"",""brown""]","4","high nameability","37","right","audio_feedback","1"
"html-button-response","180","966563","0.0-139.0","CAN_123","123","","","","","","null","<button class=""jspsych-btn""><img src=""stimuli/white_square.png"" style=""width: 200px;height: 200px;""></button>","null","brown","orange","[""brown"",""orange"",""high nameability""]","right-left","[""orange"",""brown""]","4","high nameability","37","right","iti",""
"html-button-response","181","967305","0.0-140.0","CAN_123","123","","","","","","724","","0","blue","purple","[""blue"",""purple"",""high nameability""]","right-left","[""purple"",""blue""]","4","high nameability","38","right","trigger",""
"html-button-response","182","967972","0.0-141.0-0.0","CAN_123","123","","","","","","652","<button class=""jspsych-btn""><img src=""stimuli/blue.png"" style=""width: 200px;height: 200px;""></button>","1","blue","purple","[""blue"",""purple"",""high nameability""]","right-left","[""purple"",""blue""]","4","high nameability","38","right","response","1"
"html-audio-button-response","183","968178","0.0-141.0-1.0","CAN_123","123","","","","","","null","stimuli/bleep.m4a","null","blue","purple","[""blue"",""purple"",""high nameability""]","right-left","[""purple"",""blue""]","4","high nameability","38","right","audio_feedback","1"
"html-button-response","184","968697","0.0-142.0","CAN_123","123","","","","","","null","<button class=""jspsych-btn""><img src=""stimuli/white_square.png"" style=""width: 200px;height: 200px;""></button>","null","blue","purple","[""blue"",""purple"",""high nameability""]","right-left","[""purple"",""blue""]","4","high nameability","38","right","iti",""
"html-button-response","185","969447","0.0-143.0","CAN_123","123","","","","","","728","","0","orange","yellow","[""orange"",""yellow"",""high nameability""]","left-right","[""orange"",""yellow"",""high nameability""]","4","high nameability","39","left","trigger",""
"html-button-response","186","970170","0.0-144.0-0.0","CAN_123","123","","","","","","714","<button class=""jspsych-btn""><img src=""stimuli/orange.png"" style=""width: 200px;height: 200px;""></button>","0","orange","yellow","[""orange"",""yellow"",""high nameability""]","left-right","[""orange"",""yellow"",""high nameability""]","4","high nameability","39","left","response","1"
"html-audio-button-response","187","970373","0.0-144.0-1.0","CAN_123","123","","","","","","null","stimuli/bleep.m4a","null","orange","yellow","[""orange"",""yellow"",""high nameability""]","left-right","[""orange"",""yellow"",""high nameability""]","4","high nameability","39","left","audio_feedback","1"
"html-button-response","188","970894","0.0-145.0","CAN_123","123","","","","","","null","<button class=""jspsych-btn""><img src=""stimuli/white_square.png"" style=""width: 200px;height: 200px;""></button>","null","orange","yellow","[""orange"",""yellow"",""high nameability""]","left-right","[""orange"",""yellow"",""high nameability""]","4","high nameability","39","left","iti",""
"html-button-response","189","971650","0.0-146.0","CAN_123","123","","","","","","737","","0","purple","orange","[""purple"",""orange"",""high nameability""]","left-right","[""purple"",""orange"",""high nameability""]","4","high nameability","40","left","trigger",""
"html-button-response","190","972467","0.0-147.0-0.0","CAN_123","123","","","","","","808","<button class=""jspsych-btn""><img src=""stimuli/purple.png"" style=""width: 200px;height: 200px;""></button>","0","purple","orange","[""purple"",""orange"",""high nameability""]","left-right","[""purple"",""orange"",""high nameability""]","4","high nameability","40","left","response","1"
"html-audio-button-response","191","972673","0.0-147.0-1.0","CAN_123","123","","","","","","null","stimuli/bleep.m4a","null","purple","orange","[""purple"",""orange"",""high nameability""]","left-right","[""purple"",""orange"",""high nameability""]","4","high nameability","40","left","audio_feedback","1"
"html-button-response","192","973191","0.0-148.0","CAN_123","123","","","","","","null","<button class=""jspsych-btn""><img src=""stimuli/white_square.png"" style=""width: 200px;height: 200px;""></button>","null","purple","orange","[""purple"",""orange"",""high nameability""]","left-right","[""purple"",""orange"",""high nameability""]","4","high nameability","40","left","iti",""
"pavlovia","193","973242","0.0-149.0","CAN_123","123","","","","","","","","","","","","","","","","","","",""
"pavlovia","194","973250","0.0-150.0","CAN_123","123","","","","","","","","","","","","","","","","","","",""
"html-audio-button-response","195","974560","0.0-151.0","CAN_123","123","","","","","","1363","stimuli/tada.m4a","0","","","","","","","","","","",""
"html-button-response","196","975473","0.0-152.0","CAN_123","123","","","","","","906","","0","","","","","","","","","","",""
"html-button-response","197","976063","0.0-153.0","CAN_123","123","","","","","","581","","0","orange","purple","[""orange"",""purple"",""high nameability""]","right-left","[""purple"",""orange""]","5","high nameability","41","right","trigger",""
"html-button-response","198","976875","0.0-154.0-0.0","CAN_123","123","","","","","","805","<button class=""jspsych-btn""><img src=""stimuli/orange.png"" style=""width: 200px;height: 200px;""></button>","1","orange","purple","[""orange"",""purple"",""high nameability""]","right-left","[""purple"",""orange""]","5","high nameability","41","right","response","1"
"html-audio-button-response","199","977081","0.0-154.0-1.0","CAN_123","123","","","","","","null","stimuli/bleep.m4a","null","orange","purple","[""orange"",""purple"",""high nameability""]","right-left","[""purple"",""orange""]","5","high nameability","41","right","audio_feedback","1"
"html-button-response","200","977594","0.0-155.0","CAN_123","123","","","","","","null","<button class=""jspsych-btn""><img src=""stimuli/white_square.png"" style=""width: 200px;height: 200px;""></button>","null","orange","purple","[""orange"",""purple"",""high nameability""]","right-left","[""purple"",""orange""]","5","high nameability","41","right","iti",""
"html-button-response","201","978291","0.0-156.0","CAN_123","123","","","","","","672","","0","neonyellow","turquoise","[""neonyellow"",""turquoise"",""low nameability""]","left-right","[""neonyellow"",""turquoise"",""low nameability""]","5","low nameability","42","left","trigger",""
"html-button-response","202","979265","0.0-157.0-0.0","CAN_123","123","","","","","","961","<button class=""jspsych-btn""><img src=""stimuli/neonyellow.png"" style=""width: 200px;height: 200px;""></button>","0","neonyellow","turquoise","[""neonyellow"",""turquoise"",""low nameability""]","left-right","[""neonyellow"",""turquoise"",""low nameability""]","5","low nameability","42","left","response","1"
"html-audio-button-response","203","979469","0.0-157.0-1.0","CAN_123","123","","","","","","null","stimuli/bleep.m4a","null","neonyellow","turquoise","[""neonyellow"",""turquoise"",""low nameability""]","left-right","[""neonyellow"",""turquoise"",""low nameability""]","5","low nameability","42","left","audio_feedback","1"
"html-button-response","204","979983","0.0-158.0","CAN_123","123","","","","","","null","<button class=""jspsych-btn""><img src=""stimuli/white_square.png"" style=""width: 200px;height: 200px;""></button>","null","neonyellow","turquoise","[""neonyellow"",""turquoise"",""low nameability""]","left-right","[""neonyellow"",""turquoise"",""low nameability""]","5","low nameability","42","left","iti",""
"html-button-response","205","980774","0.0-159.0","CAN_123","123","","","","","","772","","0","lightred","darkgreenblue","[""lightred"",""darkgreenblue"",""low nameability""]","right-left","[""darkgreenblue"",""lightred""]","5","low nameability","43","right","trigger",""
"html-button-response","206","981632","0.0-160.0-0.0","CAN_123","123","","","","","","850","<button class=""jspsych-btn""><img src=""stimuli/lightred.png"" style=""width: 200px;height: 200px;""></button>","1","lightred","darkgreenblue","[""lightred"",""darkgreenblue"",""low nameability""]","right-left","[""darkgreenblue"",""lightred""]","5","low nameability","43","right","response","1"
"html-audio-button-response","207","981838","0.0-160.0-1.0","CAN_123","123","","","","","","null","stimuli/bleep.m4a","null","lightred","darkgreenblue","[""lightred"",""darkgreenblue"",""low nameability""]","right-left","[""darkgreenblue"",""lightred""]","5","low nameability","43","right","audio_feedback","1"
"html-button-response","208","982354","0.0-161.0","CAN_123","123","","","","","","null","<button class=""jspsych-btn""><img src=""stimuli/white_square.png"" style=""width: 200px;height: 200px;""></button>","null","lightred","darkgreenblue","[""lightred"",""darkgreenblue"",""low nameability""]","right-left","[""darkgreenblue"",""lightred""]","5","low nameability","43","right","iti",""
"html-button-response","209","982881","0.0-162.0","CAN_123","123","","","","","","509","","0","brown","blue","[""brown"",""blue"",""high nameability""]","left-right","[""brown"",""blue"",""high nameability""]","5","high nameability","44","left","trigger",""
"html-button-response","210","983716","0.0-163.0-0.0","CAN_123","123","","","","","","829","<button class=""jspsych-btn""><img src=""stimuli/brown.png"" style=""width: 200px;height: 200px;""></button>","0","brown","blue","[""brown"",""blue"",""high nameability""]","left-right","[""brown"",""blue"",""high nameability""]","5","high nameability","44","left","response","1"
"html-audio-button-response","211","983921","0.0-163.0-1.0","CAN_123","123","","","","","","null","stimuli/bleep.m4a","null","brown","blue","[""brown"",""blue"",""high nameability""]","left-right","[""brown"",""blue"",""high nameability""]","5","high nameability","44","left","audio_feedback","1"
"html-button-response","212","984442","0.0-164.0","CAN_123","123","","","","","","null","<button class=""jspsych-btn""><img src=""stimuli/white_square.png"" style=""width: 200px;height: 200px;""></button>","null","brown","blue","[""brown"",""blue"",""high nameability""]","left-right","[""brown"",""blue"",""high nameability""]","5","high nameability","44","left","iti",""
"html-button-response","213","985010","0.0-165.0","CAN_123","123","","","","","","549","","0","orange","red","[""orange"",""red"",""high nameability""]","right-left","[""red"",""orange""]","5","high nameability","45","right","trigger",""
"html-button-response","214","985821","0.0-166.0-0.0","CAN_123","123","","","","","","803","<button class=""jspsych-btn""><img src=""stimuli/orange.png"" style=""width: 200px;height: 200px;""></button>","1","orange","red","[""orange"",""red"",""high nameability""]","right-left","[""red"",""orange""]","5","high nameability","45","right","response","1"
"html-audio-button-response","215","986025","0.0-166.0-1.0","CAN_123","123","","","","","","null","stimuli/bleep.m4a","null","orange","red","[""orange"",""red"",""high nameability""]","right-left","[""red"",""orange""]","5","high nameability","45","right","audio_feedback","1"
"html-button-response","216","986544","0.0-167.0","CAN_123","123","","","","","","null","<button class=""jspsych-btn""><img src=""stimuli/white_square.png"" style=""width: 200px;height: 200px;""></button>","null","orange","red","[""orange"",""red"",""high nameability""]","right-left","[""red"",""orange""]","5","high nameability","45","right","iti",""
"html-button-response","217","987273","0.0-168.0","CAN_123","123","","","","","","712","","0","turquoise","lightred","[""turquoise"",""lightred"",""low nameability""]","right-left","[""lightred"",""turquoise""]","5","low nameability","46","right","trigger",""
"html-button-response","218","988118","0.0-169.0-0.0","CAN_123","123","","","","","","838","<button class=""jspsych-btn""><img src=""stimuli/turquoise.png"" style=""width: 200px;height: 200px;""></button>","1","turquoise","lightred","[""turquoise"",""lightred"",""low nameability""]","right-left","[""lightred"",""turquoise""]","5","low nameability","46","right","response","1"
"html-audio-button-response","219","988322","0.0-169.0-1.0","CAN_123","123","","","","","","null","stimuli/bleep.m4a","null","turquoise","lightred","[""turquoise"",""lightred"",""low nameability""]","right-left","[""lightred"",""turquoise""]","5","low nameability","46","right","audio_feedback","1"
"html-button-response","220","988842","0.0-170.0","CAN_123","123","","","","","","null","<button class=""jspsych-btn""><img src=""stimuli/white_square.png"" style=""width: 200px;height: 200px;""></button>","null","turquoise","lightred","[""turquoise"",""lightred"",""low nameability""]","right-left","[""lightred"",""turquoise""]","5","low nameability","46","right","iti",""
"html-button-response","221","989501","0.0-171.0","CAN_123","123","","","","","","639","","0","yellow","red","[""yellow"",""red"",""high nameability""]","right-left","[""red"",""yellow""]","5","high nameability","47","right","trigger",""
"html-button-response","222","990295","0.0-172.0-0.0","CAN_123","123","","","","","","787","<button class=""jspsych-btn""><img src=""stimuli/yellow.png"" style=""width: 200px;height: 200px;""></button>","1","yellow","red","[""yellow"",""red"",""high nameability""]","right-left","[""red"",""yellow""]","5","high nameability","47","right","response","1"
"html-audio-button-response","223","990502","0.0-172.0-1.0","CAN_123","123","","","","","","null","stimuli/bleep.m4a","null","yellow","red","[""yellow"",""red"",""high nameability""]","right-left","[""red"",""yellow""]","5","high nameability","47","right","audio_feedback","1"
"html-button-response","224","991023","0.0-173.0","CAN_123","123","","","","","","null","<button class=""jspsych-btn""><img src=""stimuli/white_square.png"" style=""width: 200px;height: 200px;""></button>","null","yellow","red","[""yellow"",""red"",""high nameability""]","right-left","[""red"",""yellow""]","5","high nameability","47","right","iti",""
"html-button-response","225","991630","0.0-174.0","CAN_123","123","","","","","","591","","0","blue","red","[""blue"",""red"",""high nameability""]","left-right","[""blue"",""red"",""high nameability""]","5","high nameability","48","left","trigger",""
"html-button-response","226","992286","0.0-175.0-0.0","CAN_123","123","","","","","","649","<button class=""jspsych-btn""><img src=""stimuli/blue.png"" style=""width: 200px;height: 200px;""></button>","0","blue","red","[""blue"",""red"",""high nameability""]","left-right","[""blue"",""red"",""high nameability""]","5","high nameability","48","left","response","1"
"html-audio-button-response","227","992490","0.0-175.0-1.0","CAN_123","123","","","","","","null","stimuli/bleep.m4a","null","blue","red","[""blue"",""red"",""high nameability""]","left-right","[""blue"",""red"",""high nameability""]","5","high nameability","48","left","audio_feedback","1"
"html-button-response","228","993008","0.0-176.0","CAN_123","123","","","","","","null","<button class=""jspsych-btn""><img src=""stimuli/white_square.png"" style=""width: 200px;height: 200px;""></button>","null","blue","red","[""blue"",""red"",""high nameability""]","left-right","[""blue"",""red"",""high nameability""]","5","high nameability","48","left","iti",""
"html-button-response","229","993625","0.0-177.0","CAN_123","123","","","","","","599","","0","mustard","lightred","[""mustard"",""lightred"",""low nameability""]","right-left","[""lightred"",""mustard""]","5","low nameability","49","right","trigger",""
"html-button-response","230","994349","0.0-178.0-0.0","CAN_123","123","","","","","","716","<button class=""jspsych-btn""><img src=""stimuli/mustard.png"" style=""width: 200px;height: 200px;""></button>","1","mustard","lightred","[""mustard"",""lightred"",""low nameability""]","right-left","[""lightred"",""mustard""]","5","low nameability","49","right","response","1"
"html-audio-button-response","231","994550","0.0-178.0-1.0","CAN_123","123","","","","","","null","stimuli/bleep.m4a","null","mustard","lightred","[""mustard"",""lightred"",""low nameability""]","right-left","[""lightred"",""mustard""]","5","low nameability","49","right","audio_feedback","1"
"html-button-response","232","995071","0.0-179.0","CAN_123","123","","","","","","null","<button class=""jspsych-btn""><img src=""stimuli/white_square.png"" style=""width: 200px;height: 200px;""></button>","null","mustard","lightred","[""mustard"",""lightred"",""low nameability""]","right-left","[""lightred"",""mustard""]","5","low nameability","49","right","iti",""
"html-button-response","233","995672","0.0-180.0","CAN_123","123","","","","","","585","","0","purple","yellow","[""purple"",""yellow"",""high nameability""]","right-left","[""yellow"",""purple""]","5","high nameability","50","right","trigger",""
"html-button-response","234","996436","0.0-181.0-0.0","CAN_123","123","","","","","","755","<button class=""jspsych-btn""><img src=""stimuli/purple.png"" style=""width: 200px;height: 200px;""></button>","1","purple","yellow","[""purple"",""yellow"",""high nameability""]","right-left","[""yellow"",""purple""]","5","high nameability","50","right","response","1"
"html-audio-button-response","235","996641","0.0-181.0-1.0","CAN_123","123","","","","","","null","stimuli/bleep.m4a","null","purple","yellow","[""purple"",""yellow"",""high nameability""]","right-left","[""yellow"",""purple""]","5","high nameability","50","right","audio_feedback","1"
"html-button-response","236","997157","0.0-182.0","CAN_123","123","","","","","","null","<button class=""jspsych-btn""><img src=""stimuli/white_square.png"" style=""width: 200px;height: 200px;""></button>","null","purple","yellow","[""purple"",""yellow"",""high nameability""]","right-left","[""yellow"",""purple""]","5","high nameability","50","right","iti",""
"pavlovia","237","997199","0.0-183.0","CAN_123","123","","","","","","","","","","","","","","","","","","",""
"pavlovia","238","997205","0.0-184.0","CAN_123","123","","","","","","","","","","","","","","","","","","",""
"html-audio-button-response","239","998760","0.0-185.0","CAN_123","123","","","","","","1605","stimuli/tada.m4a","0","","","","","","","","","","",""
"html-button-response","240","999841","0.0-186.0","CAN_123","123","","","","","","1076","","0","","","","","","","","","","",""
"html-button-response","241","1000926","0.0-187.0","CAN_123","123","","","","","","1078","","0","blue","orange","[""blue"",""orange"",""high nameability""]","right-left","[""orange"",""blue""]","6","high nameability","51","right","trigger",""
"html-button-response","242","1001673","0.0-188.0-0.0","CAN_123","123","","","","","","737","<button class=""jspsych-btn""><img src=""stimuli/blue.png"" style=""width: 200px;height: 200px;""></button>","1","blue","orange","[""blue"",""orange"",""high nameability""]","right-left","[""orange"",""blue""]","6","high nameability","51","right","response","1"
"html-audio-button-response","243","1001874","0.0-188.0-1.0","CAN_123","123","","","","","","null","stimuli/bleep.m4a","null","blue","orange","[""blue"",""orange"",""high nameability""]","right-left","[""orange"",""blue""]","6","high nameability","51","right","audio_feedback","1"
"html-button-response","244","1002394","0.0-189.0","CAN_123","123","","","","","","null","<button class=""jspsych-btn""><img src=""stimuli/white_square.png"" style=""width: 200px;height: 200px;""></button>","null","blue","orange","[""blue"",""orange"",""high nameability""]","right-left","[""orange"",""blue""]","6","high nameability","51","right","iti",""
"html-button-response","245","1003055","0.0-190.0","CAN_123","123","","","","","","644","","0","red","brown","[""red"",""brown"",""high nameability""]","left-right","[""red"",""brown"",""high nameability""]","6","high nameability","52","left","trigger",""
"html-button-response","246","1003840","0.0-191.0-0.0","CAN_123","123","","","","","","776","<button class=""jspsych-btn""><img src=""stimuli/red.png"" style=""width: 200px;height: 200px;""></button>","0","red","brown","[""red"",""brown"",""high nameability""]","left-right","[""red"",""brown"",""high nameability""]","6","high nameability","52","left","response","1"
"html-audio-button-response","247","1004045","0.0-191.0-1.0","CAN_123","123","","","","","","null","stimuli/bleep.m4a","null","red","brown","[""red"",""brown"",""high nameability""]","left-right","[""red"",""brown"",""high nameability""]","6","high nameability","52","left","audio_feedback","1"
"html-button-response","248","1004564","0.0-192.0","CAN_123","123","","","","","","null","<button class=""jspsych-btn""><img src=""stimuli/white_square.png"" style=""width: 200px;height: 200px;""></button>","null","red","brown","[""red"",""brown"",""high nameability""]","left-right","[""red"",""brown"",""high nameability""]","6","high nameability","52","left","iti",""
"html-button-response","249","1005184","0.0-193.0","CAN_123","123","","","","","","603","","0","brown","yellow","[""brown"",""yellow"",""high nameability""]","left-right","[""brown"",""yellow"",""high nameability""]","6","high nameability","53","left","trigger",""
"html-button-response","250","1005969","0.0-194.0-0.0","CAN_123","123","","","","","","777","<button class=""jspsych-btn""><img src=""stimuli/brown.png"" style=""width: 200px;height: 200px;""></button>","0","brown","yellow","[""brown"",""yellow"",""high nameability""]","left-right","[""brown"",""yellow"",""high nameability""]","6","high nameability","53","left","response","1"
"html-audio-button-response","251","1006172","0.0-194.0-1.0","CAN_123","123","","","","","","null","stimuli/bleep.m4a","null","brown","yellow","[""brown"",""yellow"",""high nameability""]","left-right","[""brown"",""yellow"",""high nameability""]","6","high nameability","53","left","audio_feedback","1"
"html-button-response","252","1006690","0.0-195.0","CAN_123","123","","","","","","null","<button class=""jspsych-btn""><img src=""stimuli/white_square.png"" style=""width: 200px;height: 200px;""></button>","null","brown","yellow","[""brown"",""yellow"",""high nameability""]","left-right","[""brown"",""yellow"",""high nameability""]","6","high nameability","53","left","iti",""
"html-button-response","253","1007268","0.0-196.0","CAN_123","123","","","","","","559","","0","brown","red","[""brown"",""red"",""high nameability""]","left-right","[""brown"",""red"",""high nameability""]","6","high nameability","54","left","trigger",""
"html-button-response","254","1008185","0.0-197.0-0.0","CAN_123","123","","","","","","909","<button class=""jspsych-btn""><img src=""stimuli/brown.png"" style=""width: 200px;height: 200px;""></button>","0","brown","red","[""brown"",""red"",""high nameability""]","left-right","[""brown"",""red"",""high nameability""]","6","high nameability","54","left","response","1"
"html-audio-button-response","255","1008390","0.0-197.0-1.0","CAN_123","123","","","","","","null","stimuli/bleep.m4a","null","brown","red","[""brown"",""red"",""high nameability""]","left-right","[""brown"",""red"",""high nameability""]","6","high nameability","54","left","audio_feedback","1"
"html-button-response","256","1008906","0.0-198.0","CAN_123","123","","","","","","null","<button class=""jspsych-btn""><img src=""stimuli/white_square.png"" style=""width: 200px;height: 200px;""></button>","null","brown","red","[""brown"",""red"",""high nameability""]","left-right","[""brown"",""red"",""high nameability""]","6","high nameability","54","left","iti",""
"html-button-response","257","1009553","0.0-199.0","CAN_123","123","","","","","","629","","0","yellow","brown","[""yellow"",""brown"",""high nameability""]","right-left","[""brown"",""yellow""]","6","high nameability","55","right","trigger",""
"html-button-response","258","1011016","0.0-200.0-0.0","CAN_123","123","","","","","","1455","<button class=""jspsych-btn""><img src=""stimuli/yellow.png"" style=""width: 200px;height: 200px;""></button>","1","yellow","brown","[""yellow"",""brown"",""high nameability""]","right-left","[""brown"",""yellow""]","6","high nameability","55","right","response","1"
"html-audio-button-response","259","1011223","0.0-200.0-1.0","CAN_123","123","","","","","","null","stimuli/bleep.m4a","null","yellow","brown","[""yellow"",""brown"",""high nameability""]","right-left","[""brown"",""yellow""]","6","high nameability","55","right","audio_feedback","1"
"html-button-response","260","1011742","0.0-201.0","CAN_123","123","","","","","","null","<button class=""jspsych-btn""><img src=""stimuli/white_square.png"" style=""width: 200px;height: 200px;""></button>","null","yellow","brown","[""yellow"",""brown"",""high nameability""]","right-left","[""brown"",""yellow""]","6","high nameability","55","right","iti",""
"html-button-response","261","1012421","0.0-202.0","CAN_123","123","","","","","","665","","0","yellow","orange","[""yellow"",""orange"",""high nameability""]","right-left","[""orange"",""yellow""]","6","high nameability","56","right","trigger",""
"html-button-response","262","1013700","0.0-203.0-0.0","CAN_123","123","","","","","","1271","<button class=""jspsych-btn""><img src=""stimuli/yellow.png"" style=""width: 200px;height: 200px;""></button>","1","yellow","orange","[""yellow"",""orange"",""high nameability""]","right-left","[""orange"",""yellow""]","6","high nameability","56","right","response","1"
"html-audio-button-response","263","1013901","0.0-203.0-1.0","CAN_123","123","","","","","","null","stimuli/bleep.m4a","null","yellow","orange","[""yellow"",""orange"",""high nameability""]","right-left","[""orange"",""yellow""]","6","high nameability","56","right","audio_feedback","1"
"html-button-response","264","1014419","0.0-204.0","CAN_123","123","","","","","","null","<button class=""jspsych-btn""><img src=""stimuli/white_square.png"" style=""width: 200px;height: 200px;""></button>","null","yellow","orange","[""yellow"",""orange"",""high nameability""]","right-left","[""orange"",""yellow""]","6","high nameability","56","right","iti",""
"html-button-response","265","1015142","0.0-205.0","CAN_123","123","","","","","","707","","0","brown","purple","[""brown"",""purple"",""high nameability""]","left-right","[""brown"",""purple"",""high nameability""]","6","high nameability","57","left","trigger",""
"html-button-response","266","1015840","0.0-206.0-0.0","CAN_123","123","","","","","","691","<button class=""jspsych-btn""><img src=""stimuli/brown.png"" style=""width: 200px;height: 200px;""></button>","0","brown","purple","[""brown"",""purple"",""high nameability""]","left-right","[""brown"",""purple"",""high nameability""]","6","high nameability","57","left","response","1"
"html-audio-button-response","267","1016042","0.0-206.0-1.0","CAN_123","123","","","","","","null","stimuli/bleep.m4a","null","brown","purple","[""brown"",""purple"",""high nameability""]","left-right","[""brown"",""purple"",""high nameability""]","6","high nameability","57","left","audio_feedback","1"
"html-button-response","268","1016561","0.0-207.0","CAN_123","123","","","","","","null","<button class=""jspsych-btn""><img src=""stimuli/white_square.png"" style=""width: 200px;height: 200px;""></button>","null","brown","purple","[""brown"",""purple"",""high nameability""]","left-right","[""brown"",""purple"",""high nameability""]","6","high nameability","57","left","iti",""
"html-button-response","269","1017139","0.0-208.0","CAN_123","123","","","","","","564","","0","turquoise","darkgreenblue","[""turquoise"",""darkgreenblue"",""low nameability""]","right-left","[""darkgreenblue"",""turquoise""]","6","low nameability","58","right","trigger",""
"html-button-response","270","1018021","0.0-209.0-0.0","CAN_123","123","","","","","","874","<button class=""jspsych-btn""><img src=""stimuli/turquoise.png"" style=""width: 200px;height: 200px;""></button>","1","turquoise","darkgreenblue","[""turquoise"",""darkgreenblue"",""low nameability""]","right-left","[""darkgreenblue"",""turquoise""]","6","low nameability","58","right","response","1"
"html-audio-button-response","271","1018224","0.0-209.0-1.0","CAN_123","123","","","","","","null","stimuli/bleep.m4a","null","turquoise","darkgreenblue","[""turquoise"",""darkgreenblue"",""low nameability""]","right-left","[""darkgreenblue"",""turquoise""]","6","low nameability","58","right","audio_feedback","1"
"html-button-response","272","1018737","0.0-210.0","CAN_123","123","","","","","","null","<button class=""jspsych-btn""><img src=""stimuli/white_square.png"" style=""width: 200px;height: 200px;""></button>","null","turquoise","darkgreenblue","[""turquoise"",""darkgreenblue"",""low nameability""]","right-left","[""darkgreenblue"",""turquoise""]","6","low nameability","58","right","iti",""
"html-button-response","273","1019292","0.0-211.0","CAN_123","123","","","","","","539","","0","mustard","darkgreenblue","[""mustard"",""darkgreenblue"",""low nameability""]","right-left","[""darkgreenblue"",""mustard""]","6","low nameability","59","right","trigger",""
"html-button-response","274","1020101","0.0-212.0-0.0","CAN_123","123","","","","","","803","<button class=""jspsych-btn""><img src=""stimuli/mustard.png"" style=""width: 200px;height: 200px;""></button>","1","mustard","darkgreenblue","[""mustard"",""darkgreenblue"",""low nameability""]","right-left","[""darkgreenblue"",""mustard""]","6","low nameability","59","right","response","1"
"html-audio-button-response","275","1020305","0.0-212.0-1.0","CAN_123","123","","","","","","null","stimuli/bleep.m4a","null","mustard","darkgreenblue","[""mustard"",""darkgreenblue"",""low nameability""]","right-left","[""darkgreenblue"",""mustard""]","6","low nameability","59","right","audio_feedback","1"
"html-button-response","276","1020821","0.0-213.0","CAN_123","123","","","","","","null","<button class=""jspsych-btn""><img src=""stimuli/white_square.png"" style=""width: 200px;height: 200px;""></button>","null","mustard","darkgreenblue","[""mustard"",""darkgreenblue"",""low nameability""]","right-left","[""darkgreenblue"",""mustard""]","6","low nameability","59","right","iti",""
"html-button-response","277","1021438","0.0-214.0","CAN_123","123","","","","","","603","","0","lightred","mustard","[""lightred"",""mustard"",""low nameability""]","right-left","[""mustard"",""lightred""]","6","low nameability","60","right","trigger",""
"html-button-response","278","1022303","0.0-215.0-0.0","CAN_123","123","","","","","","857","<button class=""jspsych-btn""><img src=""stimuli/lightred.png"" style=""width: 200px;height: 200px;""></button>","1","lightred","mustard","[""lightred"",""mustard"",""low nameability""]","right-left","[""mustard"",""lightred""]","6","low nameability","60","right","response","1"
"html-audio-button-response","279","1022504","0.0-215.0-1.0","CAN_123","123","","","","","","null","stimuli/bleep.m4a","null","lightred","mustard","[""lightred"",""mustard"",""low nameability""]","right-left","[""mustard"",""lightred""]","6","low nameability","60","right","audio_feedback","1"
"html-button-response","280","1023019","0.0-216.0","CAN_123","123","","","","","","null","<button class=""jspsych-btn""><img src=""stimuli/white_square.png"" style=""width: 200px;height: 200px;""></button>","null","lightred","mustard","[""lightred"",""mustard"",""low nameability""]","right-left","[""mustard"",""lightred""]","6","low nameability","60","right","iti",""
