"trial_type","trial_index","time_elapsed","internal_node_id","subject_id","seed","success","timeout","failed_images","failed_audio","failed_video","rt","stimulus","response","target","foil","choices","combination_order","choices_in_order","round","condition","trial_counter","target_location","trial_kind","correct"
"pavlovia","0","20","0.0-0.0","CAN_145","145","","","","","","","","","","","","","","","","","","",""
"preload","1","776","0.0-1.0","CAN_145","145","true","false","[]","[]","[]","","","","","","","","","","","","","",""
"fullscreen","2","345502","0.0-2.0","CAN_145","145","true","","","","","","","","","","","","","","","","","",""
"html-button-response","3","379654","0.0-3.0","CAN_145","145","","","","","","34114","","0","","","","","","","","","","",""
"html-button-response","4","384758","0.0-4.0","CAN_145","145","","","","","","5088","","0","star","square","[""square"",""star""]","left-right","[""square"",""star""]","1","practice","1","right","trigger",""
"html-button-response","5","389822","0.0-5.0-0.0","CAN_145","145","","","","","","5047","<button class=""jspsych-btn""><img src=""stimuli/star.png"" style=""width: 200px;height: 200px;""></button>","1","star","square","[""square"",""star""]","left-right","[""square"",""star""]","1","practice","1","right","response","1"
"html-audio-button-response","6","390034","0.0-5.0-1.0","CAN_145","145","","","","","","null","stimuli/bleep.m4a","null","star","square","[""square"",""star""]","left-right","[""square"",""star""]","1","practice","1","right","audio_feedback","1"
"html-button-response","7","390572","0.0-6.0","CAN_145","145","","","","","","null","<button class=""jspsych-btn""><img src=""stimuli/white_square.png"" style=""width: 200px;height: 200px;""></button>","null","star","square","[""square"",""star""]","left-right","[""square"",""star""]","1","practice","1","right","iti",""
"html-button-response","8","392015","0.0-7.0","CAN_145","145","","","","","","1415","","0","triangle","pentagram","[""triangle"",""pentagram""]","left-right","[""triangle"",""pentagram""]","1","practice","1","left","trigger",""
"html-button-response","9","393416","0.0-8.0-0.0","CAN_145","145","","","","","","1389","<button class=""jspsych-btn""><img src=""stimuli/triangle.png"" style=""width: 200px;height: 200px;""></button>","0","triangle","pentagram","[""triangle"",""pentagram""]","left-right","[""triangle"",""pentagram""]","1","practice","1","left","response","1"
"html-audio-button-response","10","393628","0.0-8.0-1.0","CAN_145","145","","","","","","null","stimuli/bleep.m4a","null","triangle","pentagram","[""triangle"",""pentagram""]","left-right","[""triangle"",""pentagram""]","1","practice","1","left","audio_feedback","1"
"html-button-response","11","394146","0.0-9.0","CAN_145","145","","","","","","null","<button class=""jspsych-btn""><img src=""stimuli/white_square.png"" style=""width: 200px;height: 200px;""></button>","null","triangle","pentagram","[""triangle"",""pentagram""]","left-right","[""triangle"",""pentagram""]","1","practice","1","left","iti",""
"html-button-response","12","395057","0.0-10.0","CAN_145","145","","","","","","887","","0","diamond","rectangle","[""rectangle"",""diamond""]","left-right","[""rectangle"",""diamond""]","1","practice","1","right","trigger",""
"html-button-response","13","396320","0.0-11.0-0.0","CAN_145","145","","","","","","1252","<button class=""jspsych-btn""><img src=""stimuli/diamond.png"" style=""width: 200px;height: 200px;""></button>","1","diamond","rectangle","[""rectangle"",""diamond""]","left-right","[""rectangle"",""diamond""]","1","practice","1","right","response","1"
"html-audio-button-response","14","396529","0.0-11.0-1.0","CAN_145","145","","","","","","null","stimuli/bleep.m4a","null","diamond","rectangle","[""rectangle"",""diamond""]","left-right","[""rectangle"",""diamond""]","1","practice","1","right","audio_feedback","1"
"html-button-response","15","397053","0.0-12.0","CAN_145","145","","","","","","null","<button class=""jspsych-btn""><img src=""stimuli/white_square.png"" style=""width: 200px;height: 200px;""></button>","null","diamond","rectangle","[""rectangle"",""diamond""]","left-right","[""rectangle"",""diamond""]","1","practice","1","right","iti",""
"html-button-response","16","397939","0.0-13.0","CAN_145","145","","","","","","856","","0","pentagram","star","[""pentagram"",""star""]","left-right","[""pentagram"",""star""]","1","practice","1","left","trigger",""
"html-button-response","17","399137","0.0-14.0-0.0","CAN_145","145","","","","","","1188","<button class=""jspsych-btn""><img src=""stimuli/pentagram.png"" style=""width: 200px;height: 200px;""></button>","0","pentagram","star","[""pentagram"",""star""]","left-right","[""pentagram"",""star""]","1","practice","1","left","response","1"
"html-audio-button-response","18","399341","0.0-14.0-1.0","CAN_145","145","","","","","","null","stimuli/bleep.m4a","null","pentagram","star","[""pentagram"",""star""]","left-right","[""pentagram"",""star""]","1","practice","1","left","audio_feedback","1"
"html-button-response","19","399862","0.0-15.0","CAN_145","145","","","","","","null","<button class=""jspsych-btn""><img src=""stimuli/white_square.png"" style=""width: 200px;height: 200px;""></button>","null","pentagram","star","[""pentagram"",""star""]","left-right","[""pentagram"",""star""]","1","practice","1","left","iti",""
"html-button-response","20","413479","0.0-16.0","CAN_145","145","","","","","","13596","","0","","","","","","","","","","",""
"html-button-response","21","414410","0.0-17.0","CAN_145","145","","","","","","919","","0","brown","yellow","[""brown"",""yellow"",""high nameability""]","left-right","[""brown"",""yellow"",""high nameability""]","1","high nameability","1","left","trigger",""
"html-button-response","22","415734","0.0-18.0-0.0","CAN_145","145","","","","","","1313","<button class=""jspsych-btn""><img src=""stimuli/brown.png"" style=""width: 200px;height: 200px;""></button>","0","brown","yellow","[""brown"",""yellow"",""high nameability""]","left-right","[""brown"",""yellow"",""high nameability""]","1","high nameability","1","left","response","1"
"html-audio-button-response","23","415941","0.0-18.0-1.0","CAN_145","145","","","","","","null","stimuli/bleep.m4a","null","brown","yellow","[""brown"",""yellow"",""high nameability""]","left-right","[""brown"",""yellow"",""high nameability""]","1","high nameability","1","left","audio_feedback","1"
"html-button-response","24","416458","0.0-19.0","CAN_145","145","","","","","","null","<button class=""jspsych-btn""><img src=""stimuli/white_square.png"" style=""width: 200px;height: 200px;""></button>","null","brown","yellow","[""brown"",""yellow"",""high nameability""]","left-right","[""brown"",""yellow"",""high nameability""]","1","high nameability","1","left","iti",""
"html-button-response","25","417303","0.0-20.0","CAN_145","145","","","","","","827","","0","purple","orange","[""purple"",""orange"",""high nameability""]","left-right","[""purple"",""orange"",""high nameability""]","1","high nameability","2","left","trigger",""
"html-button-response","26","418398","0.0-21.0-0.0","CAN_145","145","","","","","","1088","<button class=""jspsych-btn""><img src=""stimuli/purple.png"" style=""width: 200px;height: 200px;""></button>","0","purple","orange","[""purple"",""orange"",""high nameability""]","left-right","[""purple"",""orange"",""high nameability""]","1","high nameability","2","left","response","1"
"html-audio-button-response","27","418607","0.0-21.0-1.0","CAN_145","145","","","","","","null","stimuli/bleep.m4a","null","purple","orange","[""purple"",""orange"",""high nameability""]","left-right","[""purple"",""orange"",""high nameability""]","1","high nameability","2","left","audio_feedback","1"
"html-button-response","28","419126","0.0-22.0","CAN_145","145","","","","","","null","<button class=""jspsych-btn""><img src=""stimuli/white_square.png"" style=""width: 200px;height: 200px;""></button>","null","purple","orange","[""purple"",""orange"",""high nameability""]","left-right","[""purple"",""orange"",""high nameability""]","1","high nameability","2","left","iti",""
"html-button-response","29","420030","0.0-23.0","CAN_145","145","","","","","","884","","0","purple","brown","[""purple"",""brown"",""high nameability""]","right-left","[""brown"",""purple""]","1","high nameability","3","right","trigger",""
"html-button-response","30","421134","0.0-24.0-0.0","CAN_145","145","","","","","","1096","<button class=""jspsych-btn""><img src=""stimuli/purple.png"" style=""width: 200px;height: 200px;""></button>","1","purple","brown","[""purple"",""brown"",""high nameability""]","right-left","[""brown"",""purple""]","1","high nameability","3","right","response","1"
"html-audio-button-response","31","421340","0.0-24.0-1.0","CAN_145","145","","","","","","null","stimuli/bleep.m4a","null","purple","brown","[""purple"",""brown"",""high nameability""]","right-left","[""brown"",""purple""]","1","high nameability","3","right","audio_feedback","1"
"html-button-response","32","421860","0.0-25.0","CAN_145","145","","","","","","null","<button class=""jspsych-btn""><img src=""stimuli/white_square.png"" style=""width: 200px;height: 200px;""></button>","null","purple","brown","[""purple"",""brown"",""high nameability""]","right-left","[""brown"",""purple""]","1","high nameability","3","right","iti",""
"html-button-response","33","422621","0.0-26.0","CAN_145","145","","","","","","736","","0","blue","yellow","[""blue"",""yellow"",""high nameability""]","right-left","[""yellow"",""blue""]","1","high nameability","4","right","trigger",""
"html-button-response","34","423777","0.0-27.0-0.0","CAN_145","145","","","","","","1146","<button class=""jspsych-btn""><img src=""stimuli/blue.png"" style=""width: 200px;height: 200px;""></button>","1","blue","yellow","[""blue"",""yellow"",""high nameability""]","right-left","[""yellow"",""blue""]","1","high nameability","4","right","response","1"
"html-audio-button-response","35","423981","0.0-27.0-1.0","CAN_145","145","","","","","","null","stimuli/bleep.m4a","null","blue","yellow","[""blue"",""yellow"",""high nameability""]","right-left","[""yellow"",""blue""]","1","high nameability","4","right","audio_feedback","1"
"html-button-response","36","424511","0.0-28.0","CAN_145","145","","","","","","null","<button class=""jspsych-btn""><img src=""stimuli/white_square.png"" style=""width: 200px;height: 200px;""></button>","null","blue","yellow","[""blue"",""yellow"",""high nameability""]","right-left","[""yellow"",""blue""]","1","high nameability","4","right","iti",""
"html-button-response","37","425219","0.0-29.0","CAN_145","145","","","","","","694","","0","blue","red","[""blue"",""red"",""high nameability""]","left-right","[""blue"",""red"",""high nameability""]","1","high nameability","5","left","trigger",""
"html-button-response","38","426322","0.0-30.0-0.0","CAN_145","145","","","","","","1094","<button class=""jspsych-btn""><img src=""stimuli/blue.png"" style=""width: 200px;height: 200px;""></button>","0","blue","red","[""blue"",""red"",""high nameability""]","left-right","[""blue"",""red"",""high nameability""]","1","high nameability","5","left","response","1"
"html-audio-button-response","39","426522","0.0-30.0-1.0","CAN_145","145","","","","","","null","stimuli/bleep.m4a","null","blue","red","[""blue"",""red"",""high nameability""]","left-right","[""blue"",""red"",""high nameability""]","1","high nameability","5","left","audio_feedback","1"
"html-button-response","40","427029","0.0-31.0","CAN_145","145","","","","","","null","<button class=""jspsych-btn""><img src=""stimuli/white_square.png"" style=""width: 200px;height: 200px;""></button>","null","blue","red","[""blue"",""red"",""high nameability""]","left-right","[""blue"",""red"",""high nameability""]","1","high nameability","5","left","iti",""
"html-button-response","41","427737","0.0-32.0","CAN_145","145","","","","","","704","","0","neonyellow","mustard","[""neonyellow"",""mustard"",""low nameability""]","right-left","[""mustard"",""neonyellow""]","1","low nameability","6","right","trigger",""
"html-button-response","42","428846","0.0-33.0-0.0","CAN_145","145","","","","","","1102","<button class=""jspsych-btn""><img src=""stimuli/neonyellow.png"" style=""width: 200px;height: 200px;""></button>","1","neonyellow","mustard","[""neonyellow"",""mustard"",""low nameability""]","right-left","[""mustard"",""neonyellow""]","1","low nameability","6","right","response","1"
"html-audio-button-response","43","429054","0.0-33.0-1.0","CAN_145","145","","","","","","null","stimuli/bleep.m4a","null","neonyellow","mustard","[""neonyellow"",""mustard"",""low nameability""]","right-left","[""mustard"",""neonyellow""]","1","low nameability","6","right","audio_feedback","1"
"html-button-response","44","429580","0.0-34.0","CAN_145","145","","","","","","null","<button class=""jspsych-btn""><img src=""stimuli/white_square.png"" style=""width: 200px;height: 200px;""></button>","null","neonyellow","mustard","[""neonyellow"",""mustard"",""low nameability""]","right-left","[""mustard"",""neonyellow""]","1","low nameability","6","right","iti",""
"html-button-response","45","430386","0.0-35.0","CAN_145","145","","","","","","786","","0","darkgreenblue","lightred","[""darkgreenblue"",""lightred"",""low nameability""]","left-right","[""darkgreenblue"",""lightred"",""low nameability""]","1","low nameability","7","left","trigger",""
"html-button-response","46","431579","0.0-36.0-0.0","CAN_145","145","","","","","","1187","<button class=""jspsych-btn""><img src=""stimuli/darkgreenblue.png"" style=""width: 200px;height: 200px;""></button>","0","darkgreenblue","lightred","[""darkgreenblue"",""lightred"",""low nameability""]","left-right","[""darkgreenblue"",""lightred"",""low nameability""]","1","low nameability","7","left","response","1"
"html-audio-button-response","47","431784","0.0-36.0-1.0","CAN_145","145","","","","","","null","stimuli/bleep.m4a","null","darkgreenblue","lightred","[""darkgreenblue"",""lightred"",""low nameability""]","left-right","[""darkgreenblue"",""lightred"",""low nameability""]","1","low nameability","7","left","audio_feedback","1"
"html-button-response","48","432306","0.0-37.0","CAN_145","145","","","","","","null","<button class=""jspsych-btn""><img src=""stimuli/white_square.png"" style=""width: 200px;height: 200px;""></button>","null","darkgreenblue","lightred","[""darkgreenblue"",""lightred"",""low nameability""]","left-right","[""darkgreenblue"",""lightred"",""low nameability""]","1","low nameability","7","left","iti",""
"html-button-response","49","433238","0.0-38.0","CAN_145","145","","","","","","920","","0","red","brown","[""red"",""brown"",""high nameability""]","left-right","[""red"",""brown"",""high nameability""]","1","high nameability","8","left","trigger",""
"html-button-response","50","434237","0.0-39.0-0.0","CAN_145","145","","","","","","990","<button class=""jspsych-btn""><img src=""stimuli/red.png"" style=""width: 200px;height: 200px;""></button>","0","red","brown","[""red"",""brown"",""high nameability""]","left-right","[""red"",""brown"",""high nameability""]","1","high nameability","8","left","response","1"
"html-audio-button-response","51","434438","0.0-39.0-1.0","CAN_145","145","","","","","","null","stimuli/bleep.m4a","null","red","brown","[""red"",""brown"",""high nameability""]","left-right","[""red"",""brown"",""high nameability""]","1","high nameability","8","left","audio_feedback","1"
"html-button-response","52","434949","0.0-40.0","CAN_145","145","","","","","","null","<button class=""jspsych-btn""><img src=""stimuli/white_square.png"" style=""width: 200px;height: 200px;""></button>","null","red","brown","[""red"",""brown"",""high nameability""]","left-right","[""red"",""brown"",""high nameability""]","1","high nameability","8","left","iti",""
"html-button-response","53","435620","0.0-41.0","CAN_145","145","","","","","","648","","0","turquoise","darkgreenblue","[""turquoise"",""darkgreenblue"",""low nameability""]","right-left","[""darkgreenblue"",""turquoise""]","1","low nameability","9","right","trigger",""
"html-button-response","54","436692","0.0-42.0-0.0","CAN_145","145","","","","","","1063","<button class=""jspsych-btn""><img src=""stimuli/turquoise.png"" style=""width: 200px;height: 200px;""></button>","1","turquoise","darkgreenblue","[""turquoise"",""darkgreenblue"",""low nameability""]","right-left","[""darkgreenblue"",""turquoise""]","1","low nameability","9","right","response","1"
"html-audio-button-response","55","436900","0.0-42.0-1.0","CAN_145","145","","","","","","null","stimuli/bleep.m4a","null","turquoise","darkgreenblue","[""turquoise"",""darkgreenblue"",""low nameability""]","right-left","[""darkgreenblue"",""turquoise""]","1","low nameability","9","right","audio_feedback","1"
"html-button-response","56","437422","0.0-43.0","CAN_145","145","","","","","","null","<button class=""jspsych-btn""><img src=""stimuli/white_square.png"" style=""width: 200px;height: 200px;""></button>","null","turquoise","darkgreenblue","[""turquoise"",""darkgreenblue"",""low nameability""]","right-left","[""darkgreenblue"",""turquoise""]","1","low nameability","9","right","iti",""
"html-button-response","57","438202","0.0-44.0","CAN_145","145","","","","","","759","","0","yellow","red","[""yellow"",""red"",""high nameability""]","right-left","[""red"",""yellow""]","1","high nameability","10","right","trigger",""
"html-button-response","58","439487","0.0-45.0-0.0","CAN_145","145","","","","","","1278","<button class=""jspsych-btn""><img src=""stimuli/yellow.png"" style=""width: 200px;height: 200px;""></button>","1","yellow","red","[""yellow"",""red"",""high nameability""]","right-left","[""red"",""yellow""]","1","high nameability","10","right","response","1"
"html-audio-button-response","59","439693","0.0-45.0-1.0","CAN_145","145","","","","","","null","stimuli/bleep.m4a","null","yellow","red","[""yellow"",""red"",""high nameability""]","right-left","[""red"",""yellow""]","1","high nameability","10","right","audio_feedback","1"
"html-button-response","60","440217","0.0-46.0","CAN_145","145","","","","","","null","<button class=""jspsych-btn""><img src=""stimuli/white_square.png"" style=""width: 200px;height: 200px;""></button>","null","yellow","red","[""yellow"",""red"",""high nameability""]","right-left","[""red"",""yellow""]","1","high nameability","10","right","iti",""
"pavlovia","61","440312","0.0-47.0","CAN_145","145","","","","","","","","","","","","","","","","","","",""
"pavlovia","62","440327","0.0-48.0","CAN_145","145","","","","","","","","","","","","","","","","","","",""
"html-audio-button-response","63","442647","0.0-49.0","CAN_145","145","","","","","","2432","stimuli/tada.m4a","0","","","","","","","","","","",""
"html-button-response","64","443473","0.0-50.0","CAN_145","145","","","","","","820","","0","","","","","","","","","","",""
"html-button-response","65","444334","0.0-51.0","CAN_145","145","","","","","","855","","0","mustard","pink","[""mustard"",""pink"",""low nameability""]","right-left","[""pink"",""mustard""]","2","low nameability","11","right","trigger",""
"html-button-response","66","445586","0.0-52.0-0.0","CAN_145","145","","","","","","1243","<button class=""jspsych-btn""><img src=""stimuli/mustard.png"" style=""width: 200px;height: 200px;""></button>","1","mustard","pink","[""mustard"",""pink"",""low nameability""]","right-left","[""pink"",""mustard""]","2","low nameability","11","right","response","1"
"html-audio-button-response","67","445794","0.0-52.0-1.0","CAN_145","145","","","","","","null","stimuli/bleep.m4a","null","mustard","pink","[""mustard"",""pink"",""low nameability""]","right-left","[""pink"",""mustard""]","2","low nameability","11","right","audio_feedback","1"
"html-button-response","68","446309","0.0-53.0","CAN_145","145","","","","","","null","<button class=""jspsych-btn""><img src=""stimuli/white_square.png"" style=""width: 200px;height: 200px;""></button>","null","mustard","pink","[""mustard"",""pink"",""low nameability""]","right-left","[""pink"",""mustard""]","2","low nameability","11","right","iti",""
"html-button-response","69","447014","0.0-54.0","CAN_145","145","","","","","","686","","0","yellow","orange","[""yellow"",""orange"",""high nameability""]","right-left","[""orange"",""yellow""]","2","high nameability","12","right","trigger",""
"html-button-response","70","448168","0.0-55.0-0.0","CAN_145","145","","","","","","1146","<button class=""jspsych-btn""><img src=""stimuli/yellow.png"" style=""width: 200px;height: 200px;""></button>","1","yellow","orange","[""yellow"",""orange"",""high nameability""]","right-left","[""orange"",""yellow""]","2","high nameability","12","right","response","1"
"html-audio-button-response","71","448373","0.0-55.0-1.0","CAN_145","145","","","","","","null","stimuli/bleep.m4a","null","yellow","orange","[""yellow"",""orange"",""high nameability""]","right-left","[""orange"",""yellow""]","2","high nameability","12","right","audio_feedback","1"
"html-button-response","72","448898","0.0-56.0","CAN_145","145","","","","","","null","<button class=""jspsych-btn""><img src=""stimuli/white_square.png"" style=""width: 200px;height: 200px;""></button>","null","yellow","orange","[""yellow"",""orange"",""high nameability""]","right-left","[""orange"",""yellow""]","2","high nameability","12","right","iti",""
"html-button-response","73","449670","0.0-57.0","CAN_145","145","","","","","","748","","0","lightred","neonyellow","[""lightred"",""neonyellow"",""low nameability""]","left-right","[""lightred"",""neonyellow"",""low nameability""]","2","low nameability","13","left","trigger",""
"html-button-response","74","450849","0.0-58.0-0.0","CAN_145","145","","","","","","1170","<button class=""jspsych-btn""><img src=""stimuli/lightred.png"" style=""width: 200px;height: 200px;""></button>","0","lightred","neonyellow","[""lightred"",""neonyellow"",""low nameability""]","left-right","[""lightred"",""neonyellow"",""low nameability""]","2","low nameability","13","left","response","1"
"html-audio-button-response","75","451052","0.0-58.0-1.0","CAN_145","145","","","","","","null","stimuli/bleep.m4a","null","lightred","neonyellow","[""lightred"",""neonyellow"",""low nameability""]","left-right","[""lightred"",""neonyellow"",""low nameability""]","2","low nameability","13","left","audio_feedback","1"
"html-button-response","76","451572","0.0-59.0","CAN_145","145","","","","","","null","<button class=""jspsych-btn""><img src=""stimuli/white_square.png"" style=""width: 200px;height: 200px;""></button>","null","lightred","neonyellow","[""lightred"",""neonyellow"",""low nameability""]","left-right","[""lightred"",""neonyellow"",""low nameability""]","2","low nameability","13","left","iti",""
"html-button-response","77","452296","0.0-60.0","CAN_145","145","","","","","","709","","0","neonyellow","turquoise","[""neonyellow"",""turquoise"",""low nameability""]","right-left","[""turquoise"",""neonyellow""]","2","low nameability","14","right","trigger",""
"html-button-response","78","453355","0.0-61.0-0.0","CAN_145","145","","","","","","1051","<button class=""jspsych-btn""><img src=""stimuli/neonyellow.png"" style=""width: 200px;height: 200px;""></button>","1","neonyellow","turquoise","[""neonyellow"",""turquoise"",""low nameability""]","right-left","[""turquoise"",""neonyellow""]","2","low nameability","14","right","response","1"
"html-audio-button-response","79","453560","0.0-61.0-1.0","CAN_145","145","","","","","","null","stimuli/bleep.m4a","null","neonyellow","turquoise","[""neonyellow"",""turquoise"",""low nameability""]","right-left","[""turquoise"",""neonyellow""]","2","low nameability","14","right","audio_feedback","1"
"html-button-response","80","454076","0.0-62.0","CAN_145","145","","","","","","null","<button class=""jspsych-btn""><img src=""stimuli/white_square.png"" style=""width: 200px;height: 200px;""></button>","null","neonyellow","turquoise","[""neonyellow"",""turquoise"",""low nameability""]","right-left","[""turquoise"",""neonyellow""]","2","low nameability","14","right","iti",""
"html-button-response","81","454831","0.0-63.0","CAN_145","145","","","","","","735","","0","darkgreenblue","mustard","[""darkgreenblue"",""mustard"",""low nameability""]","right-left","[""mustard"",""darkgreenblue""]","2","low nameability","15","right","trigger",""
"html-button-response","82","455984","0.0-64.0-0.0","CAN_145","145","","","","","","1144","<button class=""jspsych-btn""><img src=""stimuli/darkgreenblue.png"" style=""width: 200px;height: 200px;""></button>","1","darkgreenblue","mustard","[""darkgreenblue"",""mustard"",""low nameability""]","right-left","[""mustard"",""darkgreenblue""]","2","low nameability","15","right","response","1"
"html-audio-button-response","83","456189","0.0-64.0-1.0","CAN_145","145","","","","","","null","stimuli/bleep.m4a","null","darkgreenblue","mustard","[""darkgreenblue"",""mustard"",""low nameability""]","right-left","[""mustard"",""darkgreenblue""]","2","low nameability","15","right","audio_feedback","1"
"html-button-response","84","456705","0.0-65.0","CAN_145","145","","","","","","null","<button class=""jspsych-btn""><img src=""stimuli/white_square.png"" style=""width: 200px;height: 200px;""></button>","null","darkgreenblue","mustard","[""darkgreenblue"",""mustard"",""low nameability""]","right-left","[""mustard"",""darkgreenblue""]","2","low nameability","15","right","iti",""
"html-button-response","85","457508","0.0-66.0","CAN_145","145","","","","","","786","","0","turquoise","neonyellow","[""turquoise"",""neonyellow"",""low nameability""]","left-right","[""turquoise"",""neonyellow"",""low nameability""]","2","low nameability","16","left","trigger",""
"html-button-response","86","458705","0.0-67.0-0.0","CAN_145","145","","","","","","1189","<button class=""jspsych-btn""><img src=""stimuli/turquoise.png"" style=""width: 200px;height: 200px;""></button>","0","turquoise","neonyellow","[""turquoise"",""neonyellow"",""low nameability""]","left-right","[""turquoise"",""neonyellow"",""low nameability""]","2","low nameability","16","left","response","1"
"html-audio-button-response","87","458909","0.0-67.0-1.0","CAN_145","145","","","","","","null","stimuli/bleep.m4a","null","turquoise","neonyellow","[""turquoise"",""neonyellow"",""low nameability""]","left-right","[""turquoise"",""neonyellow"",""low nameability""]","2","low nameability","16","left","audio_feedback","1"
"html-button-response","88","459424","0.0-68.0","CAN_145","145","","","","","","null","<button class=""jspsych-btn""><img src=""stimuli/white_square.png"" style=""width: 200px;height: 200px;""></button>","null","turquoise","neonyellow","[""turquoise"",""neonyellow"",""low nameability""]","left-right","[""turquoise"",""neonyellow"",""low nameability""]","2","low nameability","16","left","iti",""
"html-button-response","89","460165","0.0-69.0","CAN_145","145","","","","","","725","","0","purple","yellow","[""purple"",""yellow"",""high nameability""]","right-left","[""yellow"",""purple""]","2","high nameability","17","right","trigger",""
"html-button-response","90","461282","0.0-70.0-0.0","CAN_145","145","","","","","","1108","<button class=""jspsych-btn""><img src=""stimuli/purple.png"" style=""width: 200px;height: 200px;""></button>","1","purple","yellow","[""purple"",""yellow"",""high nameability""]","right-left","[""yellow"",""purple""]","2","high nameability","17","right","response","1"
"html-audio-button-response","91","461488","0.0-70.0-1.0","CAN_145","145","","","","","","null","stimuli/bleep.m4a","null","purple","yellow","[""purple"",""yellow"",""high nameability""]","right-left","[""yellow"",""purple""]","2","high nameability","17","right","audio_feedback","1"
"html-button-response","92","462015","0.0-71.0","CAN_145","145","","","","","","null","<button class=""jspsych-btn""><img src=""stimuli/white_square.png"" style=""width: 200px;height: 200px;""></button>","null","purple","yellow","[""purple"",""yellow"",""high nameability""]","right-left","[""yellow"",""purple""]","2","high nameability","17","right","iti",""
"html-button-response","93","462787","0.0-72.0","CAN_145","145","","","","","","750","","0","brown","orange","[""brown"",""orange"",""high nameability""]","left-right","[""brown"",""orange"",""high nameability""]","2","high nameability","18","left","trigger",""
"html-button-response","94","463726","0.0-73.0-0.0","CAN_145","145","","","","","","931","<button class=""jspsych-btn""><img src=""stimuli/brown.png"" style=""width: 200px;height: 200px;""></button>","0","brown","orange","[""brown"",""orange"",""high nameability""]","left-right","[""brown"",""orange"",""high nameability""]","2","high nameability","18","left","response","1"
"html-audio-button-response","95","463929","0.0-73.0-1.0","CAN_145","145","","","","","","null","stimuli/bleep.m4a","null","brown","orange","[""brown"",""orange"",""high nameability""]","left-right","[""brown"",""orange"",""high nameability""]","2","high nameability","18","left","audio_feedback","1"
"html-button-response","96","464450","0.0-74.0","CAN_145","145","","","","","","null","<button class=""jspsych-btn""><img src=""stimuli/white_square.png"" style=""width: 200px;height: 200px;""></button>","null","brown","orange","[""brown"",""orange"",""high nameability""]","left-right","[""brown"",""orange"",""high nameability""]","2","high nameability","18","left","iti",""
"html-button-response","97","465164","0.0-75.0","CAN_145","145","","","","","","695","","0","neonyellow","pink","[""neonyellow"",""pink"",""low nameability""]","right-left","[""pink"",""neonyellow""]","2","low nameability","19","right","trigger",""
"html-button-response","98","466142","0.0-76.0-0.0","CAN_145","145","","","","","","970","<button class=""jspsych-btn""><img src=""stimuli/neonyellow.png"" style=""width: 200px;height: 200px;""></button>","1","neonyellow","pink","[""neonyellow"",""pink"",""low nameability""]","right-left","[""pink"",""neonyellow""]","2","low nameability","19","right","response","1"
"html-audio-button-response","99","466344","0.0-76.0-1.0","CAN_145","145","","","","","","null","stimuli/bleep.m4a","null","neonyellow","pink","[""neonyellow"",""pink"",""low nameability""]","right-left","[""pink"",""neonyellow""]","2","low nameability","19","right","audio_feedback","1"
"html-button-response","100","466865","0.0-77.0","CAN_145","145","","","","","","null","<button class=""jspsych-btn""><img src=""stimuli/white_square.png"" style=""width: 200px;height: 200px;""></button>","null","neonyellow","pink","[""neonyellow"",""pink"",""low nameability""]","right-left","[""pink"",""neonyellow""]","2","low nameability","19","right","iti",""
"html-button-response","101","467572","0.0-78.0","CAN_145","145","","","","","","697","","0","orange","blue","[""orange"",""blue"",""high nameability""]","left-right","[""orange"",""blue"",""high nameability""]","2","high nameability","20","left","trigger",""
"html-button-response","102","468436","0.0-79.0-0.0","CAN_145","145","","","","","","857","<button class=""jspsych-btn""><img src=""stimuli/orange.png"" style=""width: 200px;height: 200px;""></button>","0","orange","blue","[""orange"",""blue"",""high nameability""]","left-right","[""orange"",""blue"",""high nameability""]","2","high nameability","20","left","response","1"
"html-audio-button-response","103","468642","0.0-79.0-1.0","CAN_145","145","","","","","","null","stimuli/bleep.m4a","null","orange","blue","[""orange"",""blue"",""high nameability""]","left-right","[""orange"",""blue"",""high nameability""]","2","high nameability","20","left","audio_feedback","1"
"html-button-response","104","469161","0.0-80.0","CAN_145","145","","","","","","null","<button class=""jspsych-btn""><img src=""stimuli/white_square.png"" style=""width: 200px;height: 200px;""></button>","null","orange","blue","[""orange"",""blue"",""high nameability""]","left-right","[""orange"",""blue"",""high nameability""]","2","high nameability","20","left","iti",""
"pavlovia","105","469232","0.0-81.0","CAN_145","145","","","","","","","","","","","","","","","","","","",""
"pavlovia","106","469242","0.0-82.0","CAN_145","145","","","","","","","","","","","","","","","","","","",""
"html-audio-button-response","107","471355","0.0-83.0","CAN_145","145","","","","","","2197","stimuli/tada.m4a","0","","","","","","","","","","",""
"html-button-response","108","472101","0.0-84.0","CAN_145","145","","","","","","739","","0","","","","","","","","","","",""
"html-button-response","109","472849","0.0-85.0","CAN_145","145","","","","","","741","","0","pink","darkgreenblue","[""pink"",""darkgreenblue"",""low nameability""]","right-left","[""darkgreenblue"",""pink""]","3","low nameability","21","right","trigger",""
"html-button-response","110","473958","0.0-86.0-0.0","CAN_145","145","","","","","","1100","<button class=""jspsych-btn""><img src=""stimuli/pink.png"" style=""width: 200px;height: 200px;""></button>","1","pink","darkgreenblue","[""pink"",""darkgreenblue"",""low nameability""]","right-left","[""darkgreenblue"",""pink""]","3","low nameability","21","right","response","1"
"html-audio-button-response","111","474164","0.0-86.0-1.0","CAN_145","145","","","","","","null","stimuli/bleep.m4a","null","pink","darkgreenblue","[""pink"",""darkgreenblue"",""low nameability""]","right-left","[""darkgreenblue"",""pink""]","3","low nameability","21","right","audio_feedback","1"
"html-button-response","112","474684","0.0-87.0","CAN_145","145","","","","","","null","<button class=""jspsych-btn""><img src=""stimuli/white_square.png"" style=""width: 200px;height: 200px;""></button>","null","pink","darkgreenblue","[""pink"",""darkgreenblue"",""low nameability""]","right-left","[""darkgreenblue"",""pink""]","3","low nameability","21","right","iti",""
"html-button-response","113","475434","0.0-88.0","CAN_145","145","","","","","","739","","0","neonyellow","lightred","[""neonyellow"",""lightred"",""low nameability""]","left-right","[""neonyellow"",""lightred"",""low nameability""]","3","low nameability","22","left","trigger",""
"html-button-response","114","477006","0.0-89.0-0.0","CAN_145","145","","","","","","1564","<button class=""jspsych-btn""><img src=""stimuli/neonyellow.png"" style=""width: 200px;height: 200px;""></button>","0","neonyellow","lightred","[""neonyellow"",""lightred"",""low nameability""]","left-right","[""neonyellow"",""lightred"",""low nameability""]","3","low nameability","22","left","response","1"
"html-audio-button-response","115","477209","0.0-89.0-1.0","CAN_145","145","","","","","","null","stimuli/bleep.m4a","null","neonyellow","lightred","[""neonyellow"",""lightred"",""low nameability""]","left-right","[""neonyellow"",""lightred"",""low nameability""]","3","low nameability","22","left","audio_feedback","1"
"html-button-response","116","477727","0.0-90.0","CAN_145","145","","","","","","null","<button class=""jspsych-btn""><img src=""stimuli/white_square.png"" style=""width: 200px;height: 200px;""></button>","null","neonyellow","lightred","[""neonyellow"",""lightred"",""low nameability""]","left-right","[""neonyellow"",""lightred"",""low nameability""]","3","low nameability","22","left","iti",""
"html-button-response","117","478290","0.0-91.0","CAN_145","145","","","","","","541","","0","mustard","neonyellow","[""mustard"",""neonyellow"",""low nameability""]","right-left","[""neonyellow"",""mustard""]","3","low nameability","23","right","trigger",""
"html-button-response","118","479505","0.0-92.0-0.0","CAN_145","145","","","","","","1208","<button class=""jspsych-btn""><img src=""stimuli/mustard.png"" style=""width: 200px;height: 200px;""></button>","1","mustard","neonyellow","[""mustard"",""neonyellow"",""low nameability""]","right-left","[""neonyellow"",""mustard""]","3","low nameability","23","right","response","1"
"html-audio-button-response","119","479710","0.0-92.0-1.0","CAN_145","145","","","","","","null","stimuli/bleep.m4a","null","mustard","neonyellow","[""mustard"",""neonyellow"",""low nameability""]","right-left","[""neonyellow"",""mustard""]","3","low nameability","23","right","audio_feedback","1"
"html-button-response","120","480233","0.0-93.0","CAN_145","145","","","","","","null","<button class=""jspsych-btn""><img src=""stimuli/white_square.png"" style=""width: 200px;height: 200px;""></button>","null","mustard","neonyellow","[""mustard"",""neonyellow"",""low nameability""]","right-left","[""neonyellow"",""mustard""]","3","low nameability","23","right","iti",""
"html-button-response","121","480873","0.0-94.0","CAN_145","145","","","","","","622","","0","pink","turquoise","[""pink"",""turquoise"",""low nameability""]","left-right","[""pink"",""turquoise"",""low nameability""]","3","low nameability","24","left","trigger",""
"html-button-response","122","481947","0.0-95.0-0.0","CAN_145","145","","","","","","1068","<button class=""jspsych-btn""><img src=""stimuli/pink.png"" style=""width: 200px;height: 200px;""></button>","0","pink","turquoise","[""pink"",""turquoise"",""low nameability""]","left-right","[""pink"",""turquoise"",""low nameability""]","3","low nameability","24","left","response","1"
"html-audio-button-response","123","482148","0.0-95.0-1.0","CAN_145","145","","","","","","null","stimuli/bleep.m4a","null","pink","turquoise","[""pink"",""turquoise"",""low nameability""]","left-right","[""pink"",""turquoise"",""low nameability""]","3","low nameability","24","left","audio_feedback","1"
"html-button-response","124","482662","0.0-96.0","CAN_145","145","","","","","","null","<button class=""jspsych-btn""><img src=""stimuli/white_square.png"" style=""width: 200px;height: 200px;""></button>","null","pink","turquoise","[""pink"",""turquoise"",""low nameability""]","left-right","[""pink"",""turquoise"",""low nameability""]","3","low nameability","24","left","iti",""
"html-button-response","125","483287","0.0-97.0","CAN_145","145","","","","","","601","","0","orange","brown","[""orange"",""brown"",""high nameability""]","left-right","[""orange"",""brown"",""high nameability""]","3","high nameability","25","left","trigger",""
"html-button-response","126","484349","0.0-98.0-0.0","CAN_145","145","","","","","","1054","<button class=""jspsych-btn""><img src=""stimuli/orange.png"" style=""width: 200px;height: 200px;""></button>","0","orange","brown","[""orange"",""brown"",""high nameability""]","left-right","[""orange"",""brown"",""high nameability""]","3","high nameability","25","left","response","1"
"html-audio-button-response","127","484553","0.0-98.0-1.0","CAN_145","145","","","","","","null","stimuli/bleep.m4a","null","orange","brown","[""orange"",""brown"",""high nameability""]","left-right","[""orange"",""brown"",""high nameability""]","3","high nameability","25","left","audio_feedback","1"
"html-button-response","128","485070","0.0-99.0","CAN_145","145","","","","","","null","<button class=""jspsych-btn""><img src=""stimuli/white_square.png"" style=""width: 200px;height: 200px;""></button>","null","orange","brown","[""orange"",""brown"",""high nameability""]","left-right","[""orange"",""brown"",""high nameability""]","3","high nameability","25","left","iti",""
"html-button-response","129","485654","0.0-100.0","CAN_145","145","","","","","","564","","0","purple","blue","[""purple"",""blue"",""high nameability""]","left-right","[""purple"",""blue"",""high nameability""]","3","high nameability","26","left","trigger",""
"html-button-response","130","486489","0.0-101.0-0.0","CAN_145","145","","","","","","828","<button class=""jspsych-btn""><img src=""stimuli/purple.png"" style=""width: 200px;height: 200px;""></button>","0","purple","blue","[""purple"",""blue"",""high nameability""]","left-right","[""purple"",""blue"",""high nameability""]","3","high nameability","26","left","response","1"
"html-audio-button-response","131","486693","0.0-101.0-1.0","CAN_145","145","","","","","","null","stimuli/bleep.m4a","null","purple","blue","[""purple"",""blue"",""high nameability""]","left-right","[""purple"",""blue"",""high nameability""]","3","high nameability","26","left","audio_feedback","1"
"html-button-response","132","487216","0.0-102.0","CAN_145","145","","","","","","null","<button class=""jspsych-btn""><img src=""stimuli/white_square.png"" style=""width: 200px;height: 200px;""></button>","null","purple","blue","[""purple"",""blue"",""high nameability""]","left-right","[""purple"",""blue"",""high nameability""]","3","high nameability","26","left","iti",""
"html-button-response","133","487775","0.0-103.0","CAN_145","145","","","","","","541","","0","darkgreenblue","pink","[""darkgreenblue"",""pink"",""low nameability""]","right-left","[""pink"",""darkgreenblue""]","3","low nameability","27","right","trigger",""
"html-button-response","134","488810","0.0-104.0-0.0","CAN_145","145","","","","","","1025","<button class=""jspsych-btn""><img src=""stimuli/darkgreenblue.png"" style=""width: 200px;height: 200px;""></button>","1","darkgreenblue","pink","[""darkgreenblue"",""pink"",""low nameability""]","right-left","[""pink"",""darkgreenblue""]","3","low nameability","27","right","response","1"
"html-audio-button-response","135","489018","0.0-104.0-1.0","CAN_145","145","","","","","","null","stimuli/bleep.m4a","null","darkgreenblue","pink","[""darkgreenblue"",""pink"",""low nameability""]","right-left","[""pink"",""darkgreenblue""]","3","low nameability","27","right","audio_feedback","1"
"html-button-response","136","489531","0.0-105.0","CAN_145","145","","","","","","null","<button class=""jspsych-btn""><img src=""stimuli/white_square.png"" style=""width: 200px;height: 200px;""></button>","null","darkgreenblue","pink","[""darkgreenblue"",""pink"",""low nameability""]","right-left","[""pink"",""darkgreenblue""]","3","low nameability","27","right","iti",""
"html-button-response","137","490064","0.0-106.0","CAN_145","145","","","","","","516","","0","turquoise","pink","[""turquoise"",""pink"",""low nameability""]","left-right","[""turquoise"",""pink"",""low nameability""]","3","low nameability","28","left","trigger",""
"html-button-response","138","490840","0.0-107.0-0.0","CAN_145","145","","","","","","770","<button class=""jspsych-btn""><img src=""stimuli/turquoise.png"" style=""width: 200px;height: 200px;""></button>","0","turquoise","pink","[""turquoise"",""pink"",""low nameability""]","left-right","[""turquoise"",""pink"",""low nameability""]","3","low nameability","28","left","response","1"
"html-audio-button-response","139","491045","0.0-107.0-1.0","CAN_145","145","","","","","","null","stimuli/bleep.m4a","null","turquoise","pink","[""turquoise"",""pink"",""low nameability""]","left-right","[""turquoise"",""pink"",""low nameability""]","3","low nameability","28","left","audio_feedback","1"
"html-button-response","140","491559","0.0-108.0","CAN_145","145","","","","","","null","<button class=""jspsych-btn""><img src=""stimuli/white_square.png"" style=""width: 200px;height: 200px;""></button>","null","turquoise","pink","[""turquoise"",""pink"",""low nameability""]","left-right","[""turquoise"",""pink"",""low nameability""]","3","low nameability","28","left","iti",""
"html-button-response","141","492256","0.0-109.0","CAN_145","145","","","","","","678","","0","turquoise","lightred","[""turquoise"",""lightred"",""low nameability""]","left-right","[""turquoise"",""lightred"",""low nameability""]","3","low nameability","29","left","trigger",""
"html-button-response","142","493304","0.0-110.0-0.0","CAN_145","145","","","","","","1041","<button class=""jspsych-btn""><img src=""stimuli/turquoise.png"" style=""width: 200px;height: 200px;""></button>","0","turquoise","lightred","[""turquoise"",""lightred"",""low nameability""]","left-right","[""turquoise"",""lightred"",""low nameability""]","3","low nameability","29","left","response","1"
"html-audio-button-response","143","493511","0.0-110.0-1.0","CAN_145","145","","","","","","null","stimuli/bleep.m4a","null","turquoise","lightred","[""turquoise"",""lightred"",""low nameability""]","left-right","[""turquoise"",""lightred"",""low nameability""]","3","low nameability","29","left","audio_feedback","1"
"html-button-response","144","494030","0.0-111.0","CAN_145","145","","","","","","null","<button class=""jspsych-btn""><img src=""stimuli/white_square.png"" style=""width: 200px;height: 200px;""></button>","null","turquoise","lightred","[""turquoise"",""lightred"",""low nameability""]","left-right","[""turquoise"",""lightred"",""low nameability""]","3","low nameability","29","left","iti",""
"html-button-response","145","494772","0.0-112.0","CAN_145","145","","","","","","721","","0","darkgreenblue","neonyellow","[""darkgreenblue"",""neonyellow"",""low nameability""]","left-right","[""darkgreenblue"",""neonyellow"",""low nameability""]","3","low nameability","30","left","trigger",""
"html-button-response","146","495621","0.0-113.0-0.0","CAN_145","145","","","","","","840","<button class=""jspsych-btn""><img src=""stimuli/darkgreenblue.png"" style=""width: 200px;height: 200px;""></button>","0","darkgreenblue","neonyellow","[""darkgreenblue"",""neonyellow"",""low nameability""]","left-right","[""darkgreenblue"",""neonyellow"",""low nameability""]","3","low nameability","30","left","response","1"
"html-audio-button-response","147","495827","0.0-113.0-1.0","CAN_145","145","","","","","","null","stimuli/bleep.m4a","null","darkgreenblue","neonyellow","[""darkgreenblue"",""neonyellow"",""low nameability""]","left-right","[""darkgreenblue"",""neonyellow"",""low nameability""]","3","low nameability","30","left","audio_feedback","1"
"html-button-response","148","496346","0.0-114.0","CAN_145","145","","","","","","null","<button class=""jspsych-btn""><img src=""stimuli/white_square.png"" style=""width: 200px;height: 200px;""></button>","null","darkgreenblue","neonyellow","[""darkgreenblue"",""neonyellow"",""low nameability""]","left-right","[""darkgreenblue"",""neonyellow"",""low nameability""]","3","low nameability","30","left","iti",""
"pavlovia","149","496416","0.0-115.0","CAN_145","145","","","","","","","","","","","","","","","","","","",""
"pavlovia","150","496423","0.0-116.0","CAN_145","145","","","","","","","","","","","","","","","","","","",""
"html-audio-button-response","151","498366","0.0-117.0","CAN_145","145","","","","","","2016","stimuli/tada.m4a","0","","","","","","","","","","",""
"html-button-response","152","499055","0.0-118.0","CAN_145","145","","","","","","683","","0","","","","","","","","","","",""
"html-button-response","153","499734","0.0-119.0","CAN_145","145","","","","","","669","","0","mustard","turquoise","[""mustard"",""turquoise"",""low nameability""]","right-left","[""turquoise"",""mustard""]","4","low nameability","31","right","trigger",""
"html-button-response","154","500674","0.0-120.0-0.0","CAN_145","145","","","","","","933","<button class=""jspsych-btn""><img src=""stimuli/mustard.png"" style=""width: 200px;height: 200px;""></button>","1","mustard","turquoise","[""mustard"",""turquoise"",""low nameability""]","right-left","[""turquoise"",""mustard""]","4","low nameability","31","right","response","1"
"html-audio-button-response","155","500881","0.0-120.0-1.0","CAN_145","145","","","","","","null","stimuli/bleep.m4a","null","mustard","turquoise","[""mustard"",""turquoise"",""low nameability""]","right-left","[""turquoise"",""mustard""]","4","low nameability","31","right","audio_feedback","1"
"html-button-response","156","501399","0.0-121.0","CAN_145","145","","","","","","null","<button class=""jspsych-btn""><img src=""stimuli/white_square.png"" style=""width: 200px;height: 200px;""></button>","null","mustard","turquoise","[""mustard"",""turquoise"",""low nameability""]","right-left","[""turquoise"",""mustard""]","4","low nameability","31","right","iti",""
"html-button-response","157","502116","0.0-122.0","CAN_145","145","","","","","","698","","0","darkgreenblue","turquoise","[""darkgreenblue"",""turquoise"",""low nameability""]","right-left","[""turquoise"",""darkgreenblue""]","4","low nameability","32","right","trigger",""
"html-button-response","158","503173","0.0-123.0-0.0","CAN_145","145","","","","","","1049","<button class=""jspsych-btn""><img src=""stimuli/darkgreenblue.png"" style=""width: 200px;height: 200px;""></button>","1","darkgreenblue","turquoise","[""darkgreenblue"",""turquoise"",""low nameability""]","right-left","[""turquoise"",""darkgreenblue""]","4","low nameability","32","right","response","1"
"html-audio-button-response","159","503377","0.0-123.0-1.0","CAN_145","145","","","","","","null","stimuli/bleep.m4a","null","darkgreenblue","turquoise","[""darkgreenblue"",""turquoise"",""low nameability""]","right-left","[""turquoise"",""darkgreenblue""]","4","low nameability","32","right","audio_feedback","1"
"html-button-response","160","503896","0.0-124.0","CAN_145","145","","","","","","null","<button class=""jspsych-btn""><img src=""stimuli/white_square.png"" style=""width: 200px;height: 200px;""></button>","null","darkgreenblue","turquoise","[""darkgreenblue"",""turquoise"",""low nameability""]","right-left","[""turquoise"",""darkgreenblue""]","4","low nameability","32","right","iti",""
"html-button-response","161","504913","0.0-125.0","CAN_145","145","","","","","","985","","0","orange","purple","[""orange"",""purple"",""high nameability""]","left-right","[""orange"",""purple"",""high nameability""]","4","high nameability","33","left","trigger",""
"html-button-response","162","505734","0.0-126.0-0.0","CAN_145","145","","","","","","812","<button class=""jspsych-btn""><img src=""stimuli/orange.png"" style=""width: 200px;height: 200px;""></button>","0","orange","purple","[""orange"",""purple"",""high nameability""]","left-right","[""orange"",""purple"",""high nameability""]","4","high nameability","33","left","response","1"
"html-audio-button-response","163","505941","0.0-126.0-1.0","CAN_145","145","","","","","","null","stimuli/bleep.m4a","null","orange","purple","[""orange"",""purple"",""high nameability""]","left-right","[""orange"",""purple"",""high nameability""]","4","high nameability","33","left","audio_feedback","1"
"html-button-response","164","506462","0.0-127.0","CAN_145","145","","","","","","null","<button class=""jspsych-btn""><img src=""stimuli/white_square.png"" style=""width: 200px;height: 200px;""></button>","null","orange","purple","[""orange"",""purple"",""high nameability""]","left-right","[""orange"",""purple"",""high nameability""]","4","high nameability","33","left","iti",""
"html-button-response","165","507129","0.0-128.0","CAN_145","145","","","","","","645","","0","lightred","turquoise","[""lightred"",""turquoise"",""low nameability""]","right-left","[""turquoise"",""lightred""]","4","low nameability","34","right","trigger",""
"html-button-response","166","508138","0.0-129.0-0.0","CAN_145","145","","","","","","1001","<button class=""jspsych-btn""><img src=""stimuli/lightred.png"" style=""width: 200px;height: 200px;""></button>","1","lightred","turquoise","[""lightred"",""turquoise"",""low nameability""]","right-left","[""turquoise"",""lightred""]","4","low nameability","34","right","response","1"
"html-audio-button-response","167","508346","0.0-129.0-1.0","CAN_145","145","","","","","","null","stimuli/bleep.m4a","null","lightred","turquoise","[""lightred"",""turquoise"",""low nameability""]","right-left","[""turquoise"",""lightred""]","4","low nameability","34","right","audio_feedback","1"
"html-button-response","168","508862","0.0-130.0","CAN_145","145","","","","","","null","<button class=""jspsych-btn""><img src=""stimuli/white_square.png"" style=""width: 200px;height: 200px;""></button>","null","lightred","turquoise","[""lightred"",""turquoise"",""low nameability""]","right-left","[""turquoise"",""lightred""]","4","low nameability","34","right","iti",""
"html-button-response","169","509412","0.0-131.0","CAN_145","145","","","","","","528","","0","lightred","pink","[""lightred"",""pink"",""low nameability""]","right-left","[""pink"",""lightred""]","4","low nameability","35","right","trigger",""
"html-button-response","170","510236","0.0-132.0-0.0","CAN_145","145","","","","","","815","<button class=""jspsych-btn""><img src=""stimuli/lightred.png"" style=""width: 200px;height: 200px;""></button>","1","lightred","pink","[""lightred"",""pink"",""low nameability""]","right-left","[""pink"",""lightred""]","4","low nameability","35","right","response","1"
"html-audio-button-response","171","510441","0.0-132.0-1.0","CAN_145","145","","","","","","null","stimuli/bleep.m4a","null","lightred","pink","[""lightred"",""pink"",""low nameability""]","right-left","[""pink"",""lightred""]","4","low nameability","35","right","audio_feedback","1"
"html-button-response","172","510963","0.0-133.0","CAN_145","145","","","","","","null","<button class=""jspsych-btn""><img src=""stimuli/white_square.png"" style=""width: 200px;height: 200px;""></button>","null","lightred","pink","[""lightred"",""pink"",""low nameability""]","right-left","[""pink"",""lightred""]","4","low nameability","35","right","iti",""
"html-button-response","173","511475","0.0-134.0","CAN_145","145","","","","","","492","","0","yellow","blue","[""yellow"",""blue"",""high nameability""]","left-right","[""yellow"",""blue"",""high nameability""]","4","high nameability","36","left","trigger",""
"html-button-response","174","512251","0.0-135.0-0.0","CAN_145","145","","","","","","769","<button class=""jspsych-btn""><img src=""stimuli/yellow.png"" style=""width: 200px;height: 200px;""></button>","0","yellow","blue","[""yellow"",""blue"",""high nameability""]","left-right","[""yellow"",""blue"",""high nameability""]","4","high nameability","36","left","response","1"
"html-audio-button-response","175","512457","0.0-135.0-1.0","CAN_145","145","","","","","","null","stimuli/bleep.m4a","null","yellow","blue","[""yellow"",""blue"",""high nameability""]","left-right","[""yellow"",""blue"",""high nameability""]","4","high nameability","36","left","audio_feedback","1"
"html-button-response","176","512978","0.0-136.0","CAN_145","145","","","","","","null","<button class=""jspsych-btn""><img src=""stimuli/white_square.png"" style=""width: 200px;height: 200px;""></button>","null","yellow","blue","[""yellow"",""blue"",""high nameability""]","left-right","[""yellow"",""blue"",""high nameability""]","4","high nameability","36","left","iti",""
"html-button-response","177","513538","0.0-137.0","CAN_145","145","","","","","","532","","0","brown","blue","[""brown"",""blue"",""high nameability""]","left-right","[""brown"",""blue"",""high nameability""]","4","high nameability","37","left","trigger",""
"html-button-response","178","514375","0.0-138.0-0.0","CAN_145","145","","","","","","824","<button class=""jspsych-btn""><img src=""stimuli/brown.png"" style=""width: 200px;height: 200px;""></button>","0","brown","blue","[""brown"",""blue"",""high nameability""]","left-right","[""brown"",""blue"",""high nameability""]","4","high nameability","37","left","response","1"
"html-audio-button-response","179","514580","0.0-138.0-1.0","CAN_145","145","","","","","","null","stimuli/bleep.m4a","null","brown","blue","[""brown"",""blue"",""high nameability""]","left-right","[""brown"",""blue"",""high nameability""]","4","high nameability","37","left","audio_feedback","1"
"html-button-response","180","515100","0.0-139.0","CAN_145","145","","","","","","null","<button class=""jspsych-btn""><img src=""stimuli/white_square.png"" style=""width: 200px;height: 200px;""></button>","null","brown","blue","[""brown"",""blue"",""high nameability""]","left-right","[""brown"",""blue"",""high nameability""]","4","high nameability","37","left","iti",""
"html-button-response","181","515764","0.0-140.0","CAN_145","145","","","","","","643","","0","purple","red","[""purple"",""red"",""high nameability""]","right-left","[""red"",""purple""]","4","high nameability","38","right","trigger",""
"html-button-response","182","516442","0.0-141.0-0.0","CAN_145","145","","","","","","666","<button class=""jspsych-btn""><img src=""stimuli/purple.png"" style=""width: 200px;height: 200px;""></button>","1","purple","red","[""purple"",""red"",""high nameability""]","right-left","[""red"",""purple""]","4","high nameability","38","right","response","1"
"html-audio-button-response","183","516659","0.0-141.0-1.0","CAN_145","145","","","","","","null","stimuli/bleep.m4a","null","purple","red","[""purple"",""red"",""high nameability""]","right-left","[""red"",""purple""]","4","high nameability","38","right","audio_feedback","1"
"html-button-response","184","517185","0.0-142.0","CAN_145","145","","","","","","null","<button class=""jspsych-btn""><img src=""stimuli/white_square.png"" style=""width: 200px;height: 200px;""></button>","null","purple","red","[""purple"",""red"",""high nameability""]","right-left","[""red"",""purple""]","4","high nameability","38","right","iti",""
"html-button-response","185","517760","0.0-143.0","CAN_145","145","","","","","","551","","0","orange","red","[""orange"",""red"",""high nameability""]","right-left","[""red"",""orange""]","4","high nameability","39","right","trigger",""
"html-button-response","186","518610","0.0-144.0-0.0","CAN_145","145","","","","","","842","<button class=""jspsych-btn""><img src=""stimuli/orange.png"" style=""width: 200px;height: 200px;""></button>","1","orange","red","[""orange"",""red"",""high nameability""]","right-left","[""red"",""orange""]","4","high nameability","39","right","response","1"
"html-audio-button-response","187","518813","0.0-144.0-1.0","CAN_145","145","","","","","","null","stimuli/bleep.m4a","null","orange","red","[""orange"",""red"",""high nameability""]","right-left","[""red"",""orange""]","4","high nameability","39","right","audio_feedback","1"
"html-button-response","188","519334","0.0-145.0","CAN_145","145","","","","","","null","<button class=""jspsych-btn""><img src=""stimuli/white_square.png"" style=""width: 200px;height: 200px;""></button>","null","orange","red","[""orange"",""red"",""high nameability""]","right-left","[""red"",""orange""]","4","high nameability","39","right","iti",""
"html-button-response","189","519910","0.0-146.0","CAN_145","145","","","","","","554","","0","red","orange","[""red"",""orange"",""high nameability""]","left-right","[""red"",""orange"",""high nameability""]","4","high nameability","40","left","trigger",""
"html-button-response","190","520705","0.0-147.0-0.0","CAN_145","145","","","","","","783","<button class=""jspsych-btn""><img src=""stimuli/red.png"" style=""width: 200px;height: 200px;""></button>","0","red","orange","[""red"",""orange"",""high nameability""]","left-right","[""red"",""orange"",""high nameability""]","4","high nameability","40","left","response","1"
"html-audio-button-response","191","520908","0.0-147.0-1.0","CAN_145","145","","","","","","null","stimuli/bleep.m4a","null","red","orange","[""red"",""orange"",""high nameability""]","left-right","[""red"",""orange"",""high nameability""]","4","high nameability","40","left","audio_feedback","1"
"html-button-response","192","521428","0.0-148.0","CAN_145","145","","","","","","null","<button class=""jspsych-btn""><img src=""stimuli/white_square.png"" style=""width: 200px;height: 200px;""></button>","null","red","orange","[""red"",""orange"",""high nameability""]","left-right","[""red"",""orange"",""high nameability""]","4","high nameability","40","left","iti",""
"pavlovia","193","521484","0.0-149.0","CAN_145","145","","","","","","","","","","","","","","","","","","",""
"pavlovia","194","521493","0.0-150.0","CAN_145","145","","","","","","","","","","","","","","","","","","",""
"html-audio-button-response","195","523320","0.0-151.0","CAN_145","145","","","","","","1891","stimuli/tada.m4a","0","","","","","","","","","","",""
"html-button-response","196","524129","0.0-152.0","CAN_145","145","","","","","","801","","0","","","","","","","","","","",""
"html-button-response","197","524845","0.0-153.0","CAN_145","145","","","","","","708","","0","lightred","mustard","[""lightred"",""mustard"",""low nameability""]","right-left","[""mustard"",""lightred""]","5","low nameability","41","right","trigger",""
"html-button-response","198","525748","0.0-154.0-0.0","CAN_145","145","","","","","","894","<button class=""jspsych-btn""><img src=""stimuli/lightred.png"" style=""width: 200px;height: 200px;""></button>","1","lightred","mustard","[""lightred"",""mustard"",""low nameability""]","right-left","[""mustard"",""lightred""]","5","low nameability","41","right","response","1"
"html-audio-button-response","199","525951","0.0-154.0-1.0","CAN_145","145","","","","","","null","stimuli/bleep.m4a","null","lightred","mustard","[""lightred"",""mustard"",""low nameability""]","right-left","[""mustard"",""lightred""]","5","low nameability","41","right","audio_feedback","1"
"html-button-response","200","526470","0.0-155.0","CAN_145","145","","","","","","null","<button class=""jspsych-btn""><img src=""stimuli/white_square.png"" style=""width: 200px;height: 200px;""></button>","null","lightred","mustard","[""lightred"",""mustard"",""low nameability""]","right-left","[""mustard"",""lightred""]","5","low nameability","41","right","iti",""
"html-button-response","201","527103","0.0-156.0","CAN_145","145","","","","","","606","","0","mustard","darkgreenblue","[""mustard"",""darkgreenblue"",""low nameability""]","right-left","[""darkgreenblue"",""mustard""]","5","low nameability","42","right","trigger",""
"html-button-response","202","527840","0.0-157.0-0.0","CAN_145","145","","","","","","726","<button class=""jspsych-btn""><img src=""stimuli/mustard.png"" style=""width: 200px;height: 200px;""></button>","1","mustard","darkgreenblue","[""mustard"",""darkgreenblue"",""low nameability""]","right-left","[""darkgreenblue"",""mustard""]","5","low nameability","42","right","response","1"
"html-audio-button-response","203","528046","0.0-157.0-1.0","CAN_145","145","","","","","","null","stimuli/bleep.m4a","null","mustard","darkgreenblue","[""mustard"",""darkgreenblue"",""low nameability""]","right-left","[""darkgreenblue"",""mustard""]","5","low nameability","42","right","audio_feedback","1"
"html-button-response","204","528566","0.0-158.0","CAN_145","145","","","","","","null","<button class=""jspsych-btn""><img src=""stimuli/white_square.png"" style=""width: 200px;height: 200px;""></button>","null","mustard","darkgreenblue","[""mustard"",""darkgreenblue"",""low nameability""]","right-left","[""darkgreenblue"",""mustard""]","5","low nameability","42","right","iti",""
"html-button-response","205","529060","0.0-159.0","CAN_145","145","","","","","","479","","0","red","yellow","[""red"",""yellow"",""high nameability""]","right-left","[""yellow"",""red""]","5","high nameability","43","right","trigger",""
"html-button-response","206","529880","0.0-160.0-0.0","CAN_145","145","","","","","","810","<button class=""jspsych-btn""><img src=""stimuli/red.png"" style=""width: 200px;height: 200px;""></button>","1","red","yellow","[""red"",""yellow"",""high nameability""]","right-left","[""yellow"",""red""]","5","high nameability","43","right","response","1"
"html-audio-button-response","207","530083","0.0-160.0-1.0","CAN_145","145","","","","","","null","stimuli/bleep.m4a","null","red","yellow","[""red"",""yellow"",""high nameability""]","right-left","[""yellow"",""red""]","5","high nameability","43","right","audio_feedback","1"
"html-button-response","208","530593","0.0-161.0","CAN_145","145","","","","","","null","<button class=""jspsych-btn""><img src=""stimuli/white_square.png"" style=""width: 200px;height: 200px;""></button>","null","red","yellow","[""red"",""yellow"",""high nameability""]","right-left","[""yellow"",""red""]","5","high nameability","43","right","iti",""
"html-button-response","209","531052","0.0-162.0","CAN_145","145","","","","","","446","","0","brown","purple","[""brown"",""purple"",""high nameability""]","left-right","[""brown"",""purple"",""high nameability""]","5","high nameability","44","left","trigger",""
"html-button-response","210","531849","0.0-163.0-0.0","CAN_145","145","","","","","","789","<button class=""jspsych-btn""><img src=""stimuli/brown.png"" style=""width: 200px;height: 200px;""></button>","0","brown","purple","[""brown"",""purple"",""high nameability""]","left-right","[""brown"",""purple"",""high nameability""]","5","high nameability","44","left","response","1"
"html-audio-button-response","211","532052","0.0-163.0-1.0","CAN_145","145","","","","","","null","stimuli/bleep.m4a","null","brown","purple","[""brown"",""purple"",""high nameability""]","left-right","[""brown"",""purple"",""high nameability""]","5","high nameability","44","left","audio_feedback","1"
"html-button-response","212","532577","0.0-164.0","CAN_145","145","","","","","","null","<button class=""jspsych-btn""><img src=""stimuli/white_square.png"" style=""width: 200px;height: 200px;""></button>","null","brown","purple","[""brown"",""purple"",""high nameability""]","left-right","[""brown"",""purple"",""high nameability""]","5","high nameability","44","left","iti",""
"html-button-response","213","533097","0.0-165.0","CAN_145","145","","","","","","496","","0","brown","red","[""brown"",""red"",""high nameability""]","left-right","[""brown"",""red"",""high nameability""]","5","high nameability","45","left","trigger",""
"html-button-response","214","533907","0.0-166.0-0.0","CAN_145","145","","","","","","803","<button class=""jspsych-btn""><img src=""stimuli/brown.png"" style=""width: 200px;height: 200px;""></button>","0","brown","red","[""brown"",""red"",""high nameability""]","left-right","[""brown"",""red"",""high nameability""]","5","high nameability","45","left","response","1"
"html-audio-button-response","215","534115","0.0-166.0-1.0","CAN_145","145","","","","","","null","stimuli/bleep.m4a","null","brown","red","[""brown"",""red"",""high nameability""]","left-right","[""brown"",""red"",""high nameability""]","5","high nameability","45","left","audio_feedback","1"
"html-button-response","216","534633","0.0-167.0","CAN_145","145","","","","","","null","<button class=""jspsych-btn""><img src=""stimuli/white_square.png"" style=""width: 200px;height: 200px;""></button>","null","brown","red","[""brown"",""red"",""high nameability""]","left-right","[""brown"",""red"",""high nameability""]","5","high nameability","45","left","iti",""
"html-button-response","217","535334","0.0-168.0","CAN_145","145","","","","","","686","","0","pink","neonyellow","[""pink"",""neonyellow"",""low nameability""]","left-right","[""pink"",""neonyellow"",""low nameability""]","5","low nameability","46","left","trigger",""
"html-button-response","218","536292","0.0-169.0-0.0","CAN_145","145","","","","","","949","<button class=""jspsych-btn""><img src=""stimuli/pink.png"" style=""width: 200px;height: 200px;""></button>","0","pink","neonyellow","[""pink"",""neonyellow"",""low nameability""]","left-right","[""pink"",""neonyellow"",""low nameability""]","5","low nameability","46","left","response","1"
"html-audio-button-response","219","536501","0.0-169.0-1.0","CAN_145","145","","","","","","null","stimuli/bleep.m4a","null","pink","neonyellow","[""pink"",""neonyellow"",""low nameability""]","left-right","[""pink"",""neonyellow"",""low nameability""]","5","low nameability","46","left","audio_feedback","1"
"html-button-response","220","537018","0.0-170.0","CAN_145","145","","","","","","null","<button class=""jspsych-btn""><img src=""stimuli/white_square.png"" style=""width: 200px;height: 200px;""></button>","null","pink","neonyellow","[""pink"",""neonyellow"",""low nameability""]","left-right","[""pink"",""neonyellow"",""low nameability""]","5","low nameability","46","left","iti",""
"html-button-response","221","537421","0.0-171.0","CAN_145","145","","","","","","388","","0","red","blue","[""red"",""blue"",""high nameability""]","right-left","[""blue"",""red""]","5","high nameability","47","right","trigger",""
"html-button-response","222","538289","0.0-172.0-0.0","CAN_145","145","","","","","","861","<button class=""jspsych-btn""><img src=""stimuli/red.png"" style=""width: 200px;height: 200px;""></button>","1","red","blue","[""red"",""blue"",""high nameability""]","right-left","[""blue"",""red""]","5","high nameability","47","right","response","1"
"html-audio-button-response","223","538493","0.0-172.0-1.0","CAN_145","145","","","","","","null","stimuli/bleep.m4a","null","red","blue","[""red"",""blue"",""high nameability""]","right-left","[""blue"",""red""]","5","high nameability","47","right","audio_feedback","1"
"html-button-response","224","539009","0.0-173.0","CAN_145","145","","","","","","null","<button class=""jspsych-btn""><img src=""stimuli/white_square.png"" style=""width: 200px;height: 200px;""></button>","null","red","blue","[""red"",""blue"",""high nameability""]","right-left","[""blue"",""red""]","5","high nameability","47","right","iti",""
"html-button-response","225","539557","0.0-174.0","CAN_145","145","","","","","","532","","0","orange","yellow","[""orange"",""yellow"",""high nameability""]","left-right","[""orange"",""yellow"",""high nameability""]","5","high nameability","48","left","trigger",""
"html-button-response","226","540370","0.0-175.0-0.0","CAN_145","145","","","","","","805","<button class=""jspsych-btn""><img src=""stimuli/orange.png"" style=""width: 200px;height: 200px;""></button>","0","orange","yellow","[""orange"",""yellow"",""high nameability""]","left-right","[""orange"",""yellow"",""high nameability""]","5","high nameability","48","left","response","1"
"html-audio-button-response","227","540572","0.0-175.0-1.0","CAN_145","145","","","","","","null","stimuli/bleep.m4a","null","orange","yellow","[""orange"",""yellow"",""high nameability""]","left-right","[""orange"",""yellow"",""high nameability""]","5","high nameability","48","left","audio_feedback","1"
"html-button-response","228","541090","0.0-176.0","CAN_145","145","","","","","","null","<button class=""jspsych-btn""><img src=""stimuli/white_square.png"" style=""width: 200px;height: 200px;""></button>","null","orange","yellow","[""orange"",""yellow"",""high nameability""]","left-right","[""orange"",""yellow"",""high nameability""]","5","high nameability","48","left","iti",""
"html-button-response","229","541626","0.0-177.0","CAN_145","145","","","","","","521","","0","yellow","purple","[""yellow"",""purple"",""high nameability""]","right-left","[""purple"",""yellow""]","5","high nameability","49","right","trigger",""
"html-button-response","230","542347","0.0-178.0-0.0","CAN_145","145","","","","","","715","<button class=""jspsych-btn""><img src=""stimuli/yellow.png"" style=""width: 200px;height: 200px;""></button>","1","yellow","purple","[""yellow"",""purple"",""high nameability""]","right-left","[""purple"",""yellow""]","5","high nameability","49","right","response","1"
"html-audio-button-response","231","542549","0.0-178.0-1.0","CAN_145","145","","","","","","null","stimuli/bleep.m4a","null","yellow","purple","[""yellow"",""purple"",""high nameability""]","right-left","[""purple"",""yellow""]","5","high nameability","49","right","audio_feedback","1"
"html-button-response","232","543078","0.0-179.0","CAN_145","145","","","","","","null","<button class=""jspsych-btn""><img src=""stimuli/white_square.png"" style=""width: 200px;height: 200px;""></button>","null","yellow","purple","[""yellow"",""purple"",""high nameability""]","right-left","[""purple"",""yellow""]","5","high nameability","49","right","iti",""
"html-button-response","233","543639","0.0-180.0","CAN_145","145","","","","","","545","","0","blue","purple","[""blue"",""purple"",""high nameability""]","right-left","[""purple"",""blue""]","5","high nameability","50","right","trigger",""
"html-button-response","234","544606","0.0-181.0-0.0","CAN_145","145","","","","","","958","<button class=""jspsych-btn""><img src=""stimuli/blue.png"" style=""width: 200px;height: 200px;""></button>","1","blue","purple","[""blue"",""purple"",""high nameability""]","right-left","[""purple"",""blue""]","5","high nameability","50","right","response","1"
"html-audio-button-response","235","544810","0.0-181.0-1.0","CAN_145","145","","","","","","null","stimuli/bleep.m4a","null","blue","purple","[""blue"",""purple"",""high nameability""]","right-left","[""purple"",""blue""]","5","high nameability","50","right","audio_feedback","1"
"html-button-response","236","545331","0.0-182.0","CAN_145","145","","","","","","null","<button class=""jspsych-btn""><img src=""stimuli/white_square.png"" style=""width: 200px;height: 200px;""></button>","null","blue","purple","[""blue"",""purple"",""high nameability""]","right-left","[""purple"",""blue""]","5","high nameability","50","right","iti",""
"pavlovia","237","545387","0.0-183.0","CAN_145","145","","","","","","","","","","","","","","","","","","",""
"pavlovia","238","545395","0.0-184.0","CAN_145","145","","","","","","","","","","","","","","","","","","",""
"html-audio-button-response","239","546810","0.0-185.0","CAN_145","145","","","","","","1485","stimuli/tada.m4a","0","","","","","","","","","","",""
"html-button-response","240","547518","0.0-186.0","CAN_145","145","","","","","","704","","0","","","","","","","","","","",""
"html-button-response","241","548031","0.0-187.0","CAN_145","145","","","","","","504","","0","lightred","darkgreenblue","[""lightred"",""darkgreenblue"",""low nameability""]","left-right","[""lightred"",""darkgreenblue"",""low nameability""]","6","low nameability","51","left","trigger",""
"html-button-response","242","548874","0.0-188.0-0.0","CAN_145","145","","","","","","836","<button class=""jspsych-btn""><img src=""stimuli/lightred.png"" style=""width: 200px;height: 200px;""></button>","0","lightred","darkgreenblue","[""lightred"",""darkgreenblue"",""low nameability""]","left-right","[""lightred"",""darkgreenblue"",""low nameability""]","6","low nameability","51","left","response","1"
"html-audio-button-response","243","549080","0.0-188.0-1.0","CAN_145","145","","","","","","null","stimuli/bleep.m4a","null","lightred","darkgreenblue","[""lightred"",""darkgreenblue"",""low nameability""]","left-right","[""lightred"",""darkgreenblue"",""low nameability""]","6","low nameability","51","left","audio_feedback","1"
"html-button-response","244","549599","0.0-189.0","CAN_145","145","","","","","","null","<button class=""jspsych-btn""><img src=""stimuli/white_square.png"" style=""width: 200px;height: 200px;""></button>","null","lightred","darkgreenblue","[""lightred"",""darkgreenblue"",""low nameability""]","left-right","[""lightred"",""darkgreenblue"",""low nameability""]","6","low nameability","51","left","iti",""
"html-button-response","245","550054","0.0-190.0","CAN_145","145","","","","","","437","","0","pink","lightred","[""pink"",""lightred"",""low nameability""]","right-left","[""lightred"",""pink""]","6","low nameability","52","right","trigger",""
"html-button-response","246","550995","0.0-191.0-0.0","CAN_145","145","","","","","","932","<button class=""jspsych-btn""><img src=""stimuli/pink.png"" style=""width: 200px;height: 200px;""></button>","1","pink","lightred","[""pink"",""lightred"",""low nameability""]","right-left","[""lightred"",""pink""]","6","low nameability","52","right","response","1"
"html-audio-button-response","247","551201","0.0-191.0-1.0","CAN_145","145","","","","","","null","stimuli/bleep.m4a","null","pink","lightred","[""pink"",""lightred"",""low nameability""]","right-left","[""lightred"",""pink""]","6","low nameability","52","right","audio_feedback","1"
"html-button-response","248","551753","0.0-192.0","CAN_145","145","","","","","","null","<button class=""jspsych-btn""><img src=""stimuli/white_square.png"" style=""width: 200px;height: 200px;""></button>","null","pink","lightred","[""pink"",""lightred"",""low nameability""]","right-left","[""lightred"",""pink""]","6","low nameability","52","right","iti",""
"html-button-response","249","552425","0.0-193.0","CAN_145","145","","","","","","663","","0","red","purple","[""red"",""purple"",""high nameability""]","left-right","[""red"",""purple"",""high nameability""]","6","high nameability","53","left","trigger",""
"html-button-response","250","553245","0.0-194.0-0.0","CAN_145","145","","","","","","813","<button class=""jspsych-btn""><img src=""stimuli/red.png"" style=""width: 200px;height: 200px;""></button>","0","red","purple","[""red"",""purple"",""high nameability""]","left-right","[""red"",""purple"",""high nameability""]","6","high nameability","53","left","response","1"
"html-audio-button-response","251","553450","0.0-194.0-1.0","CAN_145","145","","","","","","null","stimuli/bleep.m4a","null","red","purple","[""red"",""purple"",""high nameability""]","left-right","[""red"",""purple"",""high nameability""]","6","high nameability","53","left","audio_feedback","1"
"html-button-response","252","553972","0.0-195.0","CAN_145","145","","","","","","null","<button class=""jspsych-btn""><img src=""stimuli/white_square.png"" style=""width: 200px;height: 200px;""></button>","null","red","purple","[""red"",""purple"",""high nameability""]","left-right","[""red"",""purple"",""high nameability""]","6","high nameability","53","left","iti",""
"html-button-response","253","554600","0.0-196.0","CAN_145","145","","","","","","611","","0","turquoise","mustard","[""turquoise"",""mustard"",""low nameability""]","left-right","[""turquoise"",""mustard"",""low nameability""]","6","low nameability","54","left","trigger",""
"html-button-response","254","555610","0.0-197.0-0.0","CAN_145","145","","","","","","1000","<button class=""jspsych-btn""><img src=""stimuli/turquoise.png"" style=""width: 200px;height: 200px;""></button>","0","turquoise","mustard","[""turquoise"",""mustard"",""low nameability""]","left-right","[""turquoise"",""mustard"",""low nameability""]","6","low nameability","54","left","response","1"
"html-audio-button-response","255","555832","0.0-197.0-1.0","CAN_145","145","","","","","","null","stimuli/bleep.m4a","null","turquoise","mustard","[""turquoise"",""mustard"",""low nameability""]","left-right","[""turquoise"",""mustard"",""low nameability""]","6","low nameability","54","left","audio_feedback","1"
"html-button-response","256","556368","0.0-198.0","CAN_145","145","","","","","","null","<button class=""jspsych-btn""><img src=""stimuli/white_square.png"" style=""width: 200px;height: 200px;""></button>","null","turquoise","mustard","[""turquoise"",""mustard"",""low nameability""]","left-right","[""turquoise"",""mustard"",""low nameability""]","6","low nameability","54","left","iti",""
"html-button-response","257","556827","0.0-199.0","CAN_145","145","","","","","","428","","0","blue","brown","[""blue"",""brown"",""high nameability""]","left-right","[""blue"",""brown"",""high nameability""]","6","high nameability","55","left","trigger",""
"html-button-response","258","557592","0.0-200.0-0.0","CAN_145","145","","","","","","753","<button class=""jspsych-btn""><img src=""stimuli/blue.png"" style=""width: 200px;height: 200px;""></button>","0","blue","brown","[""blue"",""brown"",""high nameability""]","left-right","[""blue"",""brown"",""high nameability""]","6","high nameability","55","left","response","1"
"html-audio-button-response","259","557804","0.0-200.0-1.0","CAN_145","145","","","","","","null","stimuli/bleep.m4a","null","blue","brown","[""blue"",""brown"",""high nameability""]","left-right","[""blue"",""brown"",""high nameability""]","6","high nameability","55","left","audio_feedback","1"
"html-button-response","260","558322","0.0-201.0","CAN_145","145","","","","","","null","<button class=""jspsych-btn""><img src=""stimuli/white_square.png"" style=""width: 200px;height: 200px;""></button>","null","blue","brown","[""blue"",""brown"",""high nameability""]","left-right","[""blue"",""brown"",""high nameability""]","6","high nameability","55","left","iti",""
"html-button-response","261","558869","0.0-202.0","CAN_145","145","","","","","","528","","0","pink","mustard","[""pink"",""mustard"",""low nameability""]","right-left","[""mustard"",""pink""]","6","low nameability","56","right","trigger",""
"html-button-response","262","559513","0.0-203.0-0.0","CAN_145","145","","","","","","634","<button class=""jspsych-btn""><img src=""stimuli/pink.png"" style=""width: 200px;height: 200px;""></button>","1","pink","mustard","[""pink"",""mustard"",""low nameability""]","right-left","[""mustard"",""pink""]","6","low nameability","56","right","response","1"
"html-audio-button-response","263","559720","0.0-203.0-1.0","CAN_145","145","","","","","","null","stimuli/bleep.m4a","null","pink","mustard","[""pink"",""mustard"",""low nameability""]","right-left","[""mustard"",""pink""]","6","low nameability","56","right","audio_feedback","1"
"html-button-response","264","560261","0.0-204.0","CAN_145","145","","","","","","null","<button class=""jspsych-btn""><img src=""stimuli/white_square.png"" style=""width: 200px;height: 200px;""></button>","null","pink","mustard","[""pink"",""mustard"",""low nameability""]","right-left","[""mustard"",""pink""]","6","low nameability","56","right","iti",""
"html-button-response","265","560743","0.0-205.0","CAN_145","145","","","","","","449","","0","neonyellow","darkgreenblue","[""neonyellow"",""darkgreenblue"",""low nameability""]","right-left","[""darkgreenblue"",""neonyellow""]","6","low nameability","57","right","trigger",""
"html-button-response","266","561443","0.0-206.0-0.0","CAN_145","145","","","","","","681","<button class=""jspsych-btn""><img src=""stimuli/neonyellow.png"" style=""width: 200px;height: 200px;""></button>","1","neonyellow","darkgreenblue","[""neonyellow"",""darkgreenblue"",""low nameability""]","right-left","[""darkgreenblue"",""neonyellow""]","6","low nameability","57","right","response","1"
"html-audio-button-response","267","561659","0.0-206.0-1.0","CAN_145","145","","","","","","null","stimuli/bleep.m4a","null","neonyellow","darkgreenblue","[""neonyellow"",""darkgreenblue"",""low nameability""]","right-left","[""darkgreenblue"",""neonyellow""]","6","low nameability","57","right","audio_feedback","1"
"html-button-response","268","562192","0.0-207.0","CAN_145","145","","","","","","null","<button class=""jspsych-btn""><img src=""stimuli/white_square.png"" style=""width: 200px;height: 200px;""></button>","null","neonyellow","darkgreenblue","[""neonyellow"",""darkgreenblue"",""low nameability""]","right-left","[""darkgreenblue"",""neonyellow""]","6","low nameability","57","right","iti",""
"html-button-response","269","562640","0.0-208.0","CAN_145","145","","","","","","417","","0","blue","orange","[""blue"",""orange"",""high nameability""]","left-right","[""blue"",""orange"",""high nameability""]","6","high nameability","58","left","trigger",""
"html-button-response","270","563414","0.0-209.0-0.0","CAN_145","145","","","","","","761","<button class=""jspsych-btn""><img src=""stimuli/blue.png"" style=""width: 200px;height: 200px;""></button>","0","blue","orange","[""blue"",""orange"",""high nameability""]","left-right","[""blue"",""orange"",""high nameability""]","6","high nameability","58","left","response","1"
"html-audio-button-response","271","563630","0.0-209.0-1.0","CAN_145","145","","","","","","null","stimuli/bleep.m4a","null","blue","orange","[""blue"",""orange"",""high nameability""]","left-right","[""blue"",""orange"",""high nameability""]","6","high nameability","58","left","audio_feedback","1"
"html-button-response","272","564158","0.0-210.0","CAN_145","145","","","","","","null","<button class=""jspsych-btn""><img src=""stimuli/white_square.png"" style=""width: 200px;height: 200px;""></button>","null","blue","orange","[""blue"",""orange"",""high nameability""]","left-right","[""blue"",""orange"",""high nameability""]","6","high nameability","58","left","iti",""
"html-button-response","273","564712","0.0-211.0","CAN_145","145","","","","","","529","","0","mustard","lightred","[""mustard"",""lightred"",""low nameability""]","right-left","[""lightred"",""mustard""]","6","low nameability","59","right","trigger",""
"html-button-response","274","565459","0.0-212.0-0.0","CAN_145","145","","","","","","738","<button class=""jspsych-btn""><img src=""stimuli/mustard.png"" style=""width: 200px;height: 200px;""></button>","1","mustard","lightred","[""mustard"",""lightred"",""low nameability""]","right-left","[""lightred"",""mustard""]","6","low nameability","59","right","response","1"
"html-audio-button-response","275","565669","0.0-212.0-1.0","CAN_145","145","","","","","","null","stimuli/bleep.m4a","null","mustard","lightred","[""mustard"",""lightred"",""low nameability""]","right-left","[""lightred"",""mustard""]","6","low nameability","59","right","audio_feedback","1"
"html-button-response","276","566190","0.0-213.0","CAN_145","145","","","","","","null","<button class=""jspsych-btn""><img src=""stimuli/white_square.png"" style=""width: 200px;height: 200px;""></button>","null","mustard","lightred","[""mustard"",""lightred"",""low nameability""]","right-left","[""lightred"",""mustard""]","6","low nameability","59","right","iti",""
"html-button-response","277","566780","0.0-214.0","CAN_145","145","","","","","","569","","0","yellow","brown","[""yellow"",""brown"",""high nameability""]","left-right","[""yellow"",""brown"",""high nameability""]","6","high nameability","60","left","trigger",""
"html-button-response","278","567422","0.0-215.0-0.0","CAN_145","145","","","","","","631","<button class=""jspsych-btn""><img src=""stimuli/yellow.png"" style=""width: 200px;height: 200px;""></button>","0","yellow","brown","[""yellow"",""brown"",""high nameability""]","left-right","[""yellow"",""brown"",""high nameability""]","6","high nameability","60","left","response","1"
"html-audio-button-response","279","567629","0.0-215.0-1.0","CAN_145","145","","","","","","null","stimuli/bleep.m4a","null","yellow","brown","[""yellow"",""brown"",""high nameability""]","left-right","[""yellow"",""brown"",""high nameability""]","6","high nameability","60","left","audio_feedback","1"
"html-button-response","280","568165","0.0-216.0","CAN_145","145","","","","","","null","<button class=""jspsych-btn""><img src=""stimuli/white_square.png"" style=""width: 200px;height: 200px;""></button>","null","yellow","brown","[""yellow"",""brown"",""high nameability""]","left-right","[""yellow"",""brown"",""high nameability""]","6","high nameability","60","left","iti",""
