"trial_type","trial_index","time_elapsed","internal_node_id","subject_id","seed","success","timeout","failed_images","failed_audio","failed_video","rt","stimulus","response","target","foil","choices","combination_order","choices_in_order","round","condition","trial_counter","target_location","trial_kind","correct"
"pavlovia","0","19","0.0-0.0","CAN_110","110","","","","","","","","","","","","","","","","","","",""
"preload","1","1253","0.0-1.0","CAN_110","110","true","false","[]","[]","[]","","","","","","","","","","","","","",""
"fullscreen","2","623691","0.0-2.0","CAN_110","110","true","","","","","","","","","","","","","","","","","",""
"html-button-response","3","681474","0.0-3.0","CAN_110","110","","","","","","57743","","0","","","","","","","","","","",""
"html-button-response","4","682843","0.0-4.0","CAN_110","110","","","","","","1355","","0","star","square","[""square"",""star""]","left-right","[""square"",""star""]","1","practice","1","right","trigger",""
"html-button-response","5","693997","0.0-5.0-0.0","CAN_110","110","","","","","","11140","<button class=""jspsych-btn""><img src=""stimuli/star.png"" style=""width: 200px;height: 200px;""></button>","1","star","square","[""square"",""star""]","left-right","[""square"",""star""]","1","practice","1","right","response","1"
"html-audio-button-response","6","694207","0.0-5.0-1.0","CAN_110","110","","","","","","null","stimuli/bleep.m4a","null","star","square","[""square"",""star""]","left-right","[""square"",""star""]","1","practice","1","right","audio_feedback","1"
"html-button-response","7","694735","0.0-6.0","CAN_110","110","","","","","","null","<button class=""jspsych-btn""><img src=""stimuli/white_square.png"" style=""width: 200px;height: 200px;""></button>","null","star","square","[""square"",""star""]","left-right","[""square"",""star""]","1","practice","1","right","iti",""
"html-button-response","8","696480","0.0-7.0","CAN_110","110","","","","","","1730","","0","triangle","pentagram","[""triangle"",""pentagram""]","left-right","[""triangle"",""pentagram""]","1","practice","1","left","trigger",""
"html-button-response","9","697661","0.0-8.0-0.0","CAN_110","110","","","","","","1171","<button class=""jspsych-btn""><img src=""stimuli/triangle.png"" style=""width: 200px;height: 200px;""></button>","0","triangle","pentagram","[""triangle"",""pentagram""]","left-right","[""triangle"",""pentagram""]","1","practice","1","left","response","1"
"html-audio-button-response","10","697869","0.0-8.0-1.0","CAN_110","110","","","","","","null","stimuli/bleep.m4a","null","triangle","pentagram","[""triangle"",""pentagram""]","left-right","[""triangle"",""pentagram""]","1","practice","1","left","audio_feedback","1"
"html-button-response","11","698392","0.0-9.0","CAN_110","110","","","","","","null","<button class=""jspsych-btn""><img src=""stimuli/white_square.png"" style=""width: 200px;height: 200px;""></button>","null","triangle","pentagram","[""triangle"",""pentagram""]","left-right","[""triangle"",""pentagram""]","1","practice","1","left","iti",""
"html-button-response","12","703386","0.0-10.0","CAN_110","110","","","","","","4976","","0","diamond","rectangle","[""rectangle"",""diamond""]","left-right","[""rectangle"",""diamond""]","1","practice","1","right","trigger",""
"html-button-response","13","704431","0.0-11.0-0.0","CAN_110","110","","","","","","1031","<button class=""jspsych-btn""><img src=""stimuli/diamond.png"" style=""width: 200px;height: 200px;""></button>","1","diamond","rectangle","[""rectangle"",""diamond""]","left-right","[""rectangle"",""diamond""]","1","practice","1","right","response","1"
"html-audio-button-response","14","704637","0.0-11.0-1.0","CAN_110","110","","","","","","null","stimuli/bleep.m4a","null","diamond","rectangle","[""rectangle"",""diamond""]","left-right","[""rectangle"",""diamond""]","1","practice","1","right","audio_feedback","1"
"html-button-response","15","705160","0.0-12.0","CAN_110","110","","","","","","null","<button class=""jspsych-btn""><img src=""stimuli/white_square.png"" style=""width: 200px;height: 200px;""></button>","null","diamond","rectangle","[""rectangle"",""diamond""]","left-right","[""rectangle"",""diamond""]","1","practice","1","right","iti",""
"html-button-response","16","706022","0.0-13.0","CAN_110","110","","","","","","843","","0","pentagram","star","[""pentagram"",""star""]","left-right","[""pentagram"",""star""]","1","practice","1","left","trigger",""
"html-button-response","17","706869","0.0-14.0-0.0","CAN_110","110","","","","","","838","<button class=""jspsych-btn""><img src=""stimuli/pentagram.png"" style=""width: 200px;height: 200px;""></button>","0","pentagram","star","[""pentagram"",""star""]","left-right","[""pentagram"",""star""]","1","practice","1","left","response","1"
"html-audio-button-response","18","707074","0.0-14.0-1.0","CAN_110","110","","","","","","null","stimuli/bleep.m4a","null","pentagram","star","[""pentagram"",""star""]","left-right","[""pentagram"",""star""]","1","practice","1","left","audio_feedback","1"
"html-button-response","19","707598","0.0-15.0","CAN_110","110","","","","","","null","<button class=""jspsych-btn""><img src=""stimuli/white_square.png"" style=""width: 200px;height: 200px;""></button>","null","pentagram","star","[""pentagram"",""star""]","left-right","[""pentagram"",""star""]","1","practice","1","left","iti",""
"html-button-response","20","709769","0.0-16.0","CAN_110","110","","","","","","2155","","0","","","","","","","","","","",""
"html-button-response","21","711050","0.0-17.0","CAN_110","110","","","","","","1271","","0","mustard","darkgreenblue","[""mustard"",""darkgreenblue"",""low nameability""]","left-right","[""mustard"",""darkgreenblue"",""low nameability""]","1","low nameability","1","left","trigger",""
"html-button-response","22","712035","0.0-18.0-0.0","CAN_110","110","","","","","","972","<button class=""jspsych-btn""><img src=""stimuli/mustard.png"" style=""width: 200px;height: 200px;""></button>","0","mustard","darkgreenblue","[""mustard"",""darkgreenblue"",""low nameability""]","left-right","[""mustard"",""darkgreenblue"",""low nameability""]","1","low nameability","1","left","response","1"
"html-audio-button-response","23","712238","0.0-18.0-1.0","CAN_110","110","","","","","","null","stimuli/bleep.m4a","null","mustard","darkgreenblue","[""mustard"",""darkgreenblue"",""low nameability""]","left-right","[""mustard"",""darkgreenblue"",""low nameability""]","1","low nameability","1","left","audio_feedback","1"
"html-button-response","24","712760","0.0-19.0","CAN_110","110","","","","","","null","<button class=""jspsych-btn""><img src=""stimuli/white_square.png"" style=""width: 200px;height: 200px;""></button>","null","mustard","darkgreenblue","[""mustard"",""darkgreenblue"",""low nameability""]","left-right","[""mustard"",""darkgreenblue"",""low nameability""]","1","low nameability","1","left","iti",""
"html-button-response","25","713639","0.0-20.0","CAN_110","110","","","","","","861","","0","turquoise","neonyellow","[""turquoise"",""neonyellow"",""low nameability""]","left-right","[""turquoise"",""neonyellow"",""low nameability""]","1","low nameability","2","left","trigger",""
"html-button-response","26","714567","0.0-21.0-0.0","CAN_110","110","","","","","","918","<button class=""jspsych-btn""><img src=""stimuli/turquoise.png"" style=""width: 200px;height: 200px;""></button>","0","turquoise","neonyellow","[""turquoise"",""neonyellow"",""low nameability""]","left-right","[""turquoise"",""neonyellow"",""low nameability""]","1","low nameability","2","left","response","1"
"html-audio-button-response","27","714773","0.0-21.0-1.0","CAN_110","110","","","","","","null","stimuli/bleep.m4a","null","turquoise","neonyellow","[""turquoise"",""neonyellow"",""low nameability""]","left-right","[""turquoise"",""neonyellow"",""low nameability""]","1","low nameability","2","left","audio_feedback","1"
"html-button-response","28","715294","0.0-22.0","CAN_110","110","","","","","","null","<button class=""jspsych-btn""><img src=""stimuli/white_square.png"" style=""width: 200px;height: 200px;""></button>","null","turquoise","neonyellow","[""turquoise"",""neonyellow"",""low nameability""]","left-right","[""turquoise"",""neonyellow"",""low nameability""]","1","low nameability","2","left","iti",""
"html-button-response","29","716030","0.0-23.0","CAN_110","110","","","","","","717","","0","brown","orange","[""brown"",""orange"",""high nameability""]","left-right","[""brown"",""orange"",""high nameability""]","1","high nameability","3","left","trigger",""
"html-button-response","30","716933","0.0-24.0-0.0","CAN_110","110","","","","","","894","<button class=""jspsych-btn""><img src=""stimuli/brown.png"" style=""width: 200px;height: 200px;""></button>","0","brown","orange","[""brown"",""orange"",""high nameability""]","left-right","[""brown"",""orange"",""high nameability""]","1","high nameability","3","left","response","1"
"html-audio-button-response","31","717141","0.0-24.0-1.0","CAN_110","110","","","","","","null","stimuli/bleep.m4a","null","brown","orange","[""brown"",""orange"",""high nameability""]","left-right","[""brown"",""orange"",""high nameability""]","1","high nameability","3","left","audio_feedback","1"
"html-button-response","32","717661","0.0-25.0","CAN_110","110","","","","","","null","<button class=""jspsych-btn""><img src=""stimuli/white_square.png"" style=""width: 200px;height: 200px;""></button>","null","brown","orange","[""brown"",""orange"",""high nameability""]","left-right","[""brown"",""orange"",""high nameability""]","1","high nameability","3","left","iti",""
"html-button-response","33","718473","0.0-26.0","CAN_110","110","","","","","","781","","0","brown","yellow","[""brown"",""yellow"",""high nameability""]","left-right","[""brown"",""yellow"",""high nameability""]","1","high nameability","4","left","trigger",""
"html-button-response","34","719194","0.0-27.0-0.0","CAN_110","110","","","","","","712","<button class=""jspsych-btn""><img src=""stimuli/brown.png"" style=""width: 200px;height: 200px;""></button>","0","brown","yellow","[""brown"",""yellow"",""high nameability""]","left-right","[""brown"",""yellow"",""high nameability""]","1","high nameability","4","left","response","1"
"html-audio-button-response","35","719401","0.0-27.0-1.0","CAN_110","110","","","","","","null","stimuli/bleep.m4a","null","brown","yellow","[""brown"",""yellow"",""high nameability""]","left-right","[""brown"",""yellow"",""high nameability""]","1","high nameability","4","left","audio_feedback","1"
"html-button-response","36","719923","0.0-28.0","CAN_110","110","","","","","","null","<button class=""jspsych-btn""><img src=""stimuli/white_square.png"" style=""width: 200px;height: 200px;""></button>","null","brown","yellow","[""brown"",""yellow"",""high nameability""]","left-right","[""brown"",""yellow"",""high nameability""]","1","high nameability","4","left","iti",""
"html-button-response","37","720650","0.0-29.0","CAN_110","110","","","","","","710","","0","purple","red","[""purple"",""red"",""high nameability""]","left-right","[""purple"",""red"",""high nameability""]","1","high nameability","5","left","trigger",""
"html-button-response","38","721393","0.0-30.0-0.0","CAN_110","110","","","","","","735","<button class=""jspsych-btn""><img src=""stimuli/purple.png"" style=""width: 200px;height: 200px;""></button>","0","purple","red","[""purple"",""red"",""high nameability""]","left-right","[""purple"",""red"",""high nameability""]","1","high nameability","5","left","response","1"
"html-audio-button-response","39","721597","0.0-30.0-1.0","CAN_110","110","","","","","","null","stimuli/bleep.m4a","null","purple","red","[""purple"",""red"",""high nameability""]","left-right","[""purple"",""red"",""high nameability""]","1","high nameability","5","left","audio_feedback","1"
"html-button-response","40","722114","0.0-31.0","CAN_110","110","","","","","","null","<button class=""jspsych-btn""><img src=""stimuli/white_square.png"" style=""width: 200px;height: 200px;""></button>","null","purple","red","[""purple"",""red"",""high nameability""]","left-right","[""purple"",""red"",""high nameability""]","1","high nameability","5","left","iti",""
"html-button-response","41","722922","0.0-32.0","CAN_110","110","","","","","","791","","0","purple","orange","[""purple"",""orange"",""high nameability""]","right-left","[""orange"",""purple""]","1","high nameability","6","right","trigger",""
"html-button-response","42","723583","0.0-33.0-0.0","CAN_110","110","","","","","","653","<button class=""jspsych-btn""><img src=""stimuli/purple.png"" style=""width: 200px;height: 200px;""></button>","1","purple","orange","[""purple"",""orange"",""high nameability""]","right-left","[""orange"",""purple""]","1","high nameability","6","right","response","1"
"html-audio-button-response","43","723784","0.0-33.0-1.0","CAN_110","110","","","","","","null","stimuli/bleep.m4a","null","purple","orange","[""purple"",""orange"",""high nameability""]","right-left","[""orange"",""purple""]","1","high nameability","6","right","audio_feedback","1"
"html-button-response","44","724305","0.0-34.0","CAN_110","110","","","","","","null","<button class=""jspsych-btn""><img src=""stimuli/white_square.png"" style=""width: 200px;height: 200px;""></button>","null","purple","orange","[""purple"",""orange"",""high nameability""]","right-left","[""orange"",""purple""]","1","high nameability","6","right","iti",""
"html-button-response","45","725015","0.0-35.0","CAN_110","110","","","","","","691","","0","blue","purple","[""blue"",""purple"",""high nameability""]","left-right","[""blue"",""purple"",""high nameability""]","1","high nameability","7","left","trigger",""
"html-button-response","46","725877","0.0-36.0-0.0","CAN_110","110","","","","","","854","<button class=""jspsych-btn""><img src=""stimuli/blue.png"" style=""width: 200px;height: 200px;""></button>","0","blue","purple","[""blue"",""purple"",""high nameability""]","left-right","[""blue"",""purple"",""high nameability""]","1","high nameability","7","left","response","1"
"html-audio-button-response","47","726083","0.0-36.0-1.0","CAN_110","110","","","","","","null","stimuli/bleep.m4a","null","blue","purple","[""blue"",""purple"",""high nameability""]","left-right","[""blue"",""purple"",""high nameability""]","1","high nameability","7","left","audio_feedback","1"
"html-button-response","48","726604","0.0-37.0","CAN_110","110","","","","","","null","<button class=""jspsych-btn""><img src=""stimuli/white_square.png"" style=""width: 200px;height: 200px;""></button>","null","blue","purple","[""blue"",""purple"",""high nameability""]","left-right","[""blue"",""purple"",""high nameability""]","1","high nameability","7","left","iti",""
"html-button-response","49","727428","0.0-38.0","CAN_110","110","","","","","","812","","0","orange","red","[""orange"",""red"",""high nameability""]","left-right","[""orange"",""red"",""high nameability""]","1","high nameability","8","left","trigger",""
"html-button-response","50","728188","0.0-39.0-0.0","CAN_110","110","","","","","","754","<button class=""jspsych-btn""><img src=""stimuli/orange.png"" style=""width: 200px;height: 200px;""></button>","0","orange","red","[""orange"",""red"",""high nameability""]","left-right","[""orange"",""red"",""high nameability""]","1","high nameability","8","left","response","1"
"html-audio-button-response","51","728394","0.0-39.0-1.0","CAN_110","110","","","","","","null","stimuli/bleep.m4a","null","orange","red","[""orange"",""red"",""high nameability""]","left-right","[""orange"",""red"",""high nameability""]","1","high nameability","8","left","audio_feedback","1"
"html-button-response","52","728923","0.0-40.0","CAN_110","110","","","","","","null","<button class=""jspsych-btn""><img src=""stimuli/white_square.png"" style=""width: 200px;height: 200px;""></button>","null","orange","red","[""orange"",""red"",""high nameability""]","left-right","[""orange"",""red"",""high nameability""]","1","high nameability","8","left","iti",""
"html-button-response","53","729431","0.0-41.0","CAN_110","110","","","","","","489","","0","mustard","pink","[""mustard"",""pink"",""low nameability""]","left-right","[""mustard"",""pink"",""low nameability""]","1","low nameability","9","left","trigger",""
"html-button-response","54","730151","0.0-42.0-0.0","CAN_110","110","","","","","","713","<button class=""jspsych-btn""><img src=""stimuli/mustard.png"" style=""width: 200px;height: 200px;""></button>","0","mustard","pink","[""mustard"",""pink"",""low nameability""]","left-right","[""mustard"",""pink"",""low nameability""]","1","low nameability","9","left","response","1"
"html-audio-button-response","55","730356","0.0-42.0-1.0","CAN_110","110","","","","","","null","stimuli/bleep.m4a","null","mustard","pink","[""mustard"",""pink"",""low nameability""]","left-right","[""mustard"",""pink"",""low nameability""]","1","low nameability","9","left","audio_feedback","1"
"html-button-response","56","730872","0.0-43.0","CAN_110","110","","","","","","null","<button class=""jspsych-btn""><img src=""stimuli/white_square.png"" style=""width: 200px;height: 200px;""></button>","null","mustard","pink","[""mustard"",""pink"",""low nameability""]","left-right","[""mustard"",""pink"",""low nameability""]","1","low nameability","9","left","iti",""
"html-button-response","57","731591","0.0-44.0","CAN_110","110","","","","","","702","","0","blue","red","[""blue"",""red"",""high nameability""]","right-left","[""red"",""blue""]","1","high nameability","10","right","trigger",""
"html-button-response","58","732316","0.0-45.0-0.0","CAN_110","110","","","","","","716","<button class=""jspsych-btn""><img src=""stimuli/blue.png"" style=""width: 200px;height: 200px;""></button>","1","blue","red","[""blue"",""red"",""high nameability""]","right-left","[""red"",""blue""]","1","high nameability","10","right","response","1"
"html-audio-button-response","59","732522","0.0-45.0-1.0","CAN_110","110","","","","","","null","stimuli/bleep.m4a","null","blue","red","[""blue"",""red"",""high nameability""]","right-left","[""red"",""blue""]","1","high nameability","10","right","audio_feedback","1"
"html-button-response","60","733039","0.0-46.0","CAN_110","110","","","","","","null","<button class=""jspsych-btn""><img src=""stimuli/white_square.png"" style=""width: 200px;height: 200px;""></button>","null","blue","red","[""blue"",""red"",""high nameability""]","right-left","[""red"",""blue""]","1","high nameability","10","right","iti",""
"pavlovia","61","733133","0.0-47.0","CAN_110","110","","","","","","","","","","","","","","","","","","",""
"pavlovia","62","733149","0.0-48.0","CAN_110","110","","","","","","","","","","","","","","","","","","",""
"html-audio-button-response","63","736074","0.0-49.0","CAN_110","110","","","","","","3029","stimuli/tada.m4a","0","","","","","","","","","","",""
"html-button-response","64","737258","0.0-50.0","CAN_110","110","","","","","","1176","","0","","","","","","","","","","",""
"html-button-response","65","739011","0.0-51.0","CAN_110","110","","","","","","1747","","0","mustard","neonyellow","[""mustard"",""neonyellow"",""low nameability""]","right-left","[""neonyellow"",""mustard""]","2","low nameability","11","right","trigger",""
"html-button-response","66","739907","0.0-52.0-0.0","CAN_110","110","","","","","","888","<button class=""jspsych-btn""><img src=""stimuli/mustard.png"" style=""width: 200px;height: 200px;""></button>","1","mustard","neonyellow","[""mustard"",""neonyellow"",""low nameability""]","right-left","[""neonyellow"",""mustard""]","2","low nameability","11","right","response","1"
"html-audio-button-response","67","740113","0.0-52.0-1.0","CAN_110","110","","","","","","null","stimuli/bleep.m4a","null","mustard","neonyellow","[""mustard"",""neonyellow"",""low nameability""]","right-left","[""neonyellow"",""mustard""]","2","low nameability","11","right","audio_feedback","1"
"html-button-response","68","740629","0.0-53.0","CAN_110","110","","","","","","null","<button class=""jspsych-btn""><img src=""stimuli/white_square.png"" style=""width: 200px;height: 200px;""></button>","null","mustard","neonyellow","[""mustard"",""neonyellow"",""low nameability""]","right-left","[""neonyellow"",""mustard""]","2","low nameability","11","right","iti",""
"html-button-response","69","741442","0.0-54.0","CAN_110","110","","","","","","804","","0","purple","brown","[""purple"",""brown"",""high nameability""]","right-left","[""brown"",""purple""]","2","high nameability","12","right","trigger",""
"html-button-response","70","742083","0.0-55.0-0.0","CAN_110","110","","","","","","635","<button class=""jspsych-btn""><img src=""stimuli/purple.png"" style=""width: 200px;height: 200px;""></button>","1","purple","brown","[""purple"",""brown"",""high nameability""]","right-left","[""brown"",""purple""]","2","high nameability","12","right","response","1"
"html-audio-button-response","71","742290","0.0-55.0-1.0","CAN_110","110","","","","","","null","stimuli/bleep.m4a","null","purple","brown","[""purple"",""brown"",""high nameability""]","right-left","[""brown"",""purple""]","2","high nameability","12","right","audio_feedback","1"
"html-button-response","72","742807","0.0-56.0","CAN_110","110","","","","","","null","<button class=""jspsych-btn""><img src=""stimuli/white_square.png"" style=""width: 200px;height: 200px;""></button>","null","purple","brown","[""purple"",""brown"",""high nameability""]","right-left","[""brown"",""purple""]","2","high nameability","12","right","iti",""
"html-button-response","73","743395","0.0-57.0","CAN_110","110","","","","","","572","","0","brown","purple","[""brown"",""purple"",""high nameability""]","left-right","[""brown"",""purple"",""high nameability""]","2","high nameability","13","left","trigger",""
"html-button-response","74","744060","0.0-58.0-0.0","CAN_110","110","","","","","","657","<button class=""jspsych-btn""><img src=""stimuli/brown.png"" style=""width: 200px;height: 200px;""></button>","0","brown","purple","[""brown"",""purple"",""high nameability""]","left-right","[""brown"",""purple"",""high nameability""]","2","high nameability","13","left","response","1"
"html-audio-button-response","75","744264","0.0-58.0-1.0","CAN_110","110","","","","","","null","stimuli/bleep.m4a","null","brown","purple","[""brown"",""purple"",""high nameability""]","left-right","[""brown"",""purple"",""high nameability""]","2","high nameability","13","left","audio_feedback","1"
"html-button-response","76","744785","0.0-59.0","CAN_110","110","","","","","","null","<button class=""jspsych-btn""><img src=""stimuli/white_square.png"" style=""width: 200px;height: 200px;""></button>","null","brown","purple","[""brown"",""purple"",""high nameability""]","left-right","[""brown"",""purple"",""high nameability""]","2","high nameability","13","left","iti",""
"html-button-response","77","745394","0.0-60.0","CAN_110","110","","","","","","589","","0","red","purple","[""red"",""purple"",""high nameability""]","left-right","[""red"",""purple"",""high nameability""]","2","high nameability","14","left","trigger",""
"html-button-response","78","746042","0.0-61.0-0.0","CAN_110","110","","","","","","641","<button class=""jspsych-btn""><img src=""stimuli/red.png"" style=""width: 200px;height: 200px;""></button>","0","red","purple","[""red"",""purple"",""high nameability""]","left-right","[""red"",""purple"",""high nameability""]","2","high nameability","14","left","response","1"
"html-audio-button-response","79","746244","0.0-61.0-1.0","CAN_110","110","","","","","","null","stimuli/bleep.m4a","null","red","purple","[""red"",""purple"",""high nameability""]","left-right","[""red"",""purple"",""high nameability""]","2","high nameability","14","left","audio_feedback","1"
"html-button-response","80","746767","0.0-62.0","CAN_110","110","","","","","","null","<button class=""jspsych-btn""><img src=""stimuli/white_square.png"" style=""width: 200px;height: 200px;""></button>","null","red","purple","[""red"",""purple"",""high nameability""]","left-right","[""red"",""purple"",""high nameability""]","2","high nameability","14","left","iti",""
"html-button-response","81","747245","0.0-63.0","CAN_110","110","","","","","","459","","0","orange","yellow","[""orange"",""yellow"",""high nameability""]","right-left","[""yellow"",""orange""]","2","high nameability","15","right","trigger",""
"html-button-response","82","747829","0.0-64.0-0.0","CAN_110","110","","","","","","577","<button class=""jspsych-btn""><img src=""stimuli/orange.png"" style=""width: 200px;height: 200px;""></button>","1","orange","yellow","[""orange"",""yellow"",""high nameability""]","right-left","[""yellow"",""orange""]","2","high nameability","15","right","response","1"
"html-audio-button-response","83","748033","0.0-64.0-1.0","CAN_110","110","","","","","","null","stimuli/bleep.m4a","null","orange","yellow","[""orange"",""yellow"",""high nameability""]","right-left","[""yellow"",""orange""]","2","high nameability","15","right","audio_feedback","1"
"html-button-response","84","748555","0.0-65.0","CAN_110","110","","","","","","null","<button class=""jspsych-btn""><img src=""stimuli/white_square.png"" style=""width: 200px;height: 200px;""></button>","null","orange","yellow","[""orange"",""yellow"",""high nameability""]","right-left","[""yellow"",""orange""]","2","high nameability","15","right","iti",""
"html-button-response","85","749161","0.0-66.0","CAN_110","110","","","","","","594","","0","lightred","turquoise","[""lightred"",""turquoise"",""low nameability""]","left-right","[""lightred"",""turquoise"",""low nameability""]","2","low nameability","16","left","trigger",""
"html-button-response","86","749812","0.0-67.0-0.0","CAN_110","110","","","","","","643","<button class=""jspsych-btn""><img src=""stimuli/lightred.png"" style=""width: 200px;height: 200px;""></button>","0","lightred","turquoise","[""lightred"",""turquoise"",""low nameability""]","left-right","[""lightred"",""turquoise"",""low nameability""]","2","low nameability","16","left","response","1"
"html-audio-button-response","87","750021","0.0-67.0-1.0","CAN_110","110","","","","","","null","stimuli/bleep.m4a","null","lightred","turquoise","[""lightred"",""turquoise"",""low nameability""]","left-right","[""lightred"",""turquoise"",""low nameability""]","2","low nameability","16","left","audio_feedback","1"
"html-button-response","88","750538","0.0-68.0","CAN_110","110","","","","","","null","<button class=""jspsych-btn""><img src=""stimuli/white_square.png"" style=""width: 200px;height: 200px;""></button>","null","lightred","turquoise","[""lightred"",""turquoise"",""low nameability""]","left-right","[""lightred"",""turquoise"",""low nameability""]","2","low nameability","16","left","iti",""
"html-button-response","89","751069","0.0-69.0","CAN_110","110","","","","","","507","","0","darkgreenblue","mustard","[""darkgreenblue"",""mustard"",""low nameability""]","left-right","[""darkgreenblue"",""mustard"",""low nameability""]","2","low nameability","17","left","trigger",""
"html-button-response","90","751773","0.0-70.0-0.0","CAN_110","110","","","","","","699","<button class=""jspsych-btn""><img src=""stimuli/darkgreenblue.png"" style=""width: 200px;height: 200px;""></button>","0","darkgreenblue","mustard","[""darkgreenblue"",""mustard"",""low nameability""]","left-right","[""darkgreenblue"",""mustard"",""low nameability""]","2","low nameability","17","left","response","1"
"html-audio-button-response","91","751976","0.0-70.0-1.0","CAN_110","110","","","","","","null","stimuli/bleep.m4a","null","darkgreenblue","mustard","[""darkgreenblue"",""mustard"",""low nameability""]","left-right","[""darkgreenblue"",""mustard"",""low nameability""]","2","low nameability","17","left","audio_feedback","1"
"html-button-response","92","752504","0.0-71.0","CAN_110","110","","","","","","null","<button class=""jspsych-btn""><img src=""stimuli/white_square.png"" style=""width: 200px;height: 200px;""></button>","null","darkgreenblue","mustard","[""darkgreenblue"",""mustard"",""low nameability""]","left-right","[""darkgreenblue"",""mustard"",""low nameability""]","2","low nameability","17","left","iti",""
"html-button-response","93","753113","0.0-72.0","CAN_110","110","","","","","","589","","0","lightred","pink","[""lightred"",""pink"",""low nameability""]","right-left","[""pink"",""lightred""]","2","low nameability","18","right","trigger",""
"html-button-response","94","753679","0.0-73.0-0.0","CAN_110","110","","","","","","558","<button class=""jspsych-btn""><img src=""stimuli/lightred.png"" style=""width: 200px;height: 200px;""></button>","1","lightred","pink","[""lightred"",""pink"",""low nameability""]","right-left","[""pink"",""lightred""]","2","low nameability","18","right","response","1"
"html-audio-button-response","95","753881","0.0-73.0-1.0","CAN_110","110","","","","","","null","stimuli/bleep.m4a","null","lightred","pink","[""lightred"",""pink"",""low nameability""]","right-left","[""pink"",""lightred""]","2","low nameability","18","right","audio_feedback","1"
"html-button-response","96","754402","0.0-74.0","CAN_110","110","","","","","","null","<button class=""jspsych-btn""><img src=""stimuli/white_square.png"" style=""width: 200px;height: 200px;""></button>","null","lightred","pink","[""lightred"",""pink"",""low nameability""]","right-left","[""pink"",""lightred""]","2","low nameability","18","right","iti",""
"html-button-response","97","754956","0.0-75.0","CAN_110","110","","","","","","538","","0","yellow","purple","[""yellow"",""purple"",""high nameability""]","right-left","[""purple"",""yellow""]","2","high nameability","19","right","trigger",""
"html-button-response","98","755558","0.0-76.0-0.0","CAN_110","110","","","","","","594","<button class=""jspsych-btn""><img src=""stimuli/yellow.png"" style=""width: 200px;height: 200px;""></button>","1","yellow","purple","[""yellow"",""purple"",""high nameability""]","right-left","[""purple"",""yellow""]","2","high nameability","19","right","response","1"
"html-audio-button-response","99","755761","0.0-76.0-1.0","CAN_110","110","","","","","","null","stimuli/bleep.m4a","null","yellow","purple","[""yellow"",""purple"",""high nameability""]","right-left","[""purple"",""yellow""]","2","high nameability","19","right","audio_feedback","1"
"html-button-response","100","756280","0.0-77.0","CAN_110","110","","","","","","null","<button class=""jspsych-btn""><img src=""stimuli/white_square.png"" style=""width: 200px;height: 200px;""></button>","null","yellow","purple","[""yellow"",""purple"",""high nameability""]","right-left","[""purple"",""yellow""]","2","high nameability","19","right","iti",""
"html-button-response","101","756788","0.0-78.0","CAN_110","110","","","","","","492","","0","pink","turquoise","[""pink"",""turquoise"",""low nameability""]","left-right","[""pink"",""turquoise"",""low nameability""]","2","low nameability","20","left","trigger",""
"html-button-response","102","757448","0.0-79.0-0.0","CAN_110","110","","","","","","652","<button class=""jspsych-btn""><img src=""stimuli/pink.png"" style=""width: 200px;height: 200px;""></button>","0","pink","turquoise","[""pink"",""turquoise"",""low nameability""]","left-right","[""pink"",""turquoise"",""low nameability""]","2","low nameability","20","left","response","1"
"html-audio-button-response","103","757652","0.0-79.0-1.0","CAN_110","110","","","","","","null","stimuli/bleep.m4a","null","pink","turquoise","[""pink"",""turquoise"",""low nameability""]","left-right","[""pink"",""turquoise"",""low nameability""]","2","low nameability","20","left","audio_feedback","1"
"html-button-response","104","758170","0.0-80.0","CAN_110","110","","","","","","null","<button class=""jspsych-btn""><img src=""stimuli/white_square.png"" style=""width: 200px;height: 200px;""></button>","null","pink","turquoise","[""pink"",""turquoise"",""low nameability""]","left-right","[""pink"",""turquoise"",""low nameability""]","2","low nameability","20","left","iti",""
"pavlovia","105","758215","0.0-81.0","CAN_110","110","","","","","","","","","","","","","","","","","","",""
"pavlovia","106","758224","0.0-82.0","CAN_110","110","","","","","","","","","","","","","","","","","","",""
"html-audio-button-response","107","759882","0.0-83.0","CAN_110","110","","","","","","1712","stimuli/tada.m4a","0","","","","","","","","","","",""
"html-button-response","108","761114","0.0-84.0","CAN_110","110","","","","","","1225","","0","","","","","","","","","","",""
"html-button-response","109","761866","0.0-85.0","CAN_110","110","","","","","","744","","0","turquoise","mustard","[""turquoise"",""mustard"",""low nameability""]","right-left","[""mustard"",""turquoise""]","3","low nameability","21","right","trigger",""
"html-button-response","110","762469","0.0-86.0-0.0","CAN_110","110","","","","","","596","<button class=""jspsych-btn""><img src=""stimuli/turquoise.png"" style=""width: 200px;height: 200px;""></button>","1","turquoise","mustard","[""turquoise"",""mustard"",""low nameability""]","right-left","[""mustard"",""turquoise""]","3","low nameability","21","right","response","1"
"html-audio-button-response","111","762672","0.0-86.0-1.0","CAN_110","110","","","","","","null","stimuli/bleep.m4a","null","turquoise","mustard","[""turquoise"",""mustard"",""low nameability""]","right-left","[""mustard"",""turquoise""]","3","low nameability","21","right","audio_feedback","1"
"html-button-response","112","763191","0.0-87.0","CAN_110","110","","","","","","null","<button class=""jspsych-btn""><img src=""stimuli/white_square.png"" style=""width: 200px;height: 200px;""></button>","null","turquoise","mustard","[""turquoise"",""mustard"",""low nameability""]","right-left","[""mustard"",""turquoise""]","3","low nameability","21","right","iti",""
"html-button-response","113","763739","0.0-88.0","CAN_110","110","","","","","","525","","0","darkgreenblue","pink","[""darkgreenblue"",""pink"",""low nameability""]","left-right","[""darkgreenblue"",""pink"",""low nameability""]","3","low nameability","22","left","trigger",""
"html-button-response","114","764274","0.0-89.0-0.0","CAN_110","110","","","","","","530","<button class=""jspsych-btn""><img src=""stimuli/darkgreenblue.png"" style=""width: 200px;height: 200px;""></button>","0","darkgreenblue","pink","[""darkgreenblue"",""pink"",""low nameability""]","left-right","[""darkgreenblue"",""pink"",""low nameability""]","3","low nameability","22","left","response","1"
"html-audio-button-response","115","764476","0.0-89.0-1.0","CAN_110","110","","","","","","null","stimuli/bleep.m4a","null","darkgreenblue","pink","[""darkgreenblue"",""pink"",""low nameability""]","left-right","[""darkgreenblue"",""pink"",""low nameability""]","3","low nameability","22","left","audio_feedback","1"
"html-button-response","116","764998","0.0-90.0","CAN_110","110","","","","","","null","<button class=""jspsych-btn""><img src=""stimuli/white_square.png"" style=""width: 200px;height: 200px;""></button>","null","darkgreenblue","pink","[""darkgreenblue"",""pink"",""low nameability""]","left-right","[""darkgreenblue"",""pink"",""low nameability""]","3","low nameability","22","left","iti",""
"html-button-response","117","765488","0.0-91.0","CAN_110","110","","","","","","473","","0","pink","lightred","[""pink"",""lightred"",""low nameability""]","right-left","[""lightred"",""pink""]","3","low nameability","23","right","trigger",""
"html-button-response","118","765992","0.0-92.0-0.0","CAN_110","110","","","","","","496","<button class=""jspsych-btn""><img src=""stimuli/pink.png"" style=""width: 200px;height: 200px;""></button>","1","pink","lightred","[""pink"",""lightred"",""low nameability""]","right-left","[""lightred"",""pink""]","3","low nameability","23","right","response","1"
"html-audio-button-response","119","766194","0.0-92.0-1.0","CAN_110","110","","","","","","null","stimuli/bleep.m4a","null","pink","lightred","[""pink"",""lightred"",""low nameability""]","right-left","[""lightred"",""pink""]","3","low nameability","23","right","audio_feedback","1"
"html-button-response","120","766713","0.0-93.0","CAN_110","110","","","","","","null","<button class=""jspsych-btn""><img src=""stimuli/white_square.png"" style=""width: 200px;height: 200px;""></button>","null","pink","lightred","[""pink"",""lightred"",""low nameability""]","right-left","[""lightred"",""pink""]","3","low nameability","23","right","iti",""
"html-button-response","121","767246","0.0-94.0","CAN_110","110","","","","","","512","","0","yellow","orange","[""yellow"",""orange"",""high nameability""]","left-right","[""yellow"",""orange"",""high nameability""]","3","high nameability","24","left","trigger",""
"html-button-response","122","767736","0.0-95.0-0.0","CAN_110","110","","","","","","484","<button class=""jspsych-btn""><img src=""stimuli/yellow.png"" style=""width: 200px;height: 200px;""></button>","0","yellow","orange","[""yellow"",""orange"",""high nameability""]","left-right","[""yellow"",""orange"",""high nameability""]","3","high nameability","24","left","response","1"
"html-audio-button-response","123","767944","0.0-95.0-1.0","CAN_110","110","","","","","","null","stimuli/bleep.m4a","null","yellow","orange","[""yellow"",""orange"",""high nameability""]","left-right","[""yellow"",""orange"",""high nameability""]","3","high nameability","24","left","audio_feedback","1"
"html-button-response","124","768463","0.0-96.0","CAN_110","110","","","","","","null","<button class=""jspsych-btn""><img src=""stimuli/white_square.png"" style=""width: 200px;height: 200px;""></button>","null","yellow","orange","[""yellow"",""orange"",""high nameability""]","left-right","[""yellow"",""orange"",""high nameability""]","3","high nameability","24","left","iti",""
"html-button-response","125","768986","0.0-97.0","CAN_110","110","","","","","","505","","0","neonyellow","mustard","[""neonyellow"",""mustard"",""low nameability""]","right-left","[""mustard"",""neonyellow""]","3","low nameability","25","right","trigger",""
"html-button-response","126","769517","0.0-98.0-0.0","CAN_110","110","","","","","","526","<button class=""jspsych-btn""><img src=""stimuli/neonyellow.png"" style=""width: 200px;height: 200px;""></button>","1","neonyellow","mustard","[""neonyellow"",""mustard"",""low nameability""]","right-left","[""mustard"",""neonyellow""]","3","low nameability","25","right","response","1"
"html-audio-button-response","127","769719","0.0-98.0-1.0","CAN_110","110","","","","","","null","stimuli/bleep.m4a","null","neonyellow","mustard","[""neonyellow"",""mustard"",""low nameability""]","right-left","[""mustard"",""neonyellow""]","3","low nameability","25","right","audio_feedback","1"
"html-button-response","128","770232","0.0-99.0","CAN_110","110","","","","","","null","<button class=""jspsych-btn""><img src=""stimuli/white_square.png"" style=""width: 200px;height: 200px;""></button>","null","neonyellow","mustard","[""neonyellow"",""mustard"",""low nameability""]","right-left","[""mustard"",""neonyellow""]","3","low nameability","25","right","iti",""
"html-button-response","129","770696","0.0-100.0","CAN_110","110","","","","","","442","","0","neonyellow","lightred","[""neonyellow"",""lightred"",""low nameability""]","left-right","[""neonyellow"",""lightred"",""low nameability""]","3","low nameability","26","left","trigger",""
"html-button-response","130","771255","0.0-101.0-0.0","CAN_110","110","","","","","","551","<button class=""jspsych-btn""><img src=""stimuli/neonyellow.png"" style=""width: 200px;height: 200px;""></button>","0","neonyellow","lightred","[""neonyellow"",""lightred"",""low nameability""]","left-right","[""neonyellow"",""lightred"",""low nameability""]","3","low nameability","26","left","response","1"
"html-audio-button-response","131","771461","0.0-101.0-1.0","CAN_110","110","","","","","","null","stimuli/bleep.m4a","null","neonyellow","lightred","[""neonyellow"",""lightred"",""low nameability""]","left-right","[""neonyellow"",""lightred"",""low nameability""]","3","low nameability","26","left","audio_feedback","1"
"html-button-response","132","771982","0.0-102.0","CAN_110","110","","","","","","null","<button class=""jspsych-btn""><img src=""stimuli/white_square.png"" style=""width: 200px;height: 200px;""></button>","null","neonyellow","lightred","[""neonyellow"",""lightred"",""low nameability""]","left-right","[""neonyellow"",""lightred"",""low nameability""]","3","low nameability","26","left","iti",""
"html-button-response","133","772541","0.0-103.0","CAN_110","110","","","","","","539","","0","pink","neonyellow","[""pink"",""neonyellow"",""low nameability""]","right-left","[""neonyellow"",""pink""]","3","low nameability","27","right","trigger",""
"html-button-response","134","773113","0.0-104.0-0.0","CAN_110","110","","","","","","563","<button class=""jspsych-btn""><img src=""stimuli/pink.png"" style=""width: 200px;height: 200px;""></button>","1","pink","neonyellow","[""pink"",""neonyellow"",""low nameability""]","right-left","[""neonyellow"",""pink""]","3","low nameability","27","right","response","1"
"html-audio-button-response","135","773312","0.0-104.0-1.0","CAN_110","110","","","","","","null","stimuli/bleep.m4a","null","pink","neonyellow","[""pink"",""neonyellow"",""low nameability""]","right-left","[""neonyellow"",""pink""]","3","low nameability","27","right","audio_feedback","1"
"html-button-response","136","773831","0.0-105.0","CAN_110","110","","","","","","null","<button class=""jspsych-btn""><img src=""stimuli/white_square.png"" style=""width: 200px;height: 200px;""></button>","null","pink","neonyellow","[""pink"",""neonyellow"",""low nameability""]","right-left","[""neonyellow"",""pink""]","3","low nameability","27","right","iti",""
"html-button-response","137","774407","0.0-106.0","CAN_110","110","","","","","","557","","0","lightred","darkgreenblue","[""lightred"",""darkgreenblue"",""low nameability""]","left-right","[""lightred"",""darkgreenblue"",""low nameability""]","3","low nameability","28","left","trigger",""
"html-button-response","138","775074","0.0-107.0-0.0","CAN_110","110","","","","","","658","<button class=""jspsych-btn""><img src=""stimuli/lightred.png"" style=""width: 200px;height: 200px;""></button>","0","lightred","darkgreenblue","[""lightred"",""darkgreenblue"",""low nameability""]","left-right","[""lightred"",""darkgreenblue"",""low nameability""]","3","low nameability","28","left","response","1"
"html-audio-button-response","139","775278","0.0-107.0-1.0","CAN_110","110","","","","","","null","stimuli/bleep.m4a","null","lightred","darkgreenblue","[""lightred"",""darkgreenblue"",""low nameability""]","left-right","[""lightred"",""darkgreenblue"",""low nameability""]","3","low nameability","28","left","audio_feedback","1"
"html-button-response","140","775796","0.0-108.0","CAN_110","110","","","","","","null","<button class=""jspsych-btn""><img src=""stimuli/white_square.png"" style=""width: 200px;height: 200px;""></button>","null","lightred","darkgreenblue","[""lightred"",""darkgreenblue"",""low nameability""]","left-right","[""lightred"",""darkgreenblue"",""low nameability""]","3","low nameability","28","left","iti",""
"html-button-response","141","776523","0.0-109.0","CAN_110","110","","","","","","710","","0","yellow","brown","[""yellow"",""brown"",""high nameability""]","left-right","[""yellow"",""brown"",""high nameability""]","3","high nameability","29","left","trigger",""
"html-button-response","142","777165","0.0-110.0-0.0","CAN_110","110","","","","","","634","<button class=""jspsych-btn""><img src=""stimuli/yellow.png"" style=""width: 200px;height: 200px;""></button>","0","yellow","brown","[""yellow"",""brown"",""high nameability""]","left-right","[""yellow"",""brown"",""high nameability""]","3","high nameability","29","left","response","1"
"html-audio-button-response","143","777369","0.0-110.0-1.0","CAN_110","110","","","","","","null","stimuli/bleep.m4a","null","yellow","brown","[""yellow"",""brown"",""high nameability""]","left-right","[""yellow"",""brown"",""high nameability""]","3","high nameability","29","left","audio_feedback","1"
"html-button-response","144","777890","0.0-111.0","CAN_110","110","","","","","","null","<button class=""jspsych-btn""><img src=""stimuli/white_square.png"" style=""width: 200px;height: 200px;""></button>","null","yellow","brown","[""yellow"",""brown"",""high nameability""]","left-right","[""yellow"",""brown"",""high nameability""]","3","high nameability","29","left","iti",""
"html-button-response","145","778522","0.0-112.0","CAN_110","110","","","","","","614","","0","turquoise","pink","[""turquoise"",""pink"",""low nameability""]","right-left","[""pink"",""turquoise""]","3","low nameability","30","right","trigger",""
"html-button-response","146","779012","0.0-113.0-0.0","CAN_110","110","","","","","","482","<button class=""jspsych-btn""><img src=""stimuli/turquoise.png"" style=""width: 200px;height: 200px;""></button>","1","turquoise","pink","[""turquoise"",""pink"",""low nameability""]","right-left","[""pink"",""turquoise""]","3","low nameability","30","right","response","1"
"html-audio-button-response","147","779214","0.0-113.0-1.0","CAN_110","110","","","","","","null","stimuli/bleep.m4a","null","turquoise","pink","[""turquoise"",""pink"",""low nameability""]","right-left","[""pink"",""turquoise""]","3","low nameability","30","right","audio_feedback","1"
"html-button-response","148","779735","0.0-114.0","CAN_110","110","","","","","","null","<button class=""jspsych-btn""><img src=""stimuli/white_square.png"" style=""width: 200px;height: 200px;""></button>","null","turquoise","pink","[""turquoise"",""pink"",""low nameability""]","right-left","[""pink"",""turquoise""]","3","low nameability","30","right","iti",""
"pavlovia","149","779799","0.0-115.0","CAN_110","110","","","","","","","","","","","","","","","","","","",""
"pavlovia","150","779808","0.0-116.0","CAN_110","110","","","","","","","","","","","","","","","","","","",""
"html-audio-button-response","151","781356","0.0-117.0","CAN_110","110","","","","","","1624","stimuli/tada.m4a","0","","","","","","","","","","",""
"html-button-response","152","782223","0.0-118.0","CAN_110","110","","","","","","862","","0","","","","","","","","","","",""
"html-button-response","153","783039","0.0-119.0","CAN_110","110","","","","","","810","","0","purple","yellow","[""purple"",""yellow"",""high nameability""]","right-left","[""yellow"",""purple""]","4","high nameability","31","right","trigger",""
"html-button-response","154","784335","0.0-120.0-0.0","CAN_110","110","","","","","","1286","<button class=""jspsych-btn""><img src=""stimuli/purple.png"" style=""width: 200px;height: 200px;""></button>","1","purple","yellow","[""purple"",""yellow"",""high nameability""]","right-left","[""yellow"",""purple""]","4","high nameability","31","right","response","1"
"html-audio-button-response","155","784538","0.0-120.0-1.0","CAN_110","110","","","","","","null","stimuli/bleep.m4a","null","purple","yellow","[""purple"",""yellow"",""high nameability""]","right-left","[""yellow"",""purple""]","4","high nameability","31","right","audio_feedback","1"
"html-button-response","156","785064","0.0-121.0","CAN_110","110","","","","","","null","<button class=""jspsych-btn""><img src=""stimuli/white_square.png"" style=""width: 200px;height: 200px;""></button>","null","purple","yellow","[""purple"",""yellow"",""high nameability""]","right-left","[""yellow"",""purple""]","4","high nameability","31","right","iti",""
"html-button-response","157","785615","0.0-122.0","CAN_110","110","","","","","","530","","0","yellow","red","[""yellow"",""red"",""high nameability""]","right-left","[""red"",""yellow""]","4","high nameability","32","right","trigger",""
"html-button-response","158","786203","0.0-123.0-0.0","CAN_110","110","","","","","","580","<button class=""jspsych-btn""><img src=""stimuli/yellow.png"" style=""width: 200px;height: 200px;""></button>","1","yellow","red","[""yellow"",""red"",""high nameability""]","right-left","[""red"",""yellow""]","4","high nameability","32","right","response","1"
"html-audio-button-response","159","786405","0.0-123.0-1.0","CAN_110","110","","","","","","null","stimuli/bleep.m4a","null","yellow","red","[""yellow"",""red"",""high nameability""]","right-left","[""red"",""yellow""]","4","high nameability","32","right","audio_feedback","1"
"html-button-response","160","786927","0.0-124.0","CAN_110","110","","","","","","null","<button class=""jspsych-btn""><img src=""stimuli/white_square.png"" style=""width: 200px;height: 200px;""></button>","null","yellow","red","[""yellow"",""red"",""high nameability""]","right-left","[""red"",""yellow""]","4","high nameability","32","right","iti",""
"html-button-response","161","787530","0.0-125.0","CAN_110","110","","","","","","583","","0","turquoise","darkgreenblue","[""turquoise"",""darkgreenblue"",""low nameability""]","left-right","[""turquoise"",""darkgreenblue"",""low nameability""]","4","low nameability","33","left","trigger",""
"html-button-response","162","788162","0.0-126.0-0.0","CAN_110","110","","","","","","625","<button class=""jspsych-btn""><img src=""stimuli/turquoise.png"" style=""width: 200px;height: 200px;""></button>","0","turquoise","darkgreenblue","[""turquoise"",""darkgreenblue"",""low nameability""]","left-right","[""turquoise"",""darkgreenblue"",""low nameability""]","4","low nameability","33","left","response","1"
"html-audio-button-response","163","788366","0.0-126.0-1.0","CAN_110","110","","","","","","null","stimuli/bleep.m4a","null","turquoise","darkgreenblue","[""turquoise"",""darkgreenblue"",""low nameability""]","left-right","[""turquoise"",""darkgreenblue"",""low nameability""]","4","low nameability","33","left","audio_feedback","1"
"html-button-response","164","788885","0.0-127.0","CAN_110","110","","","","","","null","<button class=""jspsych-btn""><img src=""stimuli/white_square.png"" style=""width: 200px;height: 200px;""></button>","null","turquoise","darkgreenblue","[""turquoise"",""darkgreenblue"",""low nameability""]","left-right","[""turquoise"",""darkgreenblue"",""low nameability""]","4","low nameability","33","left","iti",""
"html-button-response","165","789363","0.0-128.0","CAN_110","110","","","","","","462","","0","darkgreenblue","turquoise","[""darkgreenblue"",""turquoise"",""low nameability""]","right-left","[""turquoise"",""darkgreenblue""]","4","low nameability","34","right","trigger",""
"html-button-response","166","790041","0.0-129.0-0.0","CAN_110","110","","","","","","671","<button class=""jspsych-btn""><img src=""stimuli/darkgreenblue.png"" style=""width: 200px;height: 200px;""></button>","1","darkgreenblue","turquoise","[""darkgreenblue"",""turquoise"",""low nameability""]","right-left","[""turquoise"",""darkgreenblue""]","4","low nameability","34","right","response","1"
"html-audio-button-response","167","790245","0.0-129.0-1.0","CAN_110","110","","","","","","null","stimuli/bleep.m4a","null","darkgreenblue","turquoise","[""darkgreenblue"",""turquoise"",""low nameability""]","right-left","[""turquoise"",""darkgreenblue""]","4","low nameability","34","right","audio_feedback","1"
"html-button-response","168","790768","0.0-130.0","CAN_110","110","","","","","","null","<button class=""jspsych-btn""><img src=""stimuli/white_square.png"" style=""width: 200px;height: 200px;""></button>","null","darkgreenblue","turquoise","[""darkgreenblue"",""turquoise"",""low nameability""]","right-left","[""turquoise"",""darkgreenblue""]","4","low nameability","34","right","iti",""
"html-button-response","169","791333","0.0-131.0","CAN_110","110","","","","","","547","","0","blue","brown","[""blue"",""brown"",""high nameability""]","left-right","[""blue"",""brown"",""high nameability""]","4","high nameability","35","left","trigger",""
"html-button-response","170","791946","0.0-132.0-0.0","CAN_110","110","","","","","","605","<button class=""jspsych-btn""><img src=""stimuli/blue.png"" style=""width: 200px;height: 200px;""></button>","0","blue","brown","[""blue"",""brown"",""high nameability""]","left-right","[""blue"",""brown"",""high nameability""]","4","high nameability","35","left","response","1"
"html-audio-button-response","171","792149","0.0-132.0-1.0","CAN_110","110","","","","","","null","stimuli/bleep.m4a","null","blue","brown","[""blue"",""brown"",""high nameability""]","left-right","[""blue"",""brown"",""high nameability""]","4","high nameability","35","left","audio_feedback","1"
"html-button-response","172","792665","0.0-133.0","CAN_110","110","","","","","","null","<button class=""jspsych-btn""><img src=""stimuli/white_square.png"" style=""width: 200px;height: 200px;""></button>","null","blue","brown","[""blue"",""brown"",""high nameability""]","left-right","[""blue"",""brown"",""high nameability""]","4","high nameability","35","left","iti",""
"html-button-response","173","793308","0.0-134.0","CAN_110","110","","","","","","626","","0","mustard","lightred","[""mustard"",""lightred"",""low nameability""]","left-right","[""mustard"",""lightred"",""low nameability""]","4","low nameability","36","left","trigger",""
"html-button-response","174","794018","0.0-135.0-0.0","CAN_110","110","","","","","","701","<button class=""jspsych-btn""><img src=""stimuli/mustard.png"" style=""width: 200px;height: 200px;""></button>","0","mustard","lightred","[""mustard"",""lightred"",""low nameability""]","left-right","[""mustard"",""lightred"",""low nameability""]","4","low nameability","36","left","response","1"
"html-audio-button-response","175","794225","0.0-135.0-1.0","CAN_110","110","","","","","","null","stimuli/bleep.m4a","null","mustard","lightred","[""mustard"",""lightred"",""low nameability""]","left-right","[""mustard"",""lightred"",""low nameability""]","4","low nameability","36","left","audio_feedback","1"
"html-button-response","176","794748","0.0-136.0","CAN_110","110","","","","","","null","<button class=""jspsych-btn""><img src=""stimuli/white_square.png"" style=""width: 200px;height: 200px;""></button>","null","mustard","lightred","[""mustard"",""lightred"",""low nameability""]","left-right","[""mustard"",""lightred"",""low nameability""]","4","low nameability","36","left","iti",""
"html-button-response","177","795311","0.0-137.0","CAN_110","110","","","","","","537","","0","darkgreenblue","neonyellow","[""darkgreenblue"",""neonyellow"",""low nameability""]","right-left","[""neonyellow"",""darkgreenblue""]","4","low nameability","37","right","trigger",""
"html-button-response","178","795871","0.0-138.0-0.0","CAN_110","110","","","","","","549","<button class=""jspsych-btn""><img src=""stimuli/darkgreenblue.png"" style=""width: 200px;height: 200px;""></button>","1","darkgreenblue","neonyellow","[""darkgreenblue"",""neonyellow"",""low nameability""]","right-left","[""neonyellow"",""darkgreenblue""]","4","low nameability","37","right","response","1"
"html-audio-button-response","179","796077","0.0-138.0-1.0","CAN_110","110","","","","","","null","stimuli/bleep.m4a","null","darkgreenblue","neonyellow","[""darkgreenblue"",""neonyellow"",""low nameability""]","right-left","[""neonyellow"",""darkgreenblue""]","4","low nameability","37","right","audio_feedback","1"
"html-button-response","180","796596","0.0-139.0","CAN_110","110","","","","","","null","<button class=""jspsych-btn""><img src=""stimuli/white_square.png"" style=""width: 200px;height: 200px;""></button>","null","darkgreenblue","neonyellow","[""darkgreenblue"",""neonyellow"",""low nameability""]","right-left","[""neonyellow"",""darkgreenblue""]","4","low nameability","37","right","iti",""
"html-button-response","181","797299","0.0-140.0","CAN_110","110","","","","","","681","","0","brown","blue","[""brown"",""blue"",""high nameability""]","right-left","[""blue"",""brown""]","4","high nameability","38","right","trigger",""
"html-button-response","182","797877","0.0-141.0-0.0","CAN_110","110","","","","","","564","<button class=""jspsych-btn""><img src=""stimuli/brown.png"" style=""width: 200px;height: 200px;""></button>","1","brown","blue","[""brown"",""blue"",""high nameability""]","right-left","[""blue"",""brown""]","4","high nameability","38","right","response","1"
"html-audio-button-response","183","798084","0.0-141.0-1.0","CAN_110","110","","","","","","null","stimuli/bleep.m4a","null","brown","blue","[""brown"",""blue"",""high nameability""]","right-left","[""blue"",""brown""]","4","high nameability","38","right","audio_feedback","1"
"html-button-response","184","798604","0.0-142.0","CAN_110","110","","","","","","null","<button class=""jspsych-btn""><img src=""stimuli/white_square.png"" style=""width: 200px;height: 200px;""></button>","null","brown","blue","[""brown"",""blue"",""high nameability""]","right-left","[""blue"",""brown""]","4","high nameability","38","right","iti",""
"html-button-response","185","799248","0.0-143.0","CAN_110","110","","","","","","624","","0","neonyellow","turquoise","[""neonyellow"",""turquoise"",""low nameability""]","right-left","[""turquoise"",""neonyellow""]","4","low nameability","39","right","trigger",""
"html-button-response","186","799834","0.0-144.0-0.0","CAN_110","110","","","","","","573","<button class=""jspsych-btn""><img src=""stimuli/neonyellow.png"" style=""width: 200px;height: 200px;""></button>","1","neonyellow","turquoise","[""neonyellow"",""turquoise"",""low nameability""]","right-left","[""turquoise"",""neonyellow""]","4","low nameability","39","right","response","1"
"html-audio-button-response","187","800037","0.0-144.0-1.0","CAN_110","110","","","","","","null","stimuli/bleep.m4a","null","neonyellow","turquoise","[""neonyellow"",""turquoise"",""low nameability""]","right-left","[""turquoise"",""neonyellow""]","4","low nameability","39","right","audio_feedback","1"
"html-button-response","188","800552","0.0-145.0","CAN_110","110","","","","","","null","<button class=""jspsych-btn""><img src=""stimuli/white_square.png"" style=""width: 200px;height: 200px;""></button>","null","neonyellow","turquoise","[""neonyellow"",""turquoise"",""low nameability""]","right-left","[""turquoise"",""neonyellow""]","4","low nameability","39","right","iti",""
"html-button-response","189","801095","0.0-146.0","CAN_110","110","","","","","","527","","0","neonyellow","pink","[""neonyellow"",""pink"",""low nameability""]","left-right","[""neonyellow"",""pink"",""low nameability""]","4","low nameability","40","left","trigger",""
"html-button-response","190","801696","0.0-147.0-0.0","CAN_110","110","","","","","","594","<button class=""jspsych-btn""><img src=""stimuli/neonyellow.png"" style=""width: 200px;height: 200px;""></button>","0","neonyellow","pink","[""neonyellow"",""pink"",""low nameability""]","left-right","[""neonyellow"",""pink"",""low nameability""]","4","low nameability","40","left","response","1"
"html-audio-button-response","191","801897","0.0-147.0-1.0","CAN_110","110","","","","","","null","stimuli/bleep.m4a","null","neonyellow","pink","[""neonyellow"",""pink"",""low nameability""]","left-right","[""neonyellow"",""pink"",""low nameability""]","4","low nameability","40","left","audio_feedback","1"
"html-button-response","192","802413","0.0-148.0","CAN_110","110","","","","","","null","<button class=""jspsych-btn""><img src=""stimuli/white_square.png"" style=""width: 200px;height: 200px;""></button>","null","neonyellow","pink","[""neonyellow"",""pink"",""low nameability""]","left-right","[""neonyellow"",""pink"",""low nameability""]","4","low nameability","40","left","iti",""
"pavlovia","193","802462","0.0-149.0","CAN_110","110","","","","","","","","","","","","","","","","","","",""
"pavlovia","194","802470","0.0-150.0","CAN_110","110","","","","","","","","","","","","","","","","","","",""
"html-audio-button-response","195","803924","0.0-151.0","CAN_110","110","","","","","","1512","stimuli/tada.m4a","0","","","","","","","","","","",""
"html-button-response","196","804645","0.0-152.0","CAN_110","110","","","","","","714","","0","","","","","","","","","","",""
"html-button-response","197","805435","0.0-153.0","CAN_110","110","","","","","","781","","0","red","yellow","[""red"",""yellow"",""high nameability""]","left-right","[""red"",""yellow"",""high nameability""]","5","high nameability","41","left","trigger",""
"html-button-response","198","806083","0.0-154.0-0.0","CAN_110","110","","","","","","633","<button class=""jspsych-btn""><img src=""stimuli/red.png"" style=""width: 200px;height: 200px;""></button>","0","red","yellow","[""red"",""yellow"",""high nameability""]","left-right","[""red"",""yellow"",""high nameability""]","5","high nameability","41","left","response","1"
"html-audio-button-response","199","806289","0.0-154.0-1.0","CAN_110","110","","","","","","null","stimuli/bleep.m4a","null","red","yellow","[""red"",""yellow"",""high nameability""]","left-right","[""red"",""yellow"",""high nameability""]","5","high nameability","41","left","audio_feedback","1"
"html-button-response","200","806809","0.0-155.0","CAN_110","110","","","","","","null","<button class=""jspsych-btn""><img src=""stimuli/white_square.png"" style=""width: 200px;height: 200px;""></button>","null","red","yellow","[""red"",""yellow"",""high nameability""]","left-right","[""red"",""yellow"",""high nameability""]","5","high nameability","41","left","iti",""
"html-button-response","201","807349","0.0-156.0","CAN_110","110","","","","","","512","","0","yellow","blue","[""yellow"",""blue"",""high nameability""]","right-left","[""blue"",""yellow""]","5","high nameability","42","right","trigger",""
"html-button-response","202","807980","0.0-157.0-0.0","CAN_110","110","","","","","","618","<button class=""jspsych-btn""><img src=""stimuli/yellow.png"" style=""width: 200px;height: 200px;""></button>","1","yellow","blue","[""yellow"",""blue"",""high nameability""]","right-left","[""blue"",""yellow""]","5","high nameability","42","right","response","1"
"html-audio-button-response","203","808186","0.0-157.0-1.0","CAN_110","110","","","","","","null","stimuli/bleep.m4a","null","yellow","blue","[""yellow"",""blue"",""high nameability""]","right-left","[""blue"",""yellow""]","5","high nameability","42","right","audio_feedback","1"
"html-button-response","204","808706","0.0-158.0","CAN_110","110","","","","","","null","<button class=""jspsych-btn""><img src=""stimuli/white_square.png"" style=""width: 200px;height: 200px;""></button>","null","yellow","blue","[""yellow"",""blue"",""high nameability""]","right-left","[""blue"",""yellow""]","5","high nameability","42","right","iti",""
"html-button-response","205","809154","0.0-159.0","CAN_110","110","","","","","","433","","0","neonyellow","darkgreenblue","[""neonyellow"",""darkgreenblue"",""low nameability""]","left-right","[""neonyellow"",""darkgreenblue"",""low nameability""]","5","low nameability","43","left","trigger",""
"html-button-response","206","809712","0.0-160.0-0.0","CAN_110","110","","","","","","550","<button class=""jspsych-btn""><img src=""stimuli/neonyellow.png"" style=""width: 200px;height: 200px;""></button>","0","neonyellow","darkgreenblue","[""neonyellow"",""darkgreenblue"",""low nameability""]","left-right","[""neonyellow"",""darkgreenblue"",""low nameability""]","5","low nameability","43","left","response","1"
"html-audio-button-response","207","809921","0.0-160.0-1.0","CAN_110","110","","","","","","null","stimuli/bleep.m4a","null","neonyellow","darkgreenblue","[""neonyellow"",""darkgreenblue"",""low nameability""]","left-right","[""neonyellow"",""darkgreenblue"",""low nameability""]","5","low nameability","43","left","audio_feedback","1"
"html-button-response","208","810443","0.0-161.0","CAN_110","110","","","","","","null","<button class=""jspsych-btn""><img src=""stimuli/white_square.png"" style=""width: 200px;height: 200px;""></button>","null","neonyellow","darkgreenblue","[""neonyellow"",""darkgreenblue"",""low nameability""]","left-right","[""neonyellow"",""darkgreenblue"",""low nameability""]","5","low nameability","43","left","iti",""
"html-button-response","209","810905","0.0-162.0","CAN_110","110","","","","","","445","","0","darkgreenblue","lightred","[""darkgreenblue"",""lightred"",""low nameability""]","right-left","[""lightred"",""darkgreenblue""]","5","low nameability","44","right","trigger",""
"html-button-response","210","811426","0.0-163.0-0.0","CAN_110","110","","","","","","512","<button class=""jspsych-btn""><img src=""stimuli/darkgreenblue.png"" style=""width: 200px;height: 200px;""></button>","1","darkgreenblue","lightred","[""darkgreenblue"",""lightred"",""low nameability""]","right-left","[""lightred"",""darkgreenblue""]","5","low nameability","44","right","response","1"
"html-audio-button-response","211","811630","0.0-163.0-1.0","CAN_110","110","","","","","","null","stimuli/bleep.m4a","null","darkgreenblue","lightred","[""darkgreenblue"",""lightred"",""low nameability""]","right-left","[""lightred"",""darkgreenblue""]","5","low nameability","44","right","audio_feedback","1"
"html-button-response","212","812147","0.0-164.0","CAN_110","110","","","","","","null","<button class=""jspsych-btn""><img src=""stimuli/white_square.png"" style=""width: 200px;height: 200px;""></button>","null","darkgreenblue","lightred","[""darkgreenblue"",""lightred"",""low nameability""]","right-left","[""lightred"",""darkgreenblue""]","5","low nameability","44","right","iti",""
"html-button-response","213","812713","0.0-165.0","CAN_110","110","","","","","","554","","0","orange","purple","[""orange"",""purple"",""high nameability""]","left-right","[""orange"",""purple"",""high nameability""]","5","high nameability","45","left","trigger",""
"html-button-response","214","813317","0.0-166.0-0.0","CAN_110","110","","","","","","595","<button class=""jspsych-btn""><img src=""stimuli/orange.png"" style=""width: 200px;height: 200px;""></button>","0","orange","purple","[""orange"",""purple"",""high nameability""]","left-right","[""orange"",""purple"",""high nameability""]","5","high nameability","45","left","response","1"
"html-audio-button-response","215","813521","0.0-166.0-1.0","CAN_110","110","","","","","","null","stimuli/bleep.m4a","null","orange","purple","[""orange"",""purple"",""high nameability""]","left-right","[""orange"",""purple"",""high nameability""]","5","high nameability","45","left","audio_feedback","1"
"html-button-response","216","814041","0.0-167.0","CAN_110","110","","","","","","null","<button class=""jspsych-btn""><img src=""stimuli/white_square.png"" style=""width: 200px;height: 200px;""></button>","null","orange","purple","[""orange"",""purple"",""high nameability""]","left-right","[""orange"",""purple"",""high nameability""]","5","high nameability","45","left","iti",""
"html-button-response","217","814564","0.0-168.0","CAN_110","110","","","","","","502","","0","red","orange","[""red"",""orange"",""high nameability""]","right-left","[""orange"",""red""]","5","high nameability","46","right","trigger",""
"html-button-response","218","815129","0.0-169.0-0.0","CAN_110","110","","","","","","559","<button class=""jspsych-btn""><img src=""stimuli/red.png"" style=""width: 200px;height: 200px;""></button>","1","red","orange","[""red"",""orange"",""high nameability""]","right-left","[""orange"",""red""]","5","high nameability","46","right","response","1"
"html-audio-button-response","219","815333","0.0-169.0-1.0","CAN_110","110","","","","","","null","stimuli/bleep.m4a","null","red","orange","[""red"",""orange"",""high nameability""]","right-left","[""orange"",""red""]","5","high nameability","46","right","audio_feedback","1"
"html-button-response","220","815853","0.0-170.0","CAN_110","110","","","","","","null","<button class=""jspsych-btn""><img src=""stimuli/white_square.png"" style=""width: 200px;height: 200px;""></button>","null","red","orange","[""red"",""orange"",""high nameability""]","right-left","[""orange"",""red""]","5","high nameability","46","right","iti",""
"html-button-response","221","816393","0.0-171.0","CAN_110","110","","","","","","523","","0","red","blue","[""red"",""blue"",""high nameability""]","right-left","[""blue"",""red""]","5","high nameability","47","right","trigger",""
"html-button-response","222","816972","0.0-172.0-0.0","CAN_110","110","","","","","","572","<button class=""jspsych-btn""><img src=""stimuli/red.png"" style=""width: 200px;height: 200px;""></button>","1","red","blue","[""red"",""blue"",""high nameability""]","right-left","[""blue"",""red""]","5","high nameability","47","right","response","1"
"html-audio-button-response","223","817177","0.0-172.0-1.0","CAN_110","110","","","","","","null","stimuli/bleep.m4a","null","red","blue","[""red"",""blue"",""high nameability""]","right-left","[""blue"",""red""]","5","high nameability","47","right","audio_feedback","1"
"html-button-response","224","817697","0.0-173.0","CAN_110","110","","","","","","null","<button class=""jspsych-btn""><img src=""stimuli/white_square.png"" style=""width: 200px;height: 200px;""></button>","null","red","blue","[""red"",""blue"",""high nameability""]","right-left","[""blue"",""red""]","5","high nameability","47","right","iti",""
"html-button-response","225","818277","0.0-174.0","CAN_110","110","","","","","","564","","0","lightred","neonyellow","[""lightred"",""neonyellow"",""low nameability""]","left-right","[""lightred"",""neonyellow"",""low nameability""]","5","low nameability","48","left","trigger",""
"html-button-response","226","818827","0.0-175.0-0.0","CAN_110","110","","","","","","543","<button class=""jspsych-btn""><img src=""stimuli/lightred.png"" style=""width: 200px;height: 200px;""></button>","0","lightred","neonyellow","[""lightred"",""neonyellow"",""low nameability""]","left-right","[""lightred"",""neonyellow"",""low nameability""]","5","low nameability","48","left","response","1"
"html-audio-button-response","227","819031","0.0-175.0-1.0","CAN_110","110","","","","","","null","stimuli/bleep.m4a","null","lightred","neonyellow","[""lightred"",""neonyellow"",""low nameability""]","left-right","[""lightred"",""neonyellow"",""low nameability""]","5","low nameability","48","left","audio_feedback","1"
"html-button-response","228","819552","0.0-176.0","CAN_110","110","","","","","","null","<button class=""jspsych-btn""><img src=""stimuli/white_square.png"" style=""width: 200px;height: 200px;""></button>","null","lightred","neonyellow","[""lightred"",""neonyellow"",""low nameability""]","left-right","[""lightred"",""neonyellow"",""low nameability""]","5","low nameability","48","left","iti",""
"html-button-response","229","820892","0.0-177.0","CAN_110","110","","","","","","1323","","0","lightred","mustard","[""lightred"",""mustard"",""low nameability""]","right-left","[""mustard"",""lightred""]","5","low nameability","49","right","trigger",""
"html-button-response","230","821458","0.0-178.0-0.0","CAN_110","110","","","","","","560","<button class=""jspsych-btn""><img src=""stimuli/lightred.png"" style=""width: 200px;height: 200px;""></button>","1","lightred","mustard","[""lightred"",""mustard"",""low nameability""]","right-left","[""mustard"",""lightred""]","5","low nameability","49","right","response","1"
"html-audio-button-response","231","821662","0.0-178.0-1.0","CAN_110","110","","","","","","null","stimuli/bleep.m4a","null","lightred","mustard","[""lightred"",""mustard"",""low nameability""]","right-left","[""mustard"",""lightred""]","5","low nameability","49","right","audio_feedback","1"
"html-button-response","232","822184","0.0-179.0","CAN_110","110","","","","","","null","<button class=""jspsych-btn""><img src=""stimuli/white_square.png"" style=""width: 200px;height: 200px;""></button>","null","lightred","mustard","[""lightred"",""mustard"",""low nameability""]","right-left","[""mustard"",""lightred""]","5","low nameability","49","right","iti",""
"html-button-response","233","822841","0.0-180.0","CAN_110","110","","","","","","641","","0","purple","blue","[""purple"",""blue"",""high nameability""]","right-left","[""blue"",""purple""]","5","high nameability","50","right","trigger",""
"html-button-response","234","823526","0.0-181.0-0.0","CAN_110","110","","","","","","675","<button class=""jspsych-btn""><img src=""stimuli/purple.png"" style=""width: 200px;height: 200px;""></button>","1","purple","blue","[""purple"",""blue"",""high nameability""]","right-left","[""blue"",""purple""]","5","high nameability","50","right","response","1"
"html-audio-button-response","235","823728","0.0-181.0-1.0","CAN_110","110","","","","","","null","stimuli/bleep.m4a","null","purple","blue","[""purple"",""blue"",""high nameability""]","right-left","[""blue"",""purple""]","5","high nameability","50","right","audio_feedback","1"
"html-button-response","236","824244","0.0-182.0","CAN_110","110","","","","","","null","<button class=""jspsych-btn""><img src=""stimuli/white_square.png"" style=""width: 200px;height: 200px;""></button>","null","purple","blue","[""purple"",""blue"",""high nameability""]","right-left","[""blue"",""purple""]","5","high nameability","50","right","iti",""
"pavlovia","237","824290","0.0-183.0","CAN_110","110","","","","","","","","","","","","","","","","","","",""
"pavlovia","238","824296","0.0-184.0","CAN_110","110","","","","","","","","","","","","","","","","","","",""
"html-audio-button-response","239","826040","0.0-185.0","CAN_110","110","","","","","","1797","stimuli/tada.m4a","0","","","","","","","","","","",""
"html-button-response","240","827057","0.0-186.0","CAN_110","110","","","","","","1011","","0","","","","","","","","","","",""
"html-button-response","241","827824","0.0-187.0","CAN_110","110","","","","","","761","","0","pink","darkgreenblue","[""pink"",""darkgreenblue"",""low nameability""]","right-left","[""darkgreenblue"",""pink""]","6","low nameability","51","right","trigger",""
"html-button-response","242","828550","0.0-188.0-0.0","CAN_110","110","","","","","","719","<button class=""jspsych-btn""><img src=""stimuli/pink.png"" style=""width: 200px;height: 200px;""></button>","1","pink","darkgreenblue","[""pink"",""darkgreenblue"",""low nameability""]","right-left","[""darkgreenblue"",""pink""]","6","low nameability","51","right","response","1"
"html-audio-button-response","243","828754","0.0-188.0-1.0","CAN_110","110","","","","","","null","stimuli/bleep.m4a","null","pink","darkgreenblue","[""pink"",""darkgreenblue"",""low nameability""]","right-left","[""darkgreenblue"",""pink""]","6","low nameability","51","right","audio_feedback","1"
"html-button-response","244","829274","0.0-189.0","CAN_110","110","","","","","","null","<button class=""jspsych-btn""><img src=""stimuli/white_square.png"" style=""width: 200px;height: 200px;""></button>","null","pink","darkgreenblue","[""pink"",""darkgreenblue"",""low nameability""]","right-left","[""darkgreenblue"",""pink""]","6","low nameability","51","right","iti",""
"html-button-response","245","829751","0.0-190.0","CAN_110","110","","","","","","457","","0","orange","brown","[""orange"",""brown"",""high nameability""]","right-left","[""brown"",""orange""]","6","high nameability","52","right","trigger",""
"html-button-response","246","830311","0.0-191.0-0.0","CAN_110","110","","","","","","550","<button class=""jspsych-btn""><img src=""stimuli/orange.png"" style=""width: 200px;height: 200px;""></button>","1","orange","brown","[""orange"",""brown"",""high nameability""]","right-left","[""brown"",""orange""]","6","high nameability","52","right","response","1"
"html-audio-button-response","247","830513","0.0-191.0-1.0","CAN_110","110","","","","","","null","stimuli/bleep.m4a","null","orange","brown","[""orange"",""brown"",""high nameability""]","right-left","[""brown"",""orange""]","6","high nameability","52","right","audio_feedback","1"
"html-button-response","248","831033","0.0-192.0","CAN_110","110","","","","","","null","<button class=""jspsych-btn""><img src=""stimuli/white_square.png"" style=""width: 200px;height: 200px;""></button>","null","orange","brown","[""orange"",""brown"",""high nameability""]","right-left","[""brown"",""orange""]","6","high nameability","52","right","iti",""
"html-button-response","249","831705","0.0-193.0","CAN_110","110","","","","","","658","","0","brown","red","[""brown"",""red"",""high nameability""]","right-left","[""red"",""brown""]","6","high nameability","53","right","trigger",""
"html-button-response","250","832376","0.0-194.0-0.0","CAN_110","110","","","","","","662","<button class=""jspsych-btn""><img src=""stimuli/brown.png"" style=""width: 200px;height: 200px;""></button>","1","brown","red","[""brown"",""red"",""high nameability""]","right-left","[""red"",""brown""]","6","high nameability","53","right","response","1"
"html-audio-button-response","251","832580","0.0-194.0-1.0","CAN_110","110","","","","","","null","stimuli/bleep.m4a","null","brown","red","[""brown"",""red"",""high nameability""]","right-left","[""red"",""brown""]","6","high nameability","53","right","audio_feedback","1"
"html-button-response","252","833109","0.0-195.0","CAN_110","110","","","","","","null","<button class=""jspsych-btn""><img src=""stimuli/white_square.png"" style=""width: 200px;height: 200px;""></button>","null","brown","red","[""brown"",""red"",""high nameability""]","right-left","[""red"",""brown""]","6","high nameability","53","right","iti",""
"html-button-response","253","833620","0.0-196.0","CAN_110","110","","","","","","498","","0","blue","orange","[""blue"",""orange"",""high nameability""]","right-left","[""orange"",""blue""]","6","high nameability","54","right","trigger",""
"html-button-response","254","834122","0.0-197.0-0.0","CAN_110","110","","","","","","495","<button class=""jspsych-btn""><img src=""stimuli/blue.png"" style=""width: 200px;height: 200px;""></button>","1","blue","orange","[""blue"",""orange"",""high nameability""]","right-left","[""orange"",""blue""]","6","high nameability","54","right","response","1"
"html-audio-button-response","255","834327","0.0-197.0-1.0","CAN_110","110","","","","","","null","stimuli/bleep.m4a","null","blue","orange","[""blue"",""orange"",""high nameability""]","right-left","[""orange"",""blue""]","6","high nameability","54","right","audio_feedback","1"
"html-button-response","256","834844","0.0-198.0","CAN_110","110","","","","","","null","<button class=""jspsych-btn""><img src=""stimuli/white_square.png"" style=""width: 200px;height: 200px;""></button>","null","blue","orange","[""blue"",""orange"",""high nameability""]","right-left","[""orange"",""blue""]","6","high nameability","54","right","iti",""
"html-button-response","257","835305","0.0-199.0","CAN_110","110","","","","","","444","","0","red","brown","[""red"",""brown"",""high nameability""]","left-right","[""red"",""brown"",""high nameability""]","6","high nameability","55","left","trigger",""
"html-button-response","258","835896","0.0-200.0-0.0","CAN_110","110","","","","","","583","<button class=""jspsych-btn""><img src=""stimuli/red.png"" style=""width: 200px;height: 200px;""></button>","0","red","brown","[""red"",""brown"",""high nameability""]","left-right","[""red"",""brown"",""high nameability""]","6","high nameability","55","left","response","1"
"html-audio-button-response","259","836100","0.0-200.0-1.0","CAN_110","110","","","","","","null","stimuli/bleep.m4a","null","red","brown","[""red"",""brown"",""high nameability""]","left-right","[""red"",""brown"",""high nameability""]","6","high nameability","55","left","audio_feedback","1"
"html-button-response","260","836624","0.0-201.0","CAN_110","110","","","","","","null","<button class=""jspsych-btn""><img src=""stimuli/white_square.png"" style=""width: 200px;height: 200px;""></button>","null","red","brown","[""red"",""brown"",""high nameability""]","left-right","[""red"",""brown"",""high nameability""]","6","high nameability","55","left","iti",""
"html-button-response","261","837207","0.0-202.0","CAN_110","110","","","","","","568","","0","orange","blue","[""orange"",""blue"",""high nameability""]","left-right","[""orange"",""blue"",""high nameability""]","6","high nameability","56","left","trigger",""
"html-button-response","262","837832","0.0-203.0-0.0","CAN_110","110","","","","","","615","<button class=""jspsych-btn""><img src=""stimuli/orange.png"" style=""width: 200px;height: 200px;""></button>","0","orange","blue","[""orange"",""blue"",""high nameability""]","left-right","[""orange"",""blue"",""high nameability""]","6","high nameability","56","left","response","1"
"html-audio-button-response","263","838033","0.0-203.0-1.0","CAN_110","110","","","","","","null","stimuli/bleep.m4a","null","orange","blue","[""orange"",""blue"",""high nameability""]","left-right","[""orange"",""blue"",""high nameability""]","6","high nameability","56","left","audio_feedback","1"
"html-button-response","264","838549","0.0-204.0","CAN_110","110","","","","","","null","<button class=""jspsych-btn""><img src=""stimuli/white_square.png"" style=""width: 200px;height: 200px;""></button>","null","orange","blue","[""orange"",""blue"",""high nameability""]","left-right","[""orange"",""blue"",""high nameability""]","6","high nameability","56","left","iti",""
"html-button-response","265","839106","0.0-205.0","CAN_110","110","","","","","","540","","0","turquoise","lightred","[""turquoise"",""lightred"",""low nameability""]","left-right","[""turquoise"",""lightred"",""low nameability""]","6","low nameability","57","left","trigger",""
"html-button-response","266","839755","0.0-206.0-0.0","CAN_110","110","","","","","","644","<button class=""jspsych-btn""><img src=""stimuli/turquoise.png"" style=""width: 200px;height: 200px;""></button>","0","turquoise","lightred","[""turquoise"",""lightred"",""low nameability""]","left-right","[""turquoise"",""lightred"",""low nameability""]","6","low nameability","57","left","response","1"
"html-audio-button-response","267","839960","0.0-206.0-1.0","CAN_110","110","","","","","","null","stimuli/bleep.m4a","null","turquoise","lightred","[""turquoise"",""lightred"",""low nameability""]","left-right","[""turquoise"",""lightred"",""low nameability""]","6","low nameability","57","left","audio_feedback","1"
"html-button-response","268","840473","0.0-207.0","CAN_110","110","","","","","","null","<button class=""jspsych-btn""><img src=""stimuli/white_square.png"" style=""width: 200px;height: 200px;""></button>","null","turquoise","lightred","[""turquoise"",""lightred"",""low nameability""]","left-right","[""turquoise"",""lightred"",""low nameability""]","6","low nameability","57","left","iti",""
"html-button-response","269","840957","0.0-208.0","CAN_110","110","","","","","","468","","0","mustard","turquoise","[""mustard"",""turquoise"",""low nameability""]","left-right","[""mustard"",""turquoise"",""low nameability""]","6","low nameability","58","left","trigger",""
"html-button-response","270","841715","0.0-209.0-0.0","CAN_110","110","","","","","","751","<button class=""jspsych-btn""><img src=""stimuli/mustard.png"" style=""width: 200px;height: 200px;""></button>","0","mustard","turquoise","[""mustard"",""turquoise"",""low nameability""]","left-right","[""mustard"",""turquoise"",""low nameability""]","6","low nameability","58","left","response","1"
"html-audio-button-response","271","841916","0.0-209.0-1.0","CAN_110","110","","","","","","null","stimuli/bleep.m4a","null","mustard","turquoise","[""mustard"",""turquoise"",""low nameability""]","left-right","[""mustard"",""turquoise"",""low nameability""]","6","low nameability","58","left","audio_feedback","1"
"html-button-response","272","842434","0.0-210.0","CAN_110","110","","","","","","null","<button class=""jspsych-btn""><img src=""stimuli/white_square.png"" style=""width: 200px;height: 200px;""></button>","null","mustard","turquoise","[""mustard"",""turquoise"",""low nameability""]","left-right","[""mustard"",""turquoise"",""low nameability""]","6","low nameability","58","left","iti",""
"html-button-response","273","842915","0.0-211.0","CAN_110","110","","","","","","462","","0","blue","yellow","[""blue"",""yellow"",""high nameability""]","right-left","[""yellow"",""blue""]","6","high nameability","59","right","trigger",""
"html-button-response","274","843497","0.0-212.0-0.0","CAN_110","110","","","","","","574","<button class=""jspsych-btn""><img src=""stimuli/blue.png"" style=""width: 200px;height: 200px;""></button>","1","blue","yellow","[""blue"",""yellow"",""high nameability""]","right-left","[""yellow"",""blue""]","6","high nameability","59","right","response","1"
"html-audio-button-response","275","843701","0.0-212.0-1.0","CAN_110","110","","","","","","null","stimuli/bleep.m4a","null","blue","yellow","[""blue"",""yellow"",""high nameability""]","right-left","[""yellow"",""blue""]","6","high nameability","59","right","audio_feedback","1"
"html-button-response","276","844220","0.0-213.0","CAN_110","110","","","","","","null","<button class=""jspsych-btn""><img src=""stimuli/white_square.png"" style=""width: 200px;height: 200px;""></button>","null","blue","yellow","[""blue"",""yellow"",""high nameability""]","right-left","[""yellow"",""blue""]","6","high nameability","59","right","iti",""
"html-button-response","277","844745","0.0-214.0","CAN_110","110","","","","","","510","","0","pink","mustard","[""pink"",""mustard"",""low nameability""]","right-left","[""mustard"",""pink""]","6","low nameability","60","right","trigger",""
"html-button-response","278","845253","0.0-215.0-0.0","CAN_110","110","","","","","","503","<button class=""jspsych-btn""><img src=""stimuli/pink.png"" style=""width: 200px;height: 200px;""></button>","1","pink","mustard","[""pink"",""mustard"",""low nameability""]","right-left","[""mustard"",""pink""]","6","low nameability","60","right","response","1"
"html-audio-button-response","279","845459","0.0-215.0-1.0","CAN_110","110","","","","","","null","stimuli/bleep.m4a","null","pink","mustard","[""pink"",""mustard"",""low nameability""]","right-left","[""mustard"",""pink""]","6","low nameability","60","right","audio_feedback","1"
"html-button-response","280","845984","0.0-216.0","CAN_110","110","","","","","","null","<button class=""jspsych-btn""><img src=""stimuli/white_square.png"" style=""width: 200px;height: 200px;""></button>","null","pink","mustard","[""pink"",""mustard"",""low nameability""]","right-left","[""mustard"",""pink""]","6","low nameability","60","right","iti",""
