"trial_type","trial_index","time_elapsed","internal_node_id","subject_id","seed","success","timeout","failed_images","failed_audio","failed_video","rt","stimulus","response","target","foil","choices","combination_order","choices_in_order","round","condition","trial_counter","target_location","trial_kind","correct"
"pavlovia","0","21","0.0-0.0","CAN_128","128","","","","","","","","","","","","","","","","","","",""
"preload","1","708","0.0-1.0","CAN_128","128","true","false","[]","[]","[]","","","","","","","","","","","","","",""
"fullscreen","2","1690646","0.0-2.0","CAN_128","128","true","","","","","","","","","","","","","","","","","",""
"html-button-response","3","1698101","0.0-3.0","CAN_128","128","","","","","","7415","","0","","","","","","","","","","",""
"html-button-response","4","1700720","0.0-4.0","CAN_128","128","","","","","","2605","","0","star","square","[""square"",""star""]","left-right","[""square"",""star""]","1","practice","1","right","trigger",""
"html-button-response","5","1705151","0.0-5.0-0.0","CAN_128","128","","","","","","4415","<button class=""jspsych-btn""><img src=""stimuli/star.png"" style=""width: 200px;height: 200px;""></button>","1","star","square","[""square"",""star""]","left-right","[""square"",""star""]","1","practice","1","right","response","1"
"html-audio-button-response","6","1705363","0.0-5.0-1.0","CAN_128","128","","","","","","null","stimuli/bleep.m4a","null","star","square","[""square"",""star""]","left-right","[""square"",""star""]","1","practice","1","right","audio_feedback","1"
"html-button-response","7","1705894","0.0-6.0","CAN_128","128","","","","","","null","<button class=""jspsych-btn""><img src=""stimuli/white_square.png"" style=""width: 200px;height: 200px;""></button>","null","star","square","[""square"",""star""]","left-right","[""square"",""star""]","1","practice","1","right","iti",""
"html-button-response","8","1708625","0.0-7.0","CAN_128","128","","","","","","2711","","0","triangle","pentagram","[""triangle"",""pentagram""]","left-right","[""triangle"",""pentagram""]","1","practice","1","left","trigger",""
"html-button-response","9","1709849","0.0-8.0-0.0","CAN_128","128","","","","","","1215","<button class=""jspsych-btn""><img src=""stimuli/triangle.png"" style=""width: 200px;height: 200px;""></button>","0","triangle","pentagram","[""triangle"",""pentagram""]","left-right","[""triangle"",""pentagram""]","1","practice","1","left","response","1"
"html-audio-button-response","10","1710058","0.0-8.0-1.0","CAN_128","128","","","","","","null","stimuli/bleep.m4a","null","triangle","pentagram","[""triangle"",""pentagram""]","left-right","[""triangle"",""pentagram""]","1","practice","1","left","audio_feedback","1"
"html-button-response","11","1710588","0.0-9.0","CAN_128","128","","","","","","null","<button class=""jspsych-btn""><img src=""stimuli/white_square.png"" style=""width: 200px;height: 200px;""></button>","null","triangle","pentagram","[""triangle"",""pentagram""]","left-right","[""triangle"",""pentagram""]","1","practice","1","left","iti",""
"html-button-response","12","1711243","0.0-10.0","CAN_128","128","","","","","","627","","0","diamond","rectangle","[""rectangle"",""diamond""]","left-right","[""rectangle"",""diamond""]","1","practice","1","right","trigger",""
"html-button-response","13","1712311","0.0-11.0-0.0","CAN_128","128","","","","","","1057","<button class=""jspsych-btn""><img src=""stimuli/diamond.png"" style=""width: 200px;height: 200px;""></button>","1","diamond","rectangle","[""rectangle"",""diamond""]","left-right","[""rectangle"",""diamond""]","1","practice","1","right","response","1"
"html-audio-button-response","14","1712518","0.0-11.0-1.0","CAN_128","128","","","","","","null","stimuli/bleep.m4a","null","diamond","rectangle","[""rectangle"",""diamond""]","left-right","[""rectangle"",""diamond""]","1","practice","1","right","audio_feedback","1"
"html-button-response","15","1713037","0.0-12.0","CAN_128","128","","","","","","null","<button class=""jspsych-btn""><img src=""stimuli/white_square.png"" style=""width: 200px;height: 200px;""></button>","null","diamond","rectangle","[""rectangle"",""diamond""]","left-right","[""rectangle"",""diamond""]","1","practice","1","right","iti",""
"html-button-response","16","1713608","0.0-13.0","CAN_128","128","","","","","","543","","0","pentagram","star","[""pentagram"",""star""]","left-right","[""pentagram"",""star""]","1","practice","1","left","trigger",""
"html-button-response","17","1714426","0.0-14.0-0.0","CAN_128","128","","","","","","808","<button class=""jspsych-btn""><img src=""stimuli/pentagram.png"" style=""width: 200px;height: 200px;""></button>","0","pentagram","star","[""pentagram"",""star""]","left-right","[""pentagram"",""star""]","1","practice","1","left","response","1"
"html-audio-button-response","18","1714632","0.0-14.0-1.0","CAN_128","128","","","","","","null","stimuli/bleep.m4a","null","pentagram","star","[""pentagram"",""star""]","left-right","[""pentagram"",""star""]","1","practice","1","left","audio_feedback","1"
"html-button-response","19","1715158","0.0-15.0","CAN_128","128","","","","","","null","<button class=""jspsych-btn""><img src=""stimuli/white_square.png"" style=""width: 200px;height: 200px;""></button>","null","pentagram","star","[""pentagram"",""star""]","left-right","[""pentagram"",""star""]","1","practice","1","left","iti",""
"html-button-response","20","1721674","0.0-16.0","CAN_128","128","","","","","","6501","","0","","","","","","","","","","",""
"html-button-response","21","1722350","0.0-17.0","CAN_128","128","","","","","","668","","0","orange","blue","[""orange"",""blue"",""high nameability""]","right-left","[""blue"",""orange""]","1","high nameability","1","right","trigger",""
"html-button-response","22","1723051","0.0-18.0-0.0","CAN_128","128","","","","","","691","<button class=""jspsych-btn""><img src=""stimuli/orange.png"" style=""width: 200px;height: 200px;""></button>","1","orange","blue","[""orange"",""blue"",""high nameability""]","right-left","[""blue"",""orange""]","1","high nameability","1","right","response","1"
"html-audio-button-response","23","1723258","0.0-18.0-1.0","CAN_128","128","","","","","","null","stimuli/bleep.m4a","null","orange","blue","[""orange"",""blue"",""high nameability""]","right-left","[""blue"",""orange""]","1","high nameability","1","right","audio_feedback","1"
"html-button-response","24","1723778","0.0-19.0","CAN_128","128","","","","","","null","<button class=""jspsych-btn""><img src=""stimuli/white_square.png"" style=""width: 200px;height: 200px;""></button>","null","orange","blue","[""orange"",""blue"",""high nameability""]","right-left","[""blue"",""orange""]","1","high nameability","1","right","iti",""
"html-button-response","25","1724239","0.0-20.0","CAN_128","128","","","","","","443","","0","red","yellow","[""red"",""yellow"",""high nameability""]","right-left","[""yellow"",""red""]","1","high nameability","2","right","trigger",""
"html-button-response","26","1725071","0.0-21.0-0.0","CAN_128","128","","","","","","824","<button class=""jspsych-btn""><img src=""stimuli/red.png"" style=""width: 200px;height: 200px;""></button>","1","red","yellow","[""red"",""yellow"",""high nameability""]","right-left","[""yellow"",""red""]","1","high nameability","2","right","response","1"
"html-audio-button-response","27","1725278","0.0-21.0-1.0","CAN_128","128","","","","","","null","stimuli/bleep.m4a","null","red","yellow","[""red"",""yellow"",""high nameability""]","right-left","[""yellow"",""red""]","1","high nameability","2","right","audio_feedback","1"
"html-button-response","28","1725806","0.0-22.0","CAN_128","128","","","","","","null","<button class=""jspsych-btn""><img src=""stimuli/white_square.png"" style=""width: 200px;height: 200px;""></button>","null","red","yellow","[""red"",""yellow"",""high nameability""]","right-left","[""yellow"",""red""]","1","high nameability","2","right","iti",""
"html-button-response","29","1726412","0.0-23.0","CAN_128","128","","","","","","588","","0","purple","orange","[""purple"",""orange"",""high nameability""]","left-right","[""purple"",""orange"",""high nameability""]","1","high nameability","3","left","trigger",""
"html-button-response","30","1727040","0.0-24.0-0.0","CAN_128","128","","","","","","621","<button class=""jspsych-btn""><img src=""stimuli/purple.png"" style=""width: 200px;height: 200px;""></button>","0","purple","orange","[""purple"",""orange"",""high nameability""]","left-right","[""purple"",""orange"",""high nameability""]","1","high nameability","3","left","response","1"
"html-audio-button-response","31","1727240","0.0-24.0-1.0","CAN_128","128","","","","","","null","stimuli/bleep.m4a","null","purple","orange","[""purple"",""orange"",""high nameability""]","left-right","[""purple"",""orange"",""high nameability""]","1","high nameability","3","left","audio_feedback","1"
"html-button-response","32","1727754","0.0-25.0","CAN_128","128","","","","","","null","<button class=""jspsych-btn""><img src=""stimuli/white_square.png"" style=""width: 200px;height: 200px;""></button>","null","purple","orange","[""purple"",""orange"",""high nameability""]","left-right","[""purple"",""orange"",""high nameability""]","1","high nameability","3","left","iti",""
"html-button-response","33","1728622","0.0-26.0","CAN_128","128","","","","","","844","","0","yellow","brown","[""yellow"",""brown"",""high nameability""]","right-left","[""brown"",""yellow""]","1","high nameability","4","right","trigger",""
"html-button-response","34","1729362","0.0-27.0-0.0","CAN_128","128","","","","","","733","<button class=""jspsych-btn""><img src=""stimuli/yellow.png"" style=""width: 200px;height: 200px;""></button>","1","yellow","brown","[""yellow"",""brown"",""high nameability""]","right-left","[""brown"",""yellow""]","1","high nameability","4","right","response","1"
"html-audio-button-response","35","1729570","0.0-27.0-1.0","CAN_128","128","","","","","","null","stimuli/bleep.m4a","null","yellow","brown","[""yellow"",""brown"",""high nameability""]","right-left","[""brown"",""yellow""]","1","high nameability","4","right","audio_feedback","1"
"html-button-response","36","1730088","0.0-28.0","CAN_128","128","","","","","","null","<button class=""jspsych-btn""><img src=""stimuli/white_square.png"" style=""width: 200px;height: 200px;""></button>","null","yellow","brown","[""yellow"",""brown"",""high nameability""]","right-left","[""brown"",""yellow""]","1","high nameability","4","right","iti",""
"html-button-response","37","1730947","0.0-29.0","CAN_128","128","","","","","","848","","0","pink","lightred","[""pink"",""lightred"",""low nameability""]","right-left","[""lightred"",""pink""]","1","low nameability","5","right","trigger",""
"html-button-response","38","1731731","0.0-30.0-0.0","CAN_128","128","","","","","","777","<button class=""jspsych-btn""><img src=""stimuli/pink.png"" style=""width: 200px;height: 200px;""></button>","1","pink","lightred","[""pink"",""lightred"",""low nameability""]","right-left","[""lightred"",""pink""]","1","low nameability","5","right","response","1"
"html-audio-button-response","39","1731938","0.0-30.0-1.0","CAN_128","128","","","","","","null","stimuli/bleep.m4a","null","pink","lightred","[""pink"",""lightred"",""low nameability""]","right-left","[""lightred"",""pink""]","1","low nameability","5","right","audio_feedback","1"
"html-button-response","40","1732459","0.0-31.0","CAN_128","128","","","","","","null","<button class=""jspsych-btn""><img src=""stimuli/white_square.png"" style=""width: 200px;height: 200px;""></button>","null","pink","lightred","[""pink"",""lightred"",""low nameability""]","right-left","[""lightred"",""pink""]","1","low nameability","5","right","iti",""
"html-button-response","41","1733013","0.0-32.0","CAN_128","128","","","","","","540","","0","yellow","purple","[""yellow"",""purple"",""high nameability""]","left-right","[""yellow"",""purple"",""high nameability""]","1","high nameability","6","left","trigger",""
"html-button-response","42","1733716","0.0-33.0-0.0","CAN_128","128","","","","","","696","<button class=""jspsych-btn""><img src=""stimuli/yellow.png"" style=""width: 200px;height: 200px;""></button>","0","yellow","purple","[""yellow"",""purple"",""high nameability""]","left-right","[""yellow"",""purple"",""high nameability""]","1","high nameability","6","left","response","1"
"html-audio-button-response","43","1733924","0.0-33.0-1.0","CAN_128","128","","","","","","null","stimuli/bleep.m4a","null","yellow","purple","[""yellow"",""purple"",""high nameability""]","left-right","[""yellow"",""purple"",""high nameability""]","1","high nameability","6","left","audio_feedback","1"
"html-button-response","44","1734448","0.0-34.0","CAN_128","128","","","","","","null","<button class=""jspsych-btn""><img src=""stimuli/white_square.png"" style=""width: 200px;height: 200px;""></button>","null","yellow","purple","[""yellow"",""purple"",""high nameability""]","left-right","[""yellow"",""purple"",""high nameability""]","1","high nameability","6","left","iti",""
"html-button-response","45","1734966","0.0-35.0","CAN_128","128","","","","","","495","","0","red","brown","[""red"",""brown"",""high nameability""]","right-left","[""brown"",""red""]","1","high nameability","7","right","trigger",""
"html-button-response","46","1735546","0.0-36.0-0.0","CAN_128","128","","","","","","574","<button class=""jspsych-btn""><img src=""stimuli/red.png"" style=""width: 200px;height: 200px;""></button>","1","red","brown","[""red"",""brown"",""high nameability""]","right-left","[""brown"",""red""]","1","high nameability","7","right","response","1"
"html-audio-button-response","47","1735752","0.0-36.0-1.0","CAN_128","128","","","","","","null","stimuli/bleep.m4a","null","red","brown","[""red"",""brown"",""high nameability""]","right-left","[""brown"",""red""]","1","high nameability","7","right","audio_feedback","1"
"html-button-response","48","1736276","0.0-37.0","CAN_128","128","","","","","","null","<button class=""jspsych-btn""><img src=""stimuli/white_square.png"" style=""width: 200px;height: 200px;""></button>","null","red","brown","[""red"",""brown"",""high nameability""]","right-left","[""brown"",""red""]","1","high nameability","7","right","iti",""
"html-button-response","49","1736852","0.0-38.0","CAN_128","128","","","","","","555","","0","yellow","blue","[""yellow"",""blue"",""high nameability""]","left-right","[""yellow"",""blue"",""high nameability""]","1","high nameability","8","left","trigger",""
"html-button-response","50","1737493","0.0-39.0-0.0","CAN_128","128","","","","","","634","<button class=""jspsych-btn""><img src=""stimuli/yellow.png"" style=""width: 200px;height: 200px;""></button>","0","yellow","blue","[""yellow"",""blue"",""high nameability""]","left-right","[""yellow"",""blue"",""high nameability""]","1","high nameability","8","left","response","1"
"html-audio-button-response","51","1737698","0.0-39.0-1.0","CAN_128","128","","","","","","null","stimuli/bleep.m4a","null","yellow","blue","[""yellow"",""blue"",""high nameability""]","left-right","[""yellow"",""blue"",""high nameability""]","1","high nameability","8","left","audio_feedback","1"
"html-button-response","52","1738218","0.0-40.0","CAN_128","128","","","","","","null","<button class=""jspsych-btn""><img src=""stimuli/white_square.png"" style=""width: 200px;height: 200px;""></button>","null","yellow","blue","[""yellow"",""blue"",""high nameability""]","left-right","[""yellow"",""blue"",""high nameability""]","1","high nameability","8","left","iti",""
"html-button-response","53","1738751","0.0-41.0","CAN_128","128","","","","","","511","","0","blue","purple","[""blue"",""purple"",""high nameability""]","right-left","[""purple"",""blue""]","1","high nameability","9","right","trigger",""
"html-button-response","54","1739299","0.0-42.0-0.0","CAN_128","128","","","","","","541","<button class=""jspsych-btn""><img src=""stimuli/blue.png"" style=""width: 200px;height: 200px;""></button>","1","blue","purple","[""blue"",""purple"",""high nameability""]","right-left","[""purple"",""blue""]","1","high nameability","9","right","response","1"
"html-audio-button-response","55","1739510","0.0-42.0-1.0","CAN_128","128","","","","","","null","stimuli/bleep.m4a","null","blue","purple","[""blue"",""purple"",""high nameability""]","right-left","[""purple"",""blue""]","1","high nameability","9","right","audio_feedback","1"
"html-button-response","56","1740035","0.0-43.0","CAN_128","128","","","","","","null","<button class=""jspsych-btn""><img src=""stimuli/white_square.png"" style=""width: 200px;height: 200px;""></button>","null","blue","purple","[""blue"",""purple"",""high nameability""]","right-left","[""purple"",""blue""]","1","high nameability","9","right","iti",""
"html-button-response","57","1740679","0.0-44.0","CAN_128","128","","","","","","629","","0","mustard","lightred","[""mustard"",""lightred"",""low nameability""]","left-right","[""mustard"",""lightred"",""low nameability""]","1","low nameability","10","left","trigger",""
"html-button-response","58","1741196","0.0-45.0-0.0","CAN_128","128","","","","","","509","<button class=""jspsych-btn""><img src=""stimuli/mustard.png"" style=""width: 200px;height: 200px;""></button>","0","mustard","lightred","[""mustard"",""lightred"",""low nameability""]","left-right","[""mustard"",""lightred"",""low nameability""]","1","low nameability","10","left","response","1"
"html-audio-button-response","59","1741401","0.0-45.0-1.0","CAN_128","128","","","","","","null","stimuli/bleep.m4a","null","mustard","lightred","[""mustard"",""lightred"",""low nameability""]","left-right","[""mustard"",""lightred"",""low nameability""]","1","low nameability","10","left","audio_feedback","1"
"html-button-response","60","1741916","0.0-46.0","CAN_128","128","","","","","","null","<button class=""jspsych-btn""><img src=""stimuli/white_square.png"" style=""width: 200px;height: 200px;""></button>","null","mustard","lightred","[""mustard"",""lightred"",""low nameability""]","left-right","[""mustard"",""lightred"",""low nameability""]","1","low nameability","10","left","iti",""
"pavlovia","61","1742019","0.0-47.0","CAN_128","128","","","","","","","","","","","","","","","","","","",""
"pavlovia","62","1742035","0.0-48.0","CAN_128","128","","","","","","","","","","","","","","","","","","",""
"html-audio-button-response","63","1745253","0.0-49.0","CAN_128","128","","","","","","3336","stimuli/tada.m4a","0","","","","","","","","","","",""
"html-button-response","64","1745898","0.0-50.0","CAN_128","128","","","","","","640","","0","","","","","","","","","","",""
"html-button-response","65","1746530","0.0-51.0","CAN_128","128","","","","","","625","","0","darkgreenblue","neonyellow","[""darkgreenblue"",""neonyellow"",""low nameability""]","right-left","[""neonyellow"",""darkgreenblue""]","2","low nameability","11","right","trigger",""
"html-button-response","66","1747360","0.0-52.0-0.0","CAN_128","128","","","","","","822","<button class=""jspsych-btn""><img src=""stimuli/darkgreenblue.png"" style=""width: 200px;height: 200px;""></button>","1","darkgreenblue","neonyellow","[""darkgreenblue"",""neonyellow"",""low nameability""]","right-left","[""neonyellow"",""darkgreenblue""]","2","low nameability","11","right","response","1"
"html-audio-button-response","67","1747566","0.0-52.0-1.0","CAN_128","128","","","","","","null","stimuli/bleep.m4a","null","darkgreenblue","neonyellow","[""darkgreenblue"",""neonyellow"",""low nameability""]","right-left","[""neonyellow"",""darkgreenblue""]","2","low nameability","11","right","audio_feedback","1"
"html-button-response","68","1748080","0.0-53.0","CAN_128","128","","","","","","null","<button class=""jspsych-btn""><img src=""stimuli/white_square.png"" style=""width: 200px;height: 200px;""></button>","null","darkgreenblue","neonyellow","[""darkgreenblue"",""neonyellow"",""low nameability""]","right-left","[""neonyellow"",""darkgreenblue""]","2","low nameability","11","right","iti",""
"html-button-response","69","1748536","0.0-54.0","CAN_128","128","","","","","","444","","0","pink","mustard","[""pink"",""mustard"",""low nameability""]","right-left","[""mustard"",""pink""]","2","low nameability","12","right","trigger",""
"html-button-response","70","1749250","0.0-55.0-0.0","CAN_128","128","","","","","","706","<button class=""jspsych-btn""><img src=""stimuli/pink.png"" style=""width: 200px;height: 200px;""></button>","1","pink","mustard","[""pink"",""mustard"",""low nameability""]","right-left","[""mustard"",""pink""]","2","low nameability","12","right","response","1"
"html-audio-button-response","71","1749458","0.0-55.0-1.0","CAN_128","128","","","","","","null","stimuli/bleep.m4a","null","pink","mustard","[""pink"",""mustard"",""low nameability""]","right-left","[""mustard"",""pink""]","2","low nameability","12","right","audio_feedback","1"
"html-button-response","72","1749998","0.0-56.0","CAN_128","128","","","","","","null","<button class=""jspsych-btn""><img src=""stimuli/white_square.png"" style=""width: 200px;height: 200px;""></button>","null","pink","mustard","[""pink"",""mustard"",""low nameability""]","right-left","[""mustard"",""pink""]","2","low nameability","12","right","iti",""
"html-button-response","73","1750331","0.0-57.0","CAN_128","128","","","","","","326","","0","mustard","darkgreenblue","[""mustard"",""darkgreenblue"",""low nameability""]","left-right","[""mustard"",""darkgreenblue"",""low nameability""]","2","low nameability","13","left","trigger",""
"html-button-response","74","1750964","0.0-58.0-0.0","CAN_128","128","","","","","","626","<button class=""jspsych-btn""><img src=""stimuli/mustard.png"" style=""width: 200px;height: 200px;""></button>","0","mustard","darkgreenblue","[""mustard"",""darkgreenblue"",""low nameability""]","left-right","[""mustard"",""darkgreenblue"",""low nameability""]","2","low nameability","13","left","response","1"
"html-audio-button-response","75","1751170","0.0-58.0-1.0","CAN_128","128","","","","","","null","stimuli/bleep.m4a","null","mustard","darkgreenblue","[""mustard"",""darkgreenblue"",""low nameability""]","left-right","[""mustard"",""darkgreenblue"",""low nameability""]","2","low nameability","13","left","audio_feedback","1"
"html-button-response","76","1751693","0.0-59.0","CAN_128","128","","","","","","null","<button class=""jspsych-btn""><img src=""stimuli/white_square.png"" style=""width: 200px;height: 200px;""></button>","null","mustard","darkgreenblue","[""mustard"",""darkgreenblue"",""low nameability""]","left-right","[""mustard"",""darkgreenblue"",""low nameability""]","2","low nameability","13","left","iti",""
"html-button-response","77","1752127","0.0-60.0","CAN_128","128","","","","","","409","","0","yellow","orange","[""yellow"",""orange"",""high nameability""]","left-right","[""yellow"",""orange"",""high nameability""]","2","high nameability","14","left","trigger",""
"html-button-response","78","1752840","0.0-61.0-0.0","CAN_128","128","","","","","","705","<button class=""jspsych-btn""><img src=""stimuli/yellow.png"" style=""width: 200px;height: 200px;""></button>","0","yellow","orange","[""yellow"",""orange"",""high nameability""]","left-right","[""yellow"",""orange"",""high nameability""]","2","high nameability","14","left","response","1"
"html-audio-button-response","79","1753046","0.0-61.0-1.0","CAN_128","128","","","","","","null","stimuli/bleep.m4a","null","yellow","orange","[""yellow"",""orange"",""high nameability""]","left-right","[""yellow"",""orange"",""high nameability""]","2","high nameability","14","left","audio_feedback","1"
"html-button-response","80","1753565","0.0-62.0","CAN_128","128","","","","","","null","<button class=""jspsych-btn""><img src=""stimuli/white_square.png"" style=""width: 200px;height: 200px;""></button>","null","yellow","orange","[""yellow"",""orange"",""high nameability""]","left-right","[""yellow"",""orange"",""high nameability""]","2","high nameability","14","left","iti",""
"html-button-response","81","1754097","0.0-63.0","CAN_128","128","","","","","","506","","0","turquoise","pink","[""turquoise"",""pink"",""low nameability""]","left-right","[""turquoise"",""pink"",""low nameability""]","2","low nameability","15","left","trigger",""
"html-button-response","82","1754712","0.0-64.0-0.0","CAN_128","128","","","","","","607","<button class=""jspsych-btn""><img src=""stimuli/turquoise.png"" style=""width: 200px;height: 200px;""></button>","0","turquoise","pink","[""turquoise"",""pink"",""low nameability""]","left-right","[""turquoise"",""pink"",""low nameability""]","2","low nameability","15","left","response","1"
"html-audio-button-response","83","1754922","0.0-64.0-1.0","CAN_128","128","","","","","","null","stimuli/bleep.m4a","null","turquoise","pink","[""turquoise"",""pink"",""low nameability""]","left-right","[""turquoise"",""pink"",""low nameability""]","2","low nameability","15","left","audio_feedback","1"
"html-button-response","84","1755442","0.0-65.0","CAN_128","128","","","","","","null","<button class=""jspsych-btn""><img src=""stimuli/white_square.png"" style=""width: 200px;height: 200px;""></button>","null","turquoise","pink","[""turquoise"",""pink"",""low nameability""]","left-right","[""turquoise"",""pink"",""low nameability""]","2","low nameability","15","left","iti",""
"html-button-response","85","1755894","0.0-66.0","CAN_128","128","","","","","","433","","0","brown","orange","[""brown"",""orange"",""high nameability""]","right-left","[""orange"",""brown""]","2","high nameability","16","right","trigger",""
"html-button-response","86","1756585","0.0-67.0-0.0","CAN_128","128","","","","","","683","<button class=""jspsych-btn""><img src=""stimuli/brown.png"" style=""width: 200px;height: 200px;""></button>","1","brown","orange","[""brown"",""orange"",""high nameability""]","right-left","[""orange"",""brown""]","2","high nameability","16","right","response","1"
"html-audio-button-response","87","1756789","0.0-67.0-1.0","CAN_128","128","","","","","","null","stimuli/bleep.m4a","null","brown","orange","[""brown"",""orange"",""high nameability""]","right-left","[""orange"",""brown""]","2","high nameability","16","right","audio_feedback","1"
"html-button-response","88","1757316","0.0-68.0","CAN_128","128","","","","","","null","<button class=""jspsych-btn""><img src=""stimuli/white_square.png"" style=""width: 200px;height: 200px;""></button>","null","brown","orange","[""brown"",""orange"",""high nameability""]","right-left","[""orange"",""brown""]","2","high nameability","16","right","iti",""
"html-button-response","89","1757899","0.0-69.0","CAN_128","128","","","","","","563","","0","blue","red","[""blue"",""red"",""high nameability""]","right-left","[""red"",""blue""]","2","high nameability","17","right","trigger",""
"html-button-response","90","1758495","0.0-70.0-0.0","CAN_128","128","","","","","","589","<button class=""jspsych-btn""><img src=""stimuli/blue.png"" style=""width: 200px;height: 200px;""></button>","1","blue","red","[""blue"",""red"",""high nameability""]","right-left","[""red"",""blue""]","2","high nameability","17","right","response","1"
"html-audio-button-response","91","1758697","0.0-70.0-1.0","CAN_128","128","","","","","","null","stimuli/bleep.m4a","null","blue","red","[""blue"",""red"",""high nameability""]","right-left","[""red"",""blue""]","2","high nameability","17","right","audio_feedback","1"
"html-button-response","92","1759216","0.0-71.0","CAN_128","128","","","","","","null","<button class=""jspsych-btn""><img src=""stimuli/white_square.png"" style=""width: 200px;height: 200px;""></button>","null","blue","red","[""blue"",""red"",""high nameability""]","right-left","[""red"",""blue""]","2","high nameability","17","right","iti",""
"html-button-response","93","1759714","0.0-72.0","CAN_128","128","","","","","","480","","0","turquoise","neonyellow","[""turquoise"",""neonyellow"",""low nameability""]","right-left","[""neonyellow"",""turquoise""]","2","low nameability","18","right","trigger",""
"html-button-response","94","1760316","0.0-73.0-0.0","CAN_128","128","","","","","","596","<button class=""jspsych-btn""><img src=""stimuli/turquoise.png"" style=""width: 200px;height: 200px;""></button>","1","turquoise","neonyellow","[""turquoise"",""neonyellow"",""low nameability""]","right-left","[""neonyellow"",""turquoise""]","2","low nameability","18","right","response","1"
"html-audio-button-response","95","1760522","0.0-73.0-1.0","CAN_128","128","","","","","","null","stimuli/bleep.m4a","null","turquoise","neonyellow","[""turquoise"",""neonyellow"",""low nameability""]","right-left","[""neonyellow"",""turquoise""]","2","low nameability","18","right","audio_feedback","1"
"html-button-response","96","1761045","0.0-74.0","CAN_128","128","","","","","","null","<button class=""jspsych-btn""><img src=""stimuli/white_square.png"" style=""width: 200px;height: 200px;""></button>","null","turquoise","neonyellow","[""turquoise"",""neonyellow"",""low nameability""]","right-left","[""neonyellow"",""turquoise""]","2","low nameability","18","right","iti",""
"html-button-response","97","1761514","0.0-75.0","CAN_128","128","","","","","","451","","0","darkgreenblue","mustard","[""darkgreenblue"",""mustard"",""low nameability""]","right-left","[""mustard"",""darkgreenblue""]","2","low nameability","19","right","trigger",""
"html-button-response","98","1762124","0.0-76.0-0.0","CAN_128","128","","","","","","602","<button class=""jspsych-btn""><img src=""stimuli/darkgreenblue.png"" style=""width: 200px;height: 200px;""></button>","1","darkgreenblue","mustard","[""darkgreenblue"",""mustard"",""low nameability""]","right-left","[""mustard"",""darkgreenblue""]","2","low nameability","19","right","response","1"
"html-audio-button-response","99","1762328","0.0-76.0-1.0","CAN_128","128","","","","","","null","stimuli/bleep.m4a","null","darkgreenblue","mustard","[""darkgreenblue"",""mustard"",""low nameability""]","right-left","[""mustard"",""darkgreenblue""]","2","low nameability","19","right","audio_feedback","1"
"html-button-response","100","1762848","0.0-77.0","CAN_128","128","","","","","","null","<button class=""jspsych-btn""><img src=""stimuli/white_square.png"" style=""width: 200px;height: 200px;""></button>","null","darkgreenblue","mustard","[""darkgreenblue"",""mustard"",""low nameability""]","right-left","[""mustard"",""darkgreenblue""]","2","low nameability","19","right","iti",""
"html-button-response","101","1763381","0.0-78.0","CAN_128","128","","","","","","521","","0","turquoise","mustard","[""turquoise"",""mustard"",""low nameability""]","left-right","[""turquoise"",""mustard"",""low nameability""]","2","low nameability","20","left","trigger",""
"html-button-response","102","1764039","0.0-79.0-0.0","CAN_128","128","","","","","","650","<button class=""jspsych-btn""><img src=""stimuli/turquoise.png"" style=""width: 200px;height: 200px;""></button>","0","turquoise","mustard","[""turquoise"",""mustard"",""low nameability""]","left-right","[""turquoise"",""mustard"",""low nameability""]","2","low nameability","20","left","response","1"
"html-audio-button-response","103","1764245","0.0-79.0-1.0","CAN_128","128","","","","","","null","stimuli/bleep.m4a","null","turquoise","mustard","[""turquoise"",""mustard"",""low nameability""]","left-right","[""turquoise"",""mustard"",""low nameability""]","2","low nameability","20","left","audio_feedback","1"
"html-button-response","104","1764764","0.0-80.0","CAN_128","128","","","","","","null","<button class=""jspsych-btn""><img src=""stimuli/white_square.png"" style=""width: 200px;height: 200px;""></button>","null","turquoise","mustard","[""turquoise"",""mustard"",""low nameability""]","left-right","[""turquoise"",""mustard"",""low nameability""]","2","low nameability","20","left","iti",""
"pavlovia","105","1764841","0.0-81.0","CAN_128","128","","","","","","","","","","","","","","","","","","",""
"pavlovia","106","1764857","0.0-82.0","CAN_128","128","","","","","","","","","","","","","","","","","","",""
"html-audio-button-response","107","1766012","0.0-83.0","CAN_128","128","","","","","","1248","stimuli/tada.m4a","0","","","","","","","","","","",""
"html-button-response","108","1766627","0.0-84.0","CAN_128","128","","","","","","609","","0","","","","","","","","","","",""
"html-button-response","109","1767146","0.0-85.0","CAN_128","128","","","","","","512","","0","brown","blue","[""brown"",""blue"",""high nameability""]","left-right","[""brown"",""blue"",""high nameability""]","3","high nameability","21","left","trigger",""
"html-button-response","110","1767825","0.0-86.0-0.0","CAN_128","128","","","","","","670","<button class=""jspsych-btn""><img src=""stimuli/brown.png"" style=""width: 200px;height: 200px;""></button>","0","brown","blue","[""brown"",""blue"",""high nameability""]","left-right","[""brown"",""blue"",""high nameability""]","3","high nameability","21","left","response","1"
"html-audio-button-response","111","1768034","0.0-86.0-1.0","CAN_128","128","","","","","","null","stimuli/bleep.m4a","null","brown","blue","[""brown"",""blue"",""high nameability""]","left-right","[""brown"",""blue"",""high nameability""]","3","high nameability","21","left","audio_feedback","1"
"html-button-response","112","1768559","0.0-87.0","CAN_128","128","","","","","","null","<button class=""jspsych-btn""><img src=""stimuli/white_square.png"" style=""width: 200px;height: 200px;""></button>","null","brown","blue","[""brown"",""blue"",""high nameability""]","left-right","[""brown"",""blue"",""high nameability""]","3","high nameability","21","left","iti",""
"html-button-response","113","1768730","0.0-88.0","CAN_128","128","","","","","","151","","0","blue","orange","[""blue"",""orange"",""high nameability""]","left-right","[""blue"",""orange"",""high nameability""]","3","high nameability","22","left","trigger",""
"html-button-response","114","1769355","0.0-89.0-0.0","CAN_128","128","","","","","","615","<button class=""jspsych-btn""><img src=""stimuli/blue.png"" style=""width: 200px;height: 200px;""></button>","0","blue","orange","[""blue"",""orange"",""high nameability""]","left-right","[""blue"",""orange"",""high nameability""]","3","high nameability","22","left","response","1"
"html-audio-button-response","115","1769562","0.0-89.0-1.0","CAN_128","128","","","","","","null","stimuli/bleep.m4a","null","blue","orange","[""blue"",""orange"",""high nameability""]","left-right","[""blue"",""orange"",""high nameability""]","3","high nameability","22","left","audio_feedback","1"
"html-button-response","116","1770083","0.0-90.0","CAN_128","128","","","","","","null","<button class=""jspsych-btn""><img src=""stimuli/white_square.png"" style=""width: 200px;height: 200px;""></button>","null","blue","orange","[""blue"",""orange"",""high nameability""]","left-right","[""blue"",""orange"",""high nameability""]","3","high nameability","22","left","iti",""
"html-button-response","117","1770495","0.0-91.0","CAN_128","128","","","","","","394","","0","lightred","darkgreenblue","[""lightred"",""darkgreenblue"",""low nameability""]","right-left","[""darkgreenblue"",""lightred""]","3","low nameability","23","right","trigger",""
"html-button-response","118","1771274","0.0-92.0-0.0","CAN_128","128","","","","","","770","<button class=""jspsych-btn""><img src=""stimuli/lightred.png"" style=""width: 200px;height: 200px;""></button>","1","lightred","darkgreenblue","[""lightred"",""darkgreenblue"",""low nameability""]","right-left","[""darkgreenblue"",""lightred""]","3","low nameability","23","right","response","1"
"html-audio-button-response","119","1771478","0.0-92.0-1.0","CAN_128","128","","","","","","null","stimuli/bleep.m4a","null","lightred","darkgreenblue","[""lightred"",""darkgreenblue"",""low nameability""]","right-left","[""darkgreenblue"",""lightred""]","3","low nameability","23","right","audio_feedback","1"
"html-button-response","120","1771997","0.0-93.0","CAN_128","128","","","","","","null","<button class=""jspsych-btn""><img src=""stimuli/white_square.png"" style=""width: 200px;height: 200px;""></button>","null","lightred","darkgreenblue","[""lightred"",""darkgreenblue"",""low nameability""]","right-left","[""darkgreenblue"",""lightred""]","3","low nameability","23","right","iti",""
"html-button-response","121","1772466","0.0-94.0","CAN_128","128","","","","","","451","","0","neonyellow","pink","[""neonyellow"",""pink"",""low nameability""]","left-right","[""neonyellow"",""pink"",""low nameability""]","3","low nameability","24","left","trigger",""
"html-button-response","122","1773041","0.0-95.0-0.0","CAN_128","128","","","","","","564","<button class=""jspsych-btn""><img src=""stimuli/neonyellow.png"" style=""width: 200px;height: 200px;""></button>","0","neonyellow","pink","[""neonyellow"",""pink"",""low nameability""]","left-right","[""neonyellow"",""pink"",""low nameability""]","3","low nameability","24","left","response","1"
"html-audio-button-response","123","1773245","0.0-95.0-1.0","CAN_128","128","","","","","","null","stimuli/bleep.m4a","null","neonyellow","pink","[""neonyellow"",""pink"",""low nameability""]","left-right","[""neonyellow"",""pink"",""low nameability""]","3","low nameability","24","left","audio_feedback","1"
"html-button-response","124","1773766","0.0-96.0","CAN_128","128","","","","","","null","<button class=""jspsych-btn""><img src=""stimuli/white_square.png"" style=""width: 200px;height: 200px;""></button>","null","neonyellow","pink","[""neonyellow"",""pink"",""low nameability""]","left-right","[""neonyellow"",""pink"",""low nameability""]","3","low nameability","24","left","iti",""
"html-button-response","125","1774233","0.0-97.0","CAN_128","128","","","","","","449","","0","lightred","neonyellow","[""lightred"",""neonyellow"",""low nameability""]","right-left","[""neonyellow"",""lightred""]","3","low nameability","25","right","trigger",""
"html-button-response","126","1774776","0.0-98.0-0.0","CAN_128","128","","","","","","535","<button class=""jspsych-btn""><img src=""stimuli/lightred.png"" style=""width: 200px;height: 200px;""></button>","1","lightred","neonyellow","[""lightred"",""neonyellow"",""low nameability""]","right-left","[""neonyellow"",""lightred""]","3","low nameability","25","right","response","1"
"html-audio-button-response","127","1774981","0.0-98.0-1.0","CAN_128","128","","","","","","null","stimuli/bleep.m4a","null","lightred","neonyellow","[""lightred"",""neonyellow"",""low nameability""]","right-left","[""neonyellow"",""lightred""]","3","low nameability","25","right","audio_feedback","1"
"html-button-response","128","1775501","0.0-99.0","CAN_128","128","","","","","","null","<button class=""jspsych-btn""><img src=""stimuli/white_square.png"" style=""width: 200px;height: 200px;""></button>","null","lightred","neonyellow","[""lightred"",""neonyellow"",""low nameability""]","right-left","[""neonyellow"",""lightred""]","3","low nameability","25","right","iti",""
"html-button-response","129","1775917","0.0-100.0","CAN_128","128","","","","","","403","","0","red","blue","[""red"",""blue"",""high nameability""]","left-right","[""red"",""blue"",""high nameability""]","3","high nameability","26","left","trigger",""
"html-button-response","130","1776449","0.0-101.0-0.0","CAN_128","128","","","","","","523","<button class=""jspsych-btn""><img src=""stimuli/red.png"" style=""width: 200px;height: 200px;""></button>","0","red","blue","[""red"",""blue"",""high nameability""]","left-right","[""red"",""blue"",""high nameability""]","3","high nameability","26","left","response","1"
"html-audio-button-response","131","1776657","0.0-101.0-1.0","CAN_128","128","","","","","","null","stimuli/bleep.m4a","null","red","blue","[""red"",""blue"",""high nameability""]","left-right","[""red"",""blue"",""high nameability""]","3","high nameability","26","left","audio_feedback","1"
"html-button-response","132","1777176","0.0-102.0","CAN_128","128","","","","","","null","<button class=""jspsych-btn""><img src=""stimuli/white_square.png"" style=""width: 200px;height: 200px;""></button>","null","red","blue","[""red"",""blue"",""high nameability""]","left-right","[""red"",""blue"",""high nameability""]","3","high nameability","26","left","iti",""
"html-button-response","133","1777626","0.0-103.0","CAN_128","128","","","","","","427","","0","brown","red","[""brown"",""red"",""high nameability""]","right-left","[""red"",""brown""]","3","high nameability","27","right","trigger",""
"html-button-response","134","1778244","0.0-104.0-0.0","CAN_128","128","","","","","","610","<button class=""jspsych-btn""><img src=""stimuli/brown.png"" style=""width: 200px;height: 200px;""></button>","1","brown","red","[""brown"",""red"",""high nameability""]","right-left","[""red"",""brown""]","3","high nameability","27","right","response","1"
"html-audio-button-response","135","1778450","0.0-104.0-1.0","CAN_128","128","","","","","","null","stimuli/bleep.m4a","null","brown","red","[""brown"",""red"",""high nameability""]","right-left","[""red"",""brown""]","3","high nameability","27","right","audio_feedback","1"
"html-button-response","136","1778969","0.0-105.0","CAN_128","128","","","","","","null","<button class=""jspsych-btn""><img src=""stimuli/white_square.png"" style=""width: 200px;height: 200px;""></button>","null","brown","red","[""brown"",""red"",""high nameability""]","right-left","[""red"",""brown""]","3","high nameability","27","right","iti",""
"html-button-response","137","1779410","0.0-106.0","CAN_128","128","","","","","","422","","0","neonyellow","darkgreenblue","[""neonyellow"",""darkgreenblue"",""low nameability""]","right-left","[""darkgreenblue"",""neonyellow""]","3","low nameability","28","right","trigger",""
"html-button-response","138","1780013","0.0-107.0-0.0","CAN_128","128","","","","","","595","<button class=""jspsych-btn""><img src=""stimuli/neonyellow.png"" style=""width: 200px;height: 200px;""></button>","1","neonyellow","darkgreenblue","[""neonyellow"",""darkgreenblue"",""low nameability""]","right-left","[""darkgreenblue"",""neonyellow""]","3","low nameability","28","right","response","1"
"html-audio-button-response","139","1780218","0.0-107.0-1.0","CAN_128","128","","","","","","null","stimuli/bleep.m4a","null","neonyellow","darkgreenblue","[""neonyellow"",""darkgreenblue"",""low nameability""]","right-left","[""darkgreenblue"",""neonyellow""]","3","low nameability","28","right","audio_feedback","1"
"html-button-response","140","1780742","0.0-108.0","CAN_128","128","","","","","","null","<button class=""jspsych-btn""><img src=""stimuli/white_square.png"" style=""width: 200px;height: 200px;""></button>","null","neonyellow","darkgreenblue","[""neonyellow"",""darkgreenblue"",""low nameability""]","right-left","[""darkgreenblue"",""neonyellow""]","3","low nameability","28","right","iti",""
"html-button-response","141","1781252","0.0-109.0","CAN_128","128","","","","","","494","","0","brown","purple","[""brown"",""purple"",""high nameability""]","right-left","[""purple"",""brown""]","3","high nameability","29","right","trigger",""
"html-button-response","142","1781820","0.0-110.0-0.0","CAN_128","128","","","","","","561","<button class=""jspsych-btn""><img src=""stimuli/brown.png"" style=""width: 200px;height: 200px;""></button>","1","brown","purple","[""brown"",""purple"",""high nameability""]","right-left","[""purple"",""brown""]","3","high nameability","29","right","response","1"
"html-audio-button-response","143","1782026","0.0-110.0-1.0","CAN_128","128","","","","","","null","stimuli/bleep.m4a","null","brown","purple","[""brown"",""purple"",""high nameability""]","right-left","[""purple"",""brown""]","3","high nameability","29","right","audio_feedback","1"
"html-button-response","144","1782548","0.0-111.0","CAN_128","128","","","","","","null","<button class=""jspsych-btn""><img src=""stimuli/white_square.png"" style=""width: 200px;height: 200px;""></button>","null","brown","purple","[""brown"",""purple"",""high nameability""]","right-left","[""purple"",""brown""]","3","high nameability","29","right","iti",""
"html-button-response","145","1782998","0.0-112.0","CAN_128","128","","","","","","427","","0","pink","turquoise","[""pink"",""turquoise"",""low nameability""]","right-left","[""turquoise"",""pink""]","3","low nameability","30","right","trigger",""
"html-button-response","146","1783676","0.0-113.0-0.0","CAN_128","128","","","","","","671","<button class=""jspsych-btn""><img src=""stimuli/pink.png"" style=""width: 200px;height: 200px;""></button>","1","pink","turquoise","[""pink"",""turquoise"",""low nameability""]","right-left","[""turquoise"",""pink""]","3","low nameability","30","right","response","1"
"html-audio-button-response","147","1783882","0.0-113.0-1.0","CAN_128","128","","","","","","null","stimuli/bleep.m4a","null","pink","turquoise","[""pink"",""turquoise"",""low nameability""]","right-left","[""turquoise"",""pink""]","3","low nameability","30","right","audio_feedback","1"
"html-button-response","148","1784406","0.0-114.0","CAN_128","128","","","","","","null","<button class=""jspsych-btn""><img src=""stimuli/white_square.png"" style=""width: 200px;height: 200px;""></button>","null","pink","turquoise","[""pink"",""turquoise"",""low nameability""]","right-left","[""turquoise"",""pink""]","3","low nameability","30","right","iti",""
"pavlovia","149","1784455","0.0-115.0","CAN_128","128","","","","","","","","","","","","","","","","","","",""
"pavlovia","150","1784462","0.0-116.0","CAN_128","128","","","","","","","","","","","","","","","","","","",""
"html-audio-button-response","151","1785460","0.0-117.0","CAN_128","128","","","","","","1056","stimuli/tada.m4a","0","","","","","","","","","","",""
"html-button-response","152","1786109","0.0-118.0","CAN_128","128","","","","","","642","","0","","","","","","","","","","",""
"html-button-response","153","1786642","0.0-119.0","CAN_128","128","","","","","","524","","0","darkgreenblue","lightred","[""darkgreenblue"",""lightred"",""low nameability""]","right-left","[""lightred"",""darkgreenblue""]","4","low nameability","31","right","trigger",""
"html-button-response","154","1787183","0.0-120.0-0.0","CAN_128","128","","","","","","533","<button class=""jspsych-btn""><img src=""stimuli/darkgreenblue.png"" style=""width: 200px;height: 200px;""></button>","1","darkgreenblue","lightred","[""darkgreenblue"",""lightred"",""low nameability""]","right-left","[""lightred"",""darkgreenblue""]","4","low nameability","31","right","response","1"
"html-audio-button-response","155","1787384","0.0-120.0-1.0","CAN_128","128","","","","","","null","stimuli/bleep.m4a","null","darkgreenblue","lightred","[""darkgreenblue"",""lightred"",""low nameability""]","right-left","[""lightred"",""darkgreenblue""]","4","low nameability","31","right","audio_feedback","1"
"html-button-response","156","1787903","0.0-121.0","CAN_128","128","","","","","","null","<button class=""jspsych-btn""><img src=""stimuli/white_square.png"" style=""width: 200px;height: 200px;""></button>","null","darkgreenblue","lightred","[""darkgreenblue"",""lightred"",""low nameability""]","right-left","[""lightred"",""darkgreenblue""]","4","low nameability","31","right","iti",""
"html-button-response","157","1788338","0.0-122.0","CAN_128","128","","","","","","419","","0","mustard","pink","[""mustard"",""pink"",""low nameability""]","left-right","[""mustard"",""pink"",""low nameability""]","4","low nameability","32","left","trigger",""
"html-button-response","158","1788942","0.0-123.0-0.0","CAN_128","128","","","","","","596","<button class=""jspsych-btn""><img src=""stimuli/mustard.png"" style=""width: 200px;height: 200px;""></button>","0","mustard","pink","[""mustard"",""pink"",""low nameability""]","left-right","[""mustard"",""pink"",""low nameability""]","4","low nameability","32","left","response","1"
"html-audio-button-response","159","1789146","0.0-123.0-1.0","CAN_128","128","","","","","","null","stimuli/bleep.m4a","null","mustard","pink","[""mustard"",""pink"",""low nameability""]","left-right","[""mustard"",""pink"",""low nameability""]","4","low nameability","32","left","audio_feedback","1"
"html-button-response","160","1789660","0.0-124.0","CAN_128","128","","","","","","null","<button class=""jspsych-btn""><img src=""stimuli/white_square.png"" style=""width: 200px;height: 200px;""></button>","null","mustard","pink","[""mustard"",""pink"",""low nameability""]","left-right","[""mustard"",""pink"",""low nameability""]","4","low nameability","32","left","iti",""
"html-button-response","161","1790176","0.0-125.0","CAN_128","128","","","","","","494","","0","purple","brown","[""purple"",""brown"",""high nameability""]","right-left","[""brown"",""purple""]","4","high nameability","33","right","trigger",""
"html-button-response","162","1790677","0.0-126.0-0.0","CAN_128","128","","","","","","493","<button class=""jspsych-btn""><img src=""stimuli/purple.png"" style=""width: 200px;height: 200px;""></button>","1","purple","brown","[""purple"",""brown"",""high nameability""]","right-left","[""brown"",""purple""]","4","high nameability","33","right","response","1"
"html-audio-button-response","163","1790877","0.0-126.0-1.0","CAN_128","128","","","","","","null","stimuli/bleep.m4a","null","purple","brown","[""purple"",""brown"",""high nameability""]","right-left","[""brown"",""purple""]","4","high nameability","33","right","audio_feedback","1"
"html-button-response","164","1791395","0.0-127.0","CAN_128","128","","","","","","null","<button class=""jspsych-btn""><img src=""stimuli/white_square.png"" style=""width: 200px;height: 200px;""></button>","null","purple","brown","[""purple"",""brown"",""high nameability""]","right-left","[""brown"",""purple""]","4","high nameability","33","right","iti",""
"html-button-response","165","1791843","0.0-128.0","CAN_128","128","","","","","","432","","0","neonyellow","mustard","[""neonyellow"",""mustard"",""low nameability""]","left-right","[""neonyellow"",""mustard"",""low nameability""]","4","low nameability","34","left","trigger",""
"html-button-response","166","1792382","0.0-129.0-0.0","CAN_128","128","","","","","","530","<button class=""jspsych-btn""><img src=""stimuli/neonyellow.png"" style=""width: 200px;height: 200px;""></button>","0","neonyellow","mustard","[""neonyellow"",""mustard"",""low nameability""]","left-right","[""neonyellow"",""mustard"",""low nameability""]","4","low nameability","34","left","response","1"
"html-audio-button-response","167","1792584","0.0-129.0-1.0","CAN_128","128","","","","","","null","stimuli/bleep.m4a","null","neonyellow","mustard","[""neonyellow"",""mustard"",""low nameability""]","left-right","[""neonyellow"",""mustard"",""low nameability""]","4","low nameability","34","left","audio_feedback","1"
"html-button-response","168","1793099","0.0-130.0","CAN_128","128","","","","","","null","<button class=""jspsych-btn""><img src=""stimuli/white_square.png"" style=""width: 200px;height: 200px;""></button>","null","neonyellow","mustard","[""neonyellow"",""mustard"",""low nameability""]","left-right","[""neonyellow"",""mustard"",""low nameability""]","4","low nameability","34","left","iti",""
"html-button-response","169","1793548","0.0-131.0","CAN_128","128","","","","","","432","","0","lightred","pink","[""lightred"",""pink"",""low nameability""]","left-right","[""lightred"",""pink"",""low nameability""]","4","low nameability","35","left","trigger",""
"html-button-response","170","1794142","0.0-132.0-0.0","CAN_128","128","","","","","","588","<button class=""jspsych-btn""><img src=""stimuli/lightred.png"" style=""width: 200px;height: 200px;""></button>","0","lightred","pink","[""lightred"",""pink"",""low nameability""]","left-right","[""lightred"",""pink"",""low nameability""]","4","low nameability","35","left","response","1"
"html-audio-button-response","171","1794345","0.0-132.0-1.0","CAN_128","128","","","","","","null","stimuli/bleep.m4a","null","lightred","pink","[""lightred"",""pink"",""low nameability""]","left-right","[""lightred"",""pink"",""low nameability""]","4","low nameability","35","left","audio_feedback","1"
"html-button-response","172","1794872","0.0-133.0","CAN_128","128","","","","","","null","<button class=""jspsych-btn""><img src=""stimuli/white_square.png"" style=""width: 200px;height: 200px;""></button>","null","lightred","pink","[""lightred"",""pink"",""low nameability""]","left-right","[""lightred"",""pink"",""low nameability""]","4","low nameability","35","left","iti",""
"html-button-response","173","1795357","0.0-134.0","CAN_128","128","","","","","","466","","0","pink","darkgreenblue","[""pink"",""darkgreenblue"",""low nameability""]","left-right","[""pink"",""darkgreenblue"",""low nameability""]","4","low nameability","36","left","trigger",""
"html-button-response","174","1795947","0.0-135.0-0.0","CAN_128","128","","","","","","582","<button class=""jspsych-btn""><img src=""stimuli/pink.png"" style=""width: 200px;height: 200px;""></button>","0","pink","darkgreenblue","[""pink"",""darkgreenblue"",""low nameability""]","left-right","[""pink"",""darkgreenblue"",""low nameability""]","4","low nameability","36","left","response","1"
"html-audio-button-response","175","1796154","0.0-135.0-1.0","CAN_128","128","","","","","","null","stimuli/bleep.m4a","null","pink","darkgreenblue","[""pink"",""darkgreenblue"",""low nameability""]","left-right","[""pink"",""darkgreenblue"",""low nameability""]","4","low nameability","36","left","audio_feedback","1"
"html-button-response","176","1796668","0.0-136.0","CAN_128","128","","","","","","null","<button class=""jspsych-btn""><img src=""stimuli/white_square.png"" style=""width: 200px;height: 200px;""></button>","null","pink","darkgreenblue","[""pink"",""darkgreenblue"",""low nameability""]","left-right","[""pink"",""darkgreenblue"",""low nameability""]","4","low nameability","36","left","iti",""
"html-button-response","177","1797195","0.0-137.0","CAN_128","128","","","","","","487","","0","purple","blue","[""purple"",""blue"",""high nameability""]","right-left","[""blue"",""purple""]","4","high nameability","37","right","trigger",""
"html-button-response","178","1797689","0.0-138.0-0.0","CAN_128","128","","","","","","483","<button class=""jspsych-btn""><img src=""stimuli/purple.png"" style=""width: 200px;height: 200px;""></button>","1","purple","blue","[""purple"",""blue"",""high nameability""]","right-left","[""blue"",""purple""]","4","high nameability","37","right","response","1"
"html-audio-button-response","179","1797898","0.0-138.0-1.0","CAN_128","128","","","","","","null","stimuli/bleep.m4a","null","purple","blue","[""purple"",""blue"",""high nameability""]","right-left","[""blue"",""purple""]","4","high nameability","37","right","audio_feedback","1"
"html-button-response","180","1798420","0.0-139.0","CAN_128","128","","","","","","null","<button class=""jspsych-btn""><img src=""stimuli/white_square.png"" style=""width: 200px;height: 200px;""></button>","null","purple","blue","[""purple"",""blue"",""high nameability""]","right-left","[""blue"",""purple""]","4","high nameability","37","right","iti",""
"html-button-response","181","1798983","0.0-140.0","CAN_128","128","","","","","","543","","0","blue","yellow","[""blue"",""yellow"",""high nameability""]","left-right","[""blue"",""yellow"",""high nameability""]","4","high nameability","38","left","trigger",""
"html-button-response","182","1799520","0.0-141.0-0.0","CAN_128","128","","","","","","522","<button class=""jspsych-btn""><img src=""stimuli/blue.png"" style=""width: 200px;height: 200px;""></button>","0","blue","yellow","[""blue"",""yellow"",""high nameability""]","left-right","[""blue"",""yellow"",""high nameability""]","4","high nameability","38","left","response","1"
"html-audio-button-response","183","1799734","0.0-141.0-1.0","CAN_128","128","","","","","","null","stimuli/bleep.m4a","null","blue","yellow","[""blue"",""yellow"",""high nameability""]","left-right","[""blue"",""yellow"",""high nameability""]","4","high nameability","38","left","audio_feedback","1"
"html-button-response","184","1800253","0.0-142.0","CAN_128","128","","","","","","null","<button class=""jspsych-btn""><img src=""stimuli/white_square.png"" style=""width: 200px;height: 200px;""></button>","null","blue","yellow","[""blue"",""yellow"",""high nameability""]","left-right","[""blue"",""yellow"",""high nameability""]","4","high nameability","38","left","iti",""
"html-button-response","185","1801144","0.0-143.0","CAN_128","128","","","","","","870","","0","mustard","neonyellow","[""mustard"",""neonyellow"",""low nameability""]","left-right","[""mustard"",""neonyellow"",""low nameability""]","4","low nameability","39","left","trigger",""
"html-button-response","186","1801678","0.0-144.0-0.0","CAN_128","128","","","","","","525","<button class=""jspsych-btn""><img src=""stimuli/mustard.png"" style=""width: 200px;height: 200px;""></button>","1","mustard","neonyellow","[""mustard"",""neonyellow"",""low nameability""]","left-right","[""mustard"",""neonyellow"",""low nameability""]","4","low nameability","39","left","response","0"
"html-audio-button-response","187","1802310","0.0-144.0-1.0","CAN_128","128","","","","","","null","stimuli/boing.m4a","null","mustard","neonyellow","[""mustard"",""neonyellow"",""low nameability""]","left-right","[""mustard"",""neonyellow"",""low nameability""]","4","low nameability","39","left","audio_feedback","0"
"html-button-response","188","1803640","0.0-144.1-0.1","CAN_128","128","","","","","","1303","<button class=""jspsych-btn""><img src=""stimuli/mustard.png"" style=""width: 200px;height: 200px;""></button>","0","mustard","neonyellow","[""mustard"",""neonyellow"",""low nameability""]","left-right","[""mustard"",""neonyellow"",""low nameability""]","4","low nameability","39","left","response","1"
"html-audio-button-response","189","1803846","0.0-144.1-1.1","CAN_128","128","","","","","","null","stimuli/bleep.m4a","null","mustard","neonyellow","[""mustard"",""neonyellow"",""low nameability""]","left-right","[""mustard"",""neonyellow"",""low nameability""]","4","low nameability","39","left","audio_feedback","1"
"html-button-response","190","1804369","0.0-145.0","CAN_128","128","","","","","","null","<button class=""jspsych-btn""><img src=""stimuli/white_square.png"" style=""width: 200px;height: 200px;""></button>","null","mustard","neonyellow","[""mustard"",""neonyellow"",""low nameability""]","left-right","[""mustard"",""neonyellow"",""low nameability""]","4","low nameability","39","left","iti",""
"html-button-response","191","1804914","0.0-146.0","CAN_128","128","","","","","","531","","0","orange","red","[""orange"",""red"",""high nameability""]","right-left","[""red"",""orange""]","4","high nameability","40","right","trigger",""
"html-button-response","192","1805602","0.0-147.0-0.0","CAN_128","128","","","","","","681","<button class=""jspsych-btn""><img src=""stimuli/orange.png"" style=""width: 200px;height: 200px;""></button>","1","orange","red","[""orange"",""red"",""high nameability""]","right-left","[""red"",""orange""]","4","high nameability","40","right","response","1"
"html-audio-button-response","193","1805805","0.0-147.0-1.0","CAN_128","128","","","","","","null","stimuli/bleep.m4a","null","orange","red","[""orange"",""red"",""high nameability""]","right-left","[""red"",""orange""]","4","high nameability","40","right","audio_feedback","1"
"html-button-response","194","1806327","0.0-148.0","CAN_128","128","","","","","","null","<button class=""jspsych-btn""><img src=""stimuli/white_square.png"" style=""width: 200px;height: 200px;""></button>","null","orange","red","[""orange"",""red"",""high nameability""]","right-left","[""red"",""orange""]","4","high nameability","40","right","iti",""
"pavlovia","195","1806399","0.0-149.0","CAN_128","128","","","","","","","","","","","","","","","","","","",""
"pavlovia","196","1806432","0.0-150.0","CAN_128","128","","","","","","","","","","","","","","","","","","",""
"html-audio-button-response","197","1807295","0.0-151.0","CAN_128","128","","","","","","968","stimuli/tada.m4a","0","","","","","","","","","","",""
"html-button-response","198","1807894","0.0-152.0","CAN_128","128","","","","","","591","","0","","","","","","","","","","",""
"html-button-response","199","1808377","0.0-153.0","CAN_128","128","","","","","","477","","0","turquoise","darkgreenblue","[""turquoise"",""darkgreenblue"",""low nameability""]","left-right","[""turquoise"",""darkgreenblue"",""low nameability""]","5","low nameability","41","left","trigger",""
"html-button-response","200","1808947","0.0-154.0-0.0","CAN_128","128","","","","","","563","<button class=""jspsych-btn""><img src=""stimuli/turquoise.png"" style=""width: 200px;height: 200px;""></button>","0","turquoise","darkgreenblue","[""turquoise"",""darkgreenblue"",""low nameability""]","left-right","[""turquoise"",""darkgreenblue"",""low nameability""]","5","low nameability","41","left","response","1"
"html-audio-button-response","201","1809153","0.0-154.0-1.0","CAN_128","128","","","","","","null","stimuli/bleep.m4a","null","turquoise","darkgreenblue","[""turquoise"",""darkgreenblue"",""low nameability""]","left-right","[""turquoise"",""darkgreenblue"",""low nameability""]","5","low nameability","41","left","audio_feedback","1"
"html-button-response","202","1809676","0.0-155.0","CAN_128","128","","","","","","null","<button class=""jspsych-btn""><img src=""stimuli/white_square.png"" style=""width: 200px;height: 200px;""></button>","null","turquoise","darkgreenblue","[""turquoise"",""darkgreenblue"",""low nameability""]","left-right","[""turquoise"",""darkgreenblue"",""low nameability""]","5","low nameability","41","left","iti",""
"html-button-response","203","1810192","0.0-156.0","CAN_128","128","","","","","","498","","0","yellow","red","[""yellow"",""red"",""high nameability""]","left-right","[""yellow"",""red"",""high nameability""]","5","high nameability","42","left","trigger",""
"html-button-response","204","1810769","0.0-157.0-0.0","CAN_128","128","","","","","","567","<button class=""jspsych-btn""><img src=""stimuli/yellow.png"" style=""width: 200px;height: 200px;""></button>","0","yellow","red","[""yellow"",""red"",""high nameability""]","left-right","[""yellow"",""red"",""high nameability""]","5","high nameability","42","left","response","1"
"html-audio-button-response","205","1810981","0.0-157.0-1.0","CAN_128","128","","","","","","null","stimuli/bleep.m4a","null","yellow","red","[""yellow"",""red"",""high nameability""]","left-right","[""yellow"",""red"",""high nameability""]","5","high nameability","42","left","audio_feedback","1"
"html-button-response","206","1811513","0.0-158.0","CAN_128","128","","","","","","null","<button class=""jspsych-btn""><img src=""stimuli/white_square.png"" style=""width: 200px;height: 200px;""></button>","null","yellow","red","[""yellow"",""red"",""high nameability""]","left-right","[""yellow"",""red"",""high nameability""]","5","high nameability","42","left","iti",""
"html-button-response","207","1811997","0.0-159.0","CAN_128","128","","","","","","451","","0","orange","brown","[""orange"",""brown"",""high nameability""]","right-left","[""brown"",""orange""]","5","high nameability","43","right","trigger",""
"html-button-response","208","1812670","0.0-160.0-0.0","CAN_128","128","","","","","","663","<button class=""jspsych-btn""><img src=""stimuli/orange.png"" style=""width: 200px;height: 200px;""></button>","1","orange","brown","[""orange"",""brown"",""high nameability""]","right-left","[""brown"",""orange""]","5","high nameability","43","right","response","1"
"html-audio-button-response","209","1812879","0.0-160.0-1.0","CAN_128","128","","","","","","null","stimuli/bleep.m4a","null","orange","brown","[""orange"",""brown"",""high nameability""]","right-left","[""brown"",""orange""]","5","high nameability","43","right","audio_feedback","1"
"html-button-response","210","1813404","0.0-161.0","CAN_128","128","","","","","","null","<button class=""jspsych-btn""><img src=""stimuli/white_square.png"" style=""width: 200px;height: 200px;""></button>","null","orange","brown","[""orange"",""brown"",""high nameability""]","right-left","[""brown"",""orange""]","5","high nameability","43","right","iti",""
"html-button-response","211","1813877","0.0-162.0","CAN_128","128","","","","","","455","","0","lightred","mustard","[""lightred"",""mustard"",""low nameability""]","left-right","[""lightred"",""mustard"",""low nameability""]","5","low nameability","44","left","trigger",""
"html-button-response","212","1814493","0.0-163.0-0.0","CAN_128","128","","","","","","609","<button class=""jspsych-btn""><img src=""stimuli/lightred.png"" style=""width: 200px;height: 200px;""></button>","0","lightred","mustard","[""lightred"",""mustard"",""low nameability""]","left-right","[""lightred"",""mustard"",""low nameability""]","5","low nameability","44","left","response","1"
"html-audio-button-response","213","1814697","0.0-163.0-1.0","CAN_128","128","","","","","","null","stimuli/bleep.m4a","null","lightred","mustard","[""lightred"",""mustard"",""low nameability""]","left-right","[""lightred"",""mustard"",""low nameability""]","5","low nameability","44","left","audio_feedback","1"
"html-button-response","214","1815238","0.0-164.0","CAN_128","128","","","","","","null","<button class=""jspsych-btn""><img src=""stimuli/white_square.png"" style=""width: 200px;height: 200px;""></button>","null","lightred","mustard","[""lightred"",""mustard"",""low nameability""]","left-right","[""lightred"",""mustard"",""low nameability""]","5","low nameability","44","left","iti",""
"html-button-response","215","1815423","0.0-165.0","CAN_128","128","","","","","","152","","0","neonyellow","turquoise","[""neonyellow"",""turquoise"",""low nameability""]","left-right","[""neonyellow"",""turquoise"",""low nameability""]","5","low nameability","45","left","trigger",""
"html-button-response","216","1816099","0.0-166.0-0.0","CAN_128","128","","","","","","668","<button class=""jspsych-btn""><img src=""stimuli/neonyellow.png"" style=""width: 200px;height: 200px;""></button>","0","neonyellow","turquoise","[""neonyellow"",""turquoise"",""low nameability""]","left-right","[""neonyellow"",""turquoise"",""low nameability""]","5","low nameability","45","left","response","1"
"html-audio-button-response","217","1816310","0.0-166.0-1.0","CAN_128","128","","","","","","null","stimuli/bleep.m4a","null","neonyellow","turquoise","[""neonyellow"",""turquoise"",""low nameability""]","left-right","[""neonyellow"",""turquoise"",""low nameability""]","5","low nameability","45","left","audio_feedback","1"
"html-button-response","218","1816835","0.0-167.0","CAN_128","128","","","","","","null","<button class=""jspsych-btn""><img src=""stimuli/white_square.png"" style=""width: 200px;height: 200px;""></button>","null","neonyellow","turquoise","[""neonyellow"",""turquoise"",""low nameability""]","left-right","[""neonyellow"",""turquoise"",""low nameability""]","5","low nameability","45","left","iti",""
"html-button-response","219","1817274","0.0-168.0","CAN_128","128","","","","","","416","","0","orange","yellow","[""orange"",""yellow"",""high nameability""]","right-left","[""yellow"",""orange""]","5","high nameability","46","right","trigger",""
"html-button-response","220","1818009","0.0-169.0-0.0","CAN_128","128","","","","","","723","<button class=""jspsych-btn""><img src=""stimuli/orange.png"" style=""width: 200px;height: 200px;""></button>","1","orange","yellow","[""orange"",""yellow"",""high nameability""]","right-left","[""yellow"",""orange""]","5","high nameability","46","right","response","1"
"html-audio-button-response","221","1818210","0.0-169.0-1.0","CAN_128","128","","","","","","null","stimuli/bleep.m4a","null","orange","yellow","[""orange"",""yellow"",""high nameability""]","right-left","[""yellow"",""orange""]","5","high nameability","46","right","audio_feedback","1"
"html-button-response","222","1818737","0.0-170.0","CAN_128","128","","","","","","null","<button class=""jspsych-btn""><img src=""stimuli/white_square.png"" style=""width: 200px;height: 200px;""></button>","null","orange","yellow","[""orange"",""yellow"",""high nameability""]","right-left","[""yellow"",""orange""]","5","high nameability","46","right","iti",""
"html-button-response","223","1819048","0.0-171.0","CAN_128","128","","","","","","294","","0","brown","yellow","[""brown"",""yellow"",""high nameability""]","left-right","[""brown"",""yellow"",""high nameability""]","5","high nameability","47","left","trigger",""
"html-button-response","224","1819638","0.0-172.0-0.0","CAN_128","128","","","","","","581","<button class=""jspsych-btn""><img src=""stimuli/brown.png"" style=""width: 200px;height: 200px;""></button>","0","brown","yellow","[""brown"",""yellow"",""high nameability""]","left-right","[""brown"",""yellow"",""high nameability""]","5","high nameability","47","left","response","1"
"html-audio-button-response","225","1819842","0.0-172.0-1.0","CAN_128","128","","","","","","null","stimuli/bleep.m4a","null","brown","yellow","[""brown"",""yellow"",""high nameability""]","left-right","[""brown"",""yellow"",""high nameability""]","5","high nameability","47","left","audio_feedback","1"
"html-button-response","226","1820362","0.0-173.0","CAN_128","128","","","","","","null","<button class=""jspsych-btn""><img src=""stimuli/white_square.png"" style=""width: 200px;height: 200px;""></button>","null","brown","yellow","[""brown"",""yellow"",""high nameability""]","left-right","[""brown"",""yellow"",""high nameability""]","5","high nameability","47","left","iti",""
"html-button-response","227","1820480","0.0-174.0","CAN_128","128","","","","","","89","","0","neonyellow","lightred","[""neonyellow"",""lightred"",""low nameability""]","left-right","[""neonyellow"",""lightred"",""low nameability""]","5","low nameability","48","left","trigger",""
"html-button-response","228","1821133","0.0-175.0-0.0","CAN_128","128","","","","","","646","<button class=""jspsych-btn""><img src=""stimuli/neonyellow.png"" style=""width: 200px;height: 200px;""></button>","0","neonyellow","lightred","[""neonyellow"",""lightred"",""low nameability""]","left-right","[""neonyellow"",""lightred"",""low nameability""]","5","low nameability","48","left","response","1"
"html-audio-button-response","229","1821338","0.0-175.0-1.0","CAN_128","128","","","","","","null","stimuli/bleep.m4a","null","neonyellow","lightred","[""neonyellow"",""lightred"",""low nameability""]","left-right","[""neonyellow"",""lightred"",""low nameability""]","5","low nameability","48","left","audio_feedback","1"
"html-button-response","230","1821863","0.0-176.0","CAN_128","128","","","","","","null","<button class=""jspsych-btn""><img src=""stimuli/white_square.png"" style=""width: 200px;height: 200px;""></button>","null","neonyellow","lightred","[""neonyellow"",""lightred"",""low nameability""]","left-right","[""neonyellow"",""lightred"",""low nameability""]","5","low nameability","48","left","iti",""
"html-button-response","231","1822336","0.0-177.0","CAN_128","128","","","","","","456","","0","mustard","turquoise","[""mustard"",""turquoise"",""low nameability""]","right-left","[""turquoise"",""mustard""]","5","low nameability","49","right","trigger",""
"html-button-response","232","1822905","0.0-178.0-0.0","CAN_128","128","","","","","","558","<button class=""jspsych-btn""><img src=""stimuli/mustard.png"" style=""width: 200px;height: 200px;""></button>","1","mustard","turquoise","[""mustard"",""turquoise"",""low nameability""]","right-left","[""turquoise"",""mustard""]","5","low nameability","49","right","response","1"
"html-audio-button-response","233","1823113","0.0-178.0-1.0","CAN_128","128","","","","","","null","stimuli/bleep.m4a","null","mustard","turquoise","[""mustard"",""turquoise"",""low nameability""]","right-left","[""turquoise"",""mustard""]","5","low nameability","49","right","audio_feedback","1"
"html-button-response","234","1823634","0.0-179.0","CAN_128","128","","","","","","null","<button class=""jspsych-btn""><img src=""stimuli/white_square.png"" style=""width: 200px;height: 200px;""></button>","null","mustard","turquoise","[""mustard"",""turquoise"",""low nameability""]","right-left","[""turquoise"",""mustard""]","5","low nameability","49","right","iti",""
"html-button-response","235","1824135","0.0-180.0","CAN_128","128","","","","","","481","","0","red","purple","[""red"",""purple"",""high nameability""]","right-left","[""purple"",""red""]","5","high nameability","50","right","trigger",""
"html-button-response","236","1825601","0.0-181.0-0.0","CAN_128","128","","","","","","1458","<button class=""jspsych-btn""><img src=""stimuli/red.png"" style=""width: 200px;height: 200px;""></button>","1","red","purple","[""red"",""purple"",""high nameability""]","right-left","[""purple"",""red""]","5","high nameability","50","right","response","1"
"html-audio-button-response","237","1825806","0.0-181.0-1.0","CAN_128","128","","","","","","null","stimuli/bleep.m4a","null","red","purple","[""red"",""purple"",""high nameability""]","right-left","[""purple"",""red""]","5","high nameability","50","right","audio_feedback","1"
"html-button-response","238","1826323","0.0-182.0","CAN_128","128","","","","","","null","<button class=""jspsych-btn""><img src=""stimuli/white_square.png"" style=""width: 200px;height: 200px;""></button>","null","red","purple","[""red"",""purple"",""high nameability""]","right-left","[""purple"",""red""]","5","high nameability","50","right","iti",""
"pavlovia","239","1826411","0.0-183.0","CAN_128","128","","","","","","","","","","","","","","","","","","",""
"pavlovia","240","1826422","0.0-184.0","CAN_128","128","","","","","","","","","","","","","","","","","","",""
"html-audio-button-response","241","1827571","0.0-185.0","CAN_128","128","","","","","","1248","stimuli/tada.m4a","0","","","","","","","","","","",""
"html-button-response","242","1828679","0.0-186.0","CAN_128","128","","","","","","1103","","0","","","","","","","","","","",""
"html-button-response","243","1829200","0.0-187.0","CAN_128","128","","","","","","514","","0","turquoise","lightred","[""turquoise"",""lightred"",""low nameability""]","left-right","[""turquoise"",""lightred"",""low nameability""]","6","low nameability","51","left","trigger",""
"html-button-response","244","1829844","0.0-188.0-0.0","CAN_128","128","","","","","","635","<button class=""jspsych-btn""><img src=""stimuli/turquoise.png"" style=""width: 200px;height: 200px;""></button>","0","turquoise","lightred","[""turquoise"",""lightred"",""low nameability""]","left-right","[""turquoise"",""lightred"",""low nameability""]","6","low nameability","51","left","response","1"
"html-audio-button-response","245","1830051","0.0-188.0-1.0","CAN_128","128","","","","","","null","stimuli/bleep.m4a","null","turquoise","lightred","[""turquoise"",""lightred"",""low nameability""]","left-right","[""turquoise"",""lightred"",""low nameability""]","6","low nameability","51","left","audio_feedback","1"
"html-button-response","246","1830566","0.0-189.0","CAN_128","128","","","","","","null","<button class=""jspsych-btn""><img src=""stimuli/white_square.png"" style=""width: 200px;height: 200px;""></button>","null","turquoise","lightred","[""turquoise"",""lightred"",""low nameability""]","left-right","[""turquoise"",""lightred"",""low nameability""]","6","low nameability","51","left","iti",""
"html-button-response","247","1831246","0.0-190.0","CAN_128","128","","","","","","656","","0","lightred","turquoise","[""lightred"",""turquoise"",""low nameability""]","left-right","[""lightred"",""turquoise"",""low nameability""]","6","low nameability","52","left","trigger",""
"html-button-response","248","1831831","0.0-191.0-0.0","CAN_128","128","","","","","","577","<button class=""jspsych-btn""><img src=""stimuli/lightred.png"" style=""width: 200px;height: 200px;""></button>","0","lightred","turquoise","[""lightred"",""turquoise"",""low nameability""]","left-right","[""lightred"",""turquoise"",""low nameability""]","6","low nameability","52","left","response","1"
"html-audio-button-response","249","1832037","0.0-191.0-1.0","CAN_128","128","","","","","","null","stimuli/bleep.m4a","null","lightred","turquoise","[""lightred"",""turquoise"",""low nameability""]","left-right","[""lightred"",""turquoise"",""low nameability""]","6","low nameability","52","left","audio_feedback","1"
"html-button-response","250","1832564","0.0-192.0","CAN_128","128","","","","","","null","<button class=""jspsych-btn""><img src=""stimuli/white_square.png"" style=""width: 200px;height: 200px;""></button>","null","lightred","turquoise","[""lightred"",""turquoise"",""low nameability""]","left-right","[""lightred"",""turquoise"",""low nameability""]","6","low nameability","52","left","iti",""
"html-button-response","251","1833124","0.0-193.0","CAN_128","128","","","","","","540","","0","blue","brown","[""blue"",""brown"",""high nameability""]","left-right","[""blue"",""brown"",""high nameability""]","6","high nameability","53","left","trigger",""
"html-button-response","252","1833609","0.0-194.0-0.0","CAN_128","128","","","","","","480","<button class=""jspsych-btn""><img src=""stimuli/blue.png"" style=""width: 200px;height: 200px;""></button>","0","blue","brown","[""blue"",""brown"",""high nameability""]","left-right","[""blue"",""brown"",""high nameability""]","6","high nameability","53","left","response","1"
"html-audio-button-response","253","1833812","0.0-194.0-1.0","CAN_128","128","","","","","","null","stimuli/bleep.m4a","null","blue","brown","[""blue"",""brown"",""high nameability""]","left-right","[""blue"",""brown"",""high nameability""]","6","high nameability","53","left","audio_feedback","1"
"html-button-response","254","1834328","0.0-195.0","CAN_128","128","","","","","","null","<button class=""jspsych-btn""><img src=""stimuli/white_square.png"" style=""width: 200px;height: 200px;""></button>","null","blue","brown","[""blue"",""brown"",""high nameability""]","left-right","[""blue"",""brown"",""high nameability""]","6","high nameability","53","left","iti",""
"html-button-response","255","1834774","0.0-196.0","CAN_128","128","","","","","","429","","0","darkgreenblue","turquoise","[""darkgreenblue"",""turquoise"",""low nameability""]","left-right","[""darkgreenblue"",""turquoise"",""low nameability""]","6","low nameability","54","left","trigger",""
"html-button-response","256","1835439","0.0-197.0-0.0","CAN_128","128","","","","","","659","<button class=""jspsych-btn""><img src=""stimuli/darkgreenblue.png"" style=""width: 200px;height: 200px;""></button>","0","darkgreenblue","turquoise","[""darkgreenblue"",""turquoise"",""low nameability""]","left-right","[""darkgreenblue"",""turquoise"",""low nameability""]","6","low nameability","54","left","response","1"
"html-audio-button-response","257","1835643","0.0-197.0-1.0","CAN_128","128","","","","","","null","stimuli/bleep.m4a","null","darkgreenblue","turquoise","[""darkgreenblue"",""turquoise"",""low nameability""]","left-right","[""darkgreenblue"",""turquoise"",""low nameability""]","6","low nameability","54","left","audio_feedback","1"
"html-button-response","258","1836163","0.0-198.0","CAN_128","128","","","","","","null","<button class=""jspsych-btn""><img src=""stimuli/white_square.png"" style=""width: 200px;height: 200px;""></button>","null","darkgreenblue","turquoise","[""darkgreenblue"",""turquoise"",""low nameability""]","left-right","[""darkgreenblue"",""turquoise"",""low nameability""]","6","low nameability","54","left","iti",""
"html-button-response","259","1836652","0.0-199.0","CAN_128","128","","","","","","468","","0","purple","yellow","[""purple"",""yellow"",""high nameability""]","right-left","[""yellow"",""purple""]","6","high nameability","55","right","trigger",""
"html-button-response","260","1837360","0.0-200.0-0.0","CAN_128","128","","","","","","702","<button class=""jspsych-btn""><img src=""stimuli/purple.png"" style=""width: 200px;height: 200px;""></button>","1","purple","yellow","[""purple"",""yellow"",""high nameability""]","right-left","[""yellow"",""purple""]","6","high nameability","55","right","response","1"
"html-audio-button-response","261","1837566","0.0-200.0-1.0","CAN_128","128","","","","","","null","stimuli/bleep.m4a","null","purple","yellow","[""purple"",""yellow"",""high nameability""]","right-left","[""yellow"",""purple""]","6","high nameability","55","right","audio_feedback","1"
"html-button-response","262","1838084","0.0-201.0","CAN_128","128","","","","","","null","<button class=""jspsych-btn""><img src=""stimuli/white_square.png"" style=""width: 200px;height: 200px;""></button>","null","purple","yellow","[""purple"",""yellow"",""high nameability""]","right-left","[""yellow"",""purple""]","6","high nameability","55","right","iti",""
"html-button-response","263","1838575","0.0-202.0","CAN_128","128","","","","","","473","","0","darkgreenblue","pink","[""darkgreenblue"",""pink"",""low nameability""]","left-right","[""darkgreenblue"",""pink"",""low nameability""]","6","low nameability","56","left","trigger",""
"html-button-response","264","1839082","0.0-203.0-0.0","CAN_128","128","","","","","","500","<button class=""jspsych-btn""><img src=""stimuli/darkgreenblue.png"" style=""width: 200px;height: 200px;""></button>","0","darkgreenblue","pink","[""darkgreenblue"",""pink"",""low nameability""]","left-right","[""darkgreenblue"",""pink"",""low nameability""]","6","low nameability","56","left","response","1"
"html-audio-button-response","265","1839285","0.0-203.0-1.0","CAN_128","128","","","","","","null","stimuli/bleep.m4a","null","darkgreenblue","pink","[""darkgreenblue"",""pink"",""low nameability""]","left-right","[""darkgreenblue"",""pink"",""low nameability""]","6","low nameability","56","left","audio_feedback","1"
"html-button-response","266","1839804","0.0-204.0","CAN_128","128","","","","","","null","<button class=""jspsych-btn""><img src=""stimuli/white_square.png"" style=""width: 200px;height: 200px;""></button>","null","darkgreenblue","pink","[""darkgreenblue"",""pink"",""low nameability""]","left-right","[""darkgreenblue"",""pink"",""low nameability""]","6","low nameability","56","left","iti",""
"html-button-response","267","1840267","0.0-205.0","CAN_128","128","","","","","","446","","0","red","orange","[""red"",""orange"",""high nameability""]","right-left","[""orange"",""red""]","6","high nameability","57","right","trigger",""
"html-button-response","268","1841015","0.0-206.0-0.0","CAN_128","128","","","","","","743","<button class=""jspsych-btn""><img src=""stimuli/red.png"" style=""width: 200px;height: 200px;""></button>","1","red","orange","[""red"",""orange"",""high nameability""]","right-left","[""orange"",""red""]","6","high nameability","57","right","response","1"
"html-audio-button-response","269","1841219","0.0-206.0-1.0","CAN_128","128","","","","","","null","stimuli/bleep.m4a","null","red","orange","[""red"",""orange"",""high nameability""]","right-left","[""orange"",""red""]","6","high nameability","57","right","audio_feedback","1"
"html-button-response","270","1841740","0.0-207.0","CAN_128","128","","","","","","null","<button class=""jspsych-btn""><img src=""stimuli/white_square.png"" style=""width: 200px;height: 200px;""></button>","null","red","orange","[""red"",""orange"",""high nameability""]","right-left","[""orange"",""red""]","6","high nameability","57","right","iti",""
"html-button-response","271","1842255","0.0-208.0","CAN_128","128","","","","","","496","","0","pink","neonyellow","[""pink"",""neonyellow"",""low nameability""]","right-left","[""neonyellow"",""pink""]","6","low nameability","58","right","trigger",""
"html-button-response","272","1842823","0.0-209.0-0.0","CAN_128","128","","","","","","560","<button class=""jspsych-btn""><img src=""stimuli/pink.png"" style=""width: 200px;height: 200px;""></button>","1","pink","neonyellow","[""pink"",""neonyellow"",""low nameability""]","right-left","[""neonyellow"",""pink""]","6","low nameability","58","right","response","1"
"html-audio-button-response","273","1843025","0.0-209.0-1.0","CAN_128","128","","","","","","null","stimuli/bleep.m4a","null","pink","neonyellow","[""pink"",""neonyellow"",""low nameability""]","right-left","[""neonyellow"",""pink""]","6","low nameability","58","right","audio_feedback","1"
"html-button-response","274","1843542","0.0-210.0","CAN_128","128","","","","","","null","<button class=""jspsych-btn""><img src=""stimuli/white_square.png"" style=""width: 200px;height: 200px;""></button>","null","pink","neonyellow","[""pink"",""neonyellow"",""low nameability""]","right-left","[""neonyellow"",""pink""]","6","low nameability","58","right","iti",""
"html-button-response","275","1844155","0.0-211.0","CAN_128","128","","","","","","594","","0","orange","purple","[""orange"",""purple"",""high nameability""]","right-left","[""purple"",""orange""]","6","high nameability","59","right","trigger",""
"html-button-response","276","1844773","0.0-212.0-0.0","CAN_128","128","","","","","","609","<button class=""jspsych-btn""><img src=""stimuli/orange.png"" style=""width: 200px;height: 200px;""></button>","1","orange","purple","[""orange"",""purple"",""high nameability""]","right-left","[""purple"",""orange""]","6","high nameability","59","right","response","1"
"html-audio-button-response","277","1844977","0.0-212.0-1.0","CAN_128","128","","","","","","null","stimuli/bleep.m4a","null","orange","purple","[""orange"",""purple"",""high nameability""]","right-left","[""purple"",""orange""]","6","high nameability","59","right","audio_feedback","1"
"html-button-response","278","1845496","0.0-213.0","CAN_128","128","","","","","","null","<button class=""jspsych-btn""><img src=""stimuli/white_square.png"" style=""width: 200px;height: 200px;""></button>","null","orange","purple","[""orange"",""purple"",""high nameability""]","right-left","[""purple"",""orange""]","6","high nameability","59","right","iti",""
"html-button-response","279","1845757","0.0-214.0","CAN_128","128","","","","","","245","","0","purple","red","[""purple"",""red"",""high nameability""]","left-right","[""purple"",""red"",""high nameability""]","6","high nameability","60","left","trigger",""
"html-button-response","280","1846359","0.0-215.0-0.0","CAN_128","128","","","","","","595","<button class=""jspsych-btn""><img src=""stimuli/purple.png"" style=""width: 200px;height: 200px;""></button>","0","purple","red","[""purple"",""red"",""high nameability""]","left-right","[""purple"",""red"",""high nameability""]","6","high nameability","60","left","response","1"
"html-audio-button-response","281","1846564","0.0-215.0-1.0","CAN_128","128","","","","","","null","stimuli/bleep.m4a","null","purple","red","[""purple"",""red"",""high nameability""]","left-right","[""purple"",""red"",""high nameability""]","6","high nameability","60","left","audio_feedback","1"
"html-button-response","282","1847094","0.0-216.0","CAN_128","128","","","","","","null","<button class=""jspsych-btn""><img src=""stimuli/white_square.png"" style=""width: 200px;height: 200px;""></button>","null","purple","red","[""purple"",""red"",""high nameability""]","left-right","[""purple"",""red"",""high nameability""]","6","high nameability","60","left","iti",""
