"trial_type","trial_index","time_elapsed","internal_node_id","subject_id","seed","success","timeout","failed_images","failed_audio","failed_video","rt","stimulus","response","target","foil","choices","combination_order","choices_in_order","round","condition","trial_counter","target_location","trial_kind","correct"
"pavlovia","0","20","0.0-0.0","CAN_113","113","","","","","","","","","","","","","","","","","","",""
"preload","1","838","0.0-1.0","CAN_113","113","true","false","[]","[]","[]","","","","","","","","","","","","","",""
"fullscreen","2","5018","0.0-2.0","CAN_113","113","true","","","","","","","","","","","","","","","","","",""
"html-button-response","3","77092","0.0-3.0","CAN_113","113","","","","","","72050","","0","","","","","","","","","","",""
"html-button-response","4","78944","0.0-4.0","CAN_113","113","","","","","","1838","","0","star","square","[""square"",""star""]","left-right","[""square"",""star""]","1","practice","1","right","trigger",""
"html-button-response","5","79786","0.0-5.0-0.0","CAN_113","113","","","","","","824","<button class=""jspsych-btn""><img src=""stimuli/star.png"" style=""width: 200px;height: 200px;""></button>","0","star","square","[""square"",""star""]","left-right","[""square"",""star""]","1","practice","1","right","response","0"
"html-audio-button-response","6","80424","0.0-5.0-1.0","CAN_113","113","","","","","","null","stimuli/boing.m4a","null","star","square","[""square"",""star""]","left-right","[""square"",""star""]","1","practice","1","right","audio_feedback","0"
"html-button-response","7","85718","0.0-5.1-0.1","CAN_113","113","","","","","","5245","<button class=""jspsych-btn""><img src=""stimuli/star.png"" style=""width: 200px;height: 200px;""></button>","1","star","square","[""square"",""star""]","left-right","[""square"",""star""]","1","practice","1","right","response","1"
"html-audio-button-response","8","85932","0.0-5.1-1.1","CAN_113","113","","","","","","null","stimuli/bleep.m4a","null","star","square","[""square"",""star""]","left-right","[""square"",""star""]","1","practice","1","right","audio_feedback","1"
"html-button-response","9","86459","0.0-6.0","CAN_113","113","","","","","","null","<button class=""jspsych-btn""><img src=""stimuli/white_square.png"" style=""width: 200px;height: 200px;""></button>","null","star","square","[""square"",""star""]","left-right","[""square"",""star""]","1","practice","1","right","iti",""
"html-button-response","10","89898","0.0-7.0","CAN_113","113","","","","","","3421","","0","triangle","pentagram","[""triangle"",""pentagram""]","left-right","[""triangle"",""pentagram""]","1","practice","1","left","trigger",""
"html-button-response","11","91099","0.0-8.0-0.0","CAN_113","113","","","","","","1185","<button class=""jspsych-btn""><img src=""stimuli/triangle.png"" style=""width: 200px;height: 200px;""></button>","0","triangle","pentagram","[""triangle"",""pentagram""]","left-right","[""triangle"",""pentagram""]","1","practice","1","left","response","1"
"html-audio-button-response","12","91308","0.0-8.0-1.0","CAN_113","113","","","","","","null","stimuli/bleep.m4a","null","triangle","pentagram","[""triangle"",""pentagram""]","left-right","[""triangle"",""pentagram""]","1","practice","1","left","audio_feedback","1"
"html-button-response","13","91824","0.0-9.0","CAN_113","113","","","","","","null","<button class=""jspsych-btn""><img src=""stimuli/white_square.png"" style=""width: 200px;height: 200px;""></button>","null","triangle","pentagram","[""triangle"",""pentagram""]","left-right","[""triangle"",""pentagram""]","1","practice","1","left","iti",""
"html-button-response","14","93164","0.0-10.0","CAN_113","113","","","","","","1319","","0","diamond","rectangle","[""rectangle"",""diamond""]","left-right","[""rectangle"",""diamond""]","1","practice","1","right","trigger",""
"html-button-response","15","94251","0.0-11.0-0.0","CAN_113","113","","","","","","1050","<button class=""jspsych-btn""><img src=""stimuli/diamond.png"" style=""width: 200px;height: 200px;""></button>","1","diamond","rectangle","[""rectangle"",""diamond""]","left-right","[""rectangle"",""diamond""]","1","practice","1","right","response","1"
"html-audio-button-response","16","94459","0.0-11.0-1.0","CAN_113","113","","","","","","null","stimuli/bleep.m4a","null","diamond","rectangle","[""rectangle"",""diamond""]","left-right","[""rectangle"",""diamond""]","1","practice","1","right","audio_feedback","1"
"html-button-response","17","94975","0.0-12.0","CAN_113","113","","","","","","null","<button class=""jspsych-btn""><img src=""stimuli/white_square.png"" style=""width: 200px;height: 200px;""></button>","null","diamond","rectangle","[""rectangle"",""diamond""]","left-right","[""rectangle"",""diamond""]","1","practice","1","right","iti",""
"html-button-response","18","95875","0.0-13.0","CAN_113","113","","","","","","896","","0","pentagram","star","[""pentagram"",""star""]","left-right","[""pentagram"",""star""]","1","practice","1","left","trigger",""
"html-button-response","19","96715","0.0-14.0-0.0","CAN_113","113","","","","","","828","<button class=""jspsych-btn""><img src=""stimuli/pentagram.png"" style=""width: 200px;height: 200px;""></button>","0","pentagram","star","[""pentagram"",""star""]","left-right","[""pentagram"",""star""]","1","practice","1","left","response","1"
"html-audio-button-response","20","96926","0.0-14.0-1.0","CAN_113","113","","","","","","null","stimuli/bleep.m4a","null","pentagram","star","[""pentagram"",""star""]","left-right","[""pentagram"",""star""]","1","practice","1","left","audio_feedback","1"
"html-button-response","21","97456","0.0-15.0","CAN_113","113","","","","","","null","<button class=""jspsych-btn""><img src=""stimuli/white_square.png"" style=""width: 200px;height: 200px;""></button>","null","pentagram","star","[""pentagram"",""star""]","left-right","[""pentagram"",""star""]","1","practice","1","left","iti",""
"html-button-response","22","111708","0.0-16.0","CAN_113","113","","","","","","14236","","0","","","","","","","","","","",""
"html-button-response","23","112597","0.0-17.0","CAN_113","113","","","","","","879","","0","darkgreenblue","neonyellow","[""darkgreenblue"",""neonyellow"",""low nameability""]","right-left","[""neonyellow"",""darkgreenblue""]","1","low nameability","1","right","trigger",""
"html-button-response","24","113273","0.0-18.0-0.0","CAN_113","113","","","","","","665","<button class=""jspsych-btn""><img src=""stimuli/darkgreenblue.png"" style=""width: 200px;height: 200px;""></button>","1","darkgreenblue","neonyellow","[""darkgreenblue"",""neonyellow"",""low nameability""]","right-left","[""neonyellow"",""darkgreenblue""]","1","low nameability","1","right","response","1"
"html-audio-button-response","25","113478","0.0-18.0-1.0","CAN_113","113","","","","","","null","stimuli/bleep.m4a","null","darkgreenblue","neonyellow","[""darkgreenblue"",""neonyellow"",""low nameability""]","right-left","[""neonyellow"",""darkgreenblue""]","1","low nameability","1","right","audio_feedback","1"
"html-button-response","26","113998","0.0-19.0","CAN_113","113","","","","","","null","<button class=""jspsych-btn""><img src=""stimuli/white_square.png"" style=""width: 200px;height: 200px;""></button>","null","darkgreenblue","neonyellow","[""darkgreenblue"",""neonyellow"",""low nameability""]","right-left","[""neonyellow"",""darkgreenblue""]","1","low nameability","1","right","iti",""
"html-button-response","27","114607","0.0-20.0","CAN_113","113","","","","","","586","","0","turquoise","pink","[""turquoise"",""pink"",""low nameability""]","right-left","[""pink"",""turquoise""]","1","low nameability","2","right","trigger",""
"html-button-response","28","115318","0.0-21.0-0.0","CAN_113","113","","","","","","695","<button class=""jspsych-btn""><img src=""stimuli/turquoise.png"" style=""width: 200px;height: 200px;""></button>","1","turquoise","pink","[""turquoise"",""pink"",""low nameability""]","right-left","[""pink"",""turquoise""]","1","low nameability","2","right","response","1"
"html-audio-button-response","29","115523","0.0-21.0-1.0","CAN_113","113","","","","","","null","stimuli/bleep.m4a","null","turquoise","pink","[""turquoise"",""pink"",""low nameability""]","right-left","[""pink"",""turquoise""]","1","low nameability","2","right","audio_feedback","1"
"html-button-response","30","116038","0.0-22.0","CAN_113","113","","","","","","null","<button class=""jspsych-btn""><img src=""stimuli/white_square.png"" style=""width: 200px;height: 200px;""></button>","null","turquoise","pink","[""turquoise"",""pink"",""low nameability""]","right-left","[""pink"",""turquoise""]","1","low nameability","2","right","iti",""
"html-button-response","31","116832","0.0-23.0","CAN_113","113","","","","","","779","","0","red","blue","[""red"",""blue"",""high nameability""]","right-left","[""blue"",""red""]","1","high nameability","3","right","trigger",""
"html-button-response","32","117547","0.0-24.0-0.0","CAN_113","113","","","","","","705","<button class=""jspsych-btn""><img src=""stimuli/red.png"" style=""width: 200px;height: 200px;""></button>","1","red","blue","[""red"",""blue"",""high nameability""]","right-left","[""blue"",""red""]","1","high nameability","3","right","response","1"
"html-audio-button-response","33","117758","0.0-24.0-1.0","CAN_113","113","","","","","","null","stimuli/bleep.m4a","null","red","blue","[""red"",""blue"",""high nameability""]","right-left","[""blue"",""red""]","1","high nameability","3","right","audio_feedback","1"
"html-button-response","34","118277","0.0-25.0","CAN_113","113","","","","","","null","<button class=""jspsych-btn""><img src=""stimuli/white_square.png"" style=""width: 200px;height: 200px;""></button>","null","red","blue","[""red"",""blue"",""high nameability""]","right-left","[""blue"",""red""]","1","high nameability","3","right","iti",""
"html-button-response","35","118881","0.0-26.0","CAN_113","113","","","","","","586","","0","lightred","pink","[""lightred"",""pink"",""low nameability""]","left-right","[""lightred"",""pink"",""low nameability""]","1","low nameability","4","left","trigger",""
"html-button-response","36","119635","0.0-27.0-0.0","CAN_113","113","","","","","","741","<button class=""jspsych-btn""><img src=""stimuli/lightred.png"" style=""width: 200px;height: 200px;""></button>","0","lightred","pink","[""lightred"",""pink"",""low nameability""]","left-right","[""lightred"",""pink"",""low nameability""]","1","low nameability","4","left","response","1"
"html-audio-button-response","37","119844","0.0-27.0-1.0","CAN_113","113","","","","","","null","stimuli/bleep.m4a","null","lightred","pink","[""lightred"",""pink"",""low nameability""]","left-right","[""lightred"",""pink"",""low nameability""]","1","low nameability","4","left","audio_feedback","1"
"html-button-response","38","120371","0.0-28.0","CAN_113","113","","","","","","null","<button class=""jspsych-btn""><img src=""stimuli/white_square.png"" style=""width: 200px;height: 200px;""></button>","null","lightred","pink","[""lightred"",""pink"",""low nameability""]","left-right","[""lightred"",""pink"",""low nameability""]","1","low nameability","4","left","iti",""
"html-button-response","39","121065","0.0-29.0","CAN_113","113","","","","","","674","","0","orange","brown","[""orange"",""brown"",""high nameability""]","right-left","[""brown"",""orange""]","1","high nameability","5","right","trigger",""
"html-button-response","40","121727","0.0-30.0-0.0","CAN_113","113","","","","","","650","<button class=""jspsych-btn""><img src=""stimuli/orange.png"" style=""width: 200px;height: 200px;""></button>","1","orange","brown","[""orange"",""brown"",""high nameability""]","right-left","[""brown"",""orange""]","1","high nameability","5","right","response","1"
"html-audio-button-response","41","121936","0.0-30.0-1.0","CAN_113","113","","","","","","null","stimuli/bleep.m4a","null","orange","brown","[""orange"",""brown"",""high nameability""]","right-left","[""brown"",""orange""]","1","high nameability","5","right","audio_feedback","1"
"html-button-response","42","122454","0.0-31.0","CAN_113","113","","","","","","null","<button class=""jspsych-btn""><img src=""stimuli/white_square.png"" style=""width: 200px;height: 200px;""></button>","null","orange","brown","[""orange"",""brown"",""high nameability""]","right-left","[""brown"",""orange""]","1","high nameability","5","right","iti",""
"html-button-response","43","123090","0.0-32.0","CAN_113","113","","","","","","617","","0","yellow","blue","[""yellow"",""blue"",""high nameability""]","right-left","[""blue"",""yellow""]","1","high nameability","6","right","trigger",""
"html-button-response","44","123708","0.0-33.0-0.0","CAN_113","113","","","","","","608","<button class=""jspsych-btn""><img src=""stimuli/yellow.png"" style=""width: 200px;height: 200px;""></button>","1","yellow","blue","[""yellow"",""blue"",""high nameability""]","right-left","[""blue"",""yellow""]","1","high nameability","6","right","response","1"
"html-audio-button-response","45","123927","0.0-33.0-1.0","CAN_113","113","","","","","","null","stimuli/bleep.m4a","null","yellow","blue","[""yellow"",""blue"",""high nameability""]","right-left","[""blue"",""yellow""]","1","high nameability","6","right","audio_feedback","1"
"html-button-response","46","124450","0.0-34.0","CAN_113","113","","","","","","null","<button class=""jspsych-btn""><img src=""stimuli/white_square.png"" style=""width: 200px;height: 200px;""></button>","null","yellow","blue","[""yellow"",""blue"",""high nameability""]","right-left","[""blue"",""yellow""]","1","high nameability","6","right","iti",""
"html-button-response","47","125165","0.0-35.0","CAN_113","113","","","","","","698","","0","orange","blue","[""orange"",""blue"",""high nameability""]","right-left","[""blue"",""orange""]","1","high nameability","7","right","trigger",""
"html-button-response","48","125733","0.0-36.0-0.0","CAN_113","113","","","","","","558","<button class=""jspsych-btn""><img src=""stimuli/orange.png"" style=""width: 200px;height: 200px;""></button>","1","orange","blue","[""orange"",""blue"",""high nameability""]","right-left","[""blue"",""orange""]","1","high nameability","7","right","response","1"
"html-audio-button-response","49","125937","0.0-36.0-1.0","CAN_113","113","","","","","","null","stimuli/bleep.m4a","null","orange","blue","[""orange"",""blue"",""high nameability""]","right-left","[""blue"",""orange""]","1","high nameability","7","right","audio_feedback","1"
"html-button-response","50","126458","0.0-37.0","CAN_113","113","","","","","","null","<button class=""jspsych-btn""><img src=""stimuli/white_square.png"" style=""width: 200px;height: 200px;""></button>","null","orange","blue","[""orange"",""blue"",""high nameability""]","right-left","[""blue"",""orange""]","1","high nameability","7","right","iti",""
"html-button-response","51","127131","0.0-38.0","CAN_113","113","","","","","","659","","0","yellow","red","[""yellow"",""red"",""high nameability""]","right-left","[""red"",""yellow""]","1","high nameability","8","right","trigger",""
"html-button-response","52","127738","0.0-39.0-0.0","CAN_113","113","","","","","","596","<button class=""jspsych-btn""><img src=""stimuli/yellow.png"" style=""width: 200px;height: 200px;""></button>","1","yellow","red","[""yellow"",""red"",""high nameability""]","right-left","[""red"",""yellow""]","1","high nameability","8","right","response","1"
"html-audio-button-response","53","127947","0.0-39.0-1.0","CAN_113","113","","","","","","null","stimuli/bleep.m4a","null","yellow","red","[""yellow"",""red"",""high nameability""]","right-left","[""red"",""yellow""]","1","high nameability","8","right","audio_feedback","1"
"html-button-response","54","128471","0.0-40.0","CAN_113","113","","","","","","null","<button class=""jspsych-btn""><img src=""stimuli/white_square.png"" style=""width: 200px;height: 200px;""></button>","null","yellow","red","[""yellow"",""red"",""high nameability""]","right-left","[""red"",""yellow""]","1","high nameability","8","right","iti",""
"html-button-response","55","129114","0.0-41.0","CAN_113","113","","","","","","621","","0","turquoise","neonyellow","[""turquoise"",""neonyellow"",""low nameability""]","left-right","[""turquoise"",""neonyellow"",""low nameability""]","1","low nameability","9","left","trigger",""
"html-button-response","56","129816","0.0-42.0-0.0","CAN_113","113","","","","","","693","<button class=""jspsych-btn""><img src=""stimuli/turquoise.png"" style=""width: 200px;height: 200px;""></button>","0","turquoise","neonyellow","[""turquoise"",""neonyellow"",""low nameability""]","left-right","[""turquoise"",""neonyellow"",""low nameability""]","1","low nameability","9","left","response","1"
"html-audio-button-response","57","130022","0.0-42.0-1.0","CAN_113","113","","","","","","null","stimuli/bleep.m4a","null","turquoise","neonyellow","[""turquoise"",""neonyellow"",""low nameability""]","left-right","[""turquoise"",""neonyellow"",""low nameability""]","1","low nameability","9","left","audio_feedback","1"
"html-button-response","58","130542","0.0-43.0","CAN_113","113","","","","","","null","<button class=""jspsych-btn""><img src=""stimuli/white_square.png"" style=""width: 200px;height: 200px;""></button>","null","turquoise","neonyellow","[""turquoise"",""neonyellow"",""low nameability""]","left-right","[""turquoise"",""neonyellow"",""low nameability""]","1","low nameability","9","left","iti",""
"html-button-response","59","131228","0.0-44.0","CAN_113","113","","","","","","668","","0","lightred","mustard","[""lightred"",""mustard"",""low nameability""]","right-left","[""mustard"",""lightred""]","1","low nameability","10","right","trigger",""
"html-button-response","60","131820","0.0-45.0-0.0","CAN_113","113","","","","","","584","<button class=""jspsych-btn""><img src=""stimuli/lightred.png"" style=""width: 200px;height: 200px;""></button>","1","lightred","mustard","[""lightred"",""mustard"",""low nameability""]","right-left","[""mustard"",""lightred""]","1","low nameability","10","right","response","1"
"html-audio-button-response","61","132026","0.0-45.0-1.0","CAN_113","113","","","","","","null","stimuli/bleep.m4a","null","lightred","mustard","[""lightred"",""mustard"",""low nameability""]","right-left","[""mustard"",""lightred""]","1","low nameability","10","right","audio_feedback","1"
"html-button-response","62","132543","0.0-46.0","CAN_113","113","","","","","","null","<button class=""jspsych-btn""><img src=""stimuli/white_square.png"" style=""width: 200px;height: 200px;""></button>","null","lightred","mustard","[""lightred"",""mustard"",""low nameability""]","right-left","[""mustard"",""lightred""]","1","low nameability","10","right","iti",""
"pavlovia","63","132639","0.0-47.0","CAN_113","113","","","","","","","","","","","","","","","","","","",""
"pavlovia","64","132652","0.0-48.0","CAN_113","113","","","","","","","","","","","","","","","","","","",""
"html-audio-button-response","65","134556","0.0-49.0","CAN_113","113","","","","","","2016","stimuli/tada.m4a","0","","","","","","","","","","",""
"html-button-response","66","135849","0.0-50.0","CAN_113","113","","","","","","1287","","0","","","","","","","","","","",""
"html-button-response","67","136774","0.0-51.0","CAN_113","113","","","","","","916","","0","red","orange","[""red"",""orange"",""high nameability""]","left-right","[""red"",""orange"",""high nameability""]","2","high nameability","11","left","trigger",""
"html-button-response","68","137447","0.0-52.0-0.0","CAN_113","113","","","","","","661","<button class=""jspsych-btn""><img src=""stimuli/red.png"" style=""width: 200px;height: 200px;""></button>","0","red","orange","[""red"",""orange"",""high nameability""]","left-right","[""red"",""orange"",""high nameability""]","2","high nameability","11","left","response","1"
"html-audio-button-response","69","137653","0.0-52.0-1.0","CAN_113","113","","","","","","null","stimuli/bleep.m4a","null","red","orange","[""red"",""orange"",""high nameability""]","left-right","[""red"",""orange"",""high nameability""]","2","high nameability","11","left","audio_feedback","1"
"html-button-response","70","138169","0.0-53.0","CAN_113","113","","","","","","null","<button class=""jspsych-btn""><img src=""stimuli/white_square.png"" style=""width: 200px;height: 200px;""></button>","null","red","orange","[""red"",""orange"",""high nameability""]","left-right","[""red"",""orange"",""high nameability""]","2","high nameability","11","left","iti",""
"html-button-response","71","138852","0.0-54.0","CAN_113","113","","","","","","672","","0","neonyellow","mustard","[""neonyellow"",""mustard"",""low nameability""]","right-left","[""mustard"",""neonyellow""]","2","low nameability","12","right","trigger",""
"html-button-response","72","139490","0.0-55.0-0.0","CAN_113","113","","","","","","628","<button class=""jspsych-btn""><img src=""stimuli/neonyellow.png"" style=""width: 200px;height: 200px;""></button>","1","neonyellow","mustard","[""neonyellow"",""mustard"",""low nameability""]","right-left","[""mustard"",""neonyellow""]","2","low nameability","12","right","response","1"
"html-audio-button-response","73","139702","0.0-55.0-1.0","CAN_113","113","","","","","","null","stimuli/bleep.m4a","null","neonyellow","mustard","[""neonyellow"",""mustard"",""low nameability""]","right-left","[""mustard"",""neonyellow""]","2","low nameability","12","right","audio_feedback","1"
"html-button-response","74","140227","0.0-56.0","CAN_113","113","","","","","","null","<button class=""jspsych-btn""><img src=""stimuli/white_square.png"" style=""width: 200px;height: 200px;""></button>","null","neonyellow","mustard","[""neonyellow"",""mustard"",""low nameability""]","right-left","[""mustard"",""neonyellow""]","2","low nameability","12","right","iti",""
"html-button-response","75","140892","0.0-57.0","CAN_113","113","","","","","","645","","0","blue","brown","[""blue"",""brown"",""high nameability""]","right-left","[""brown"",""blue""]","2","high nameability","13","right","trigger",""
"html-button-response","76","141539","0.0-58.0-0.0","CAN_113","113","","","","","","638","<button class=""jspsych-btn""><img src=""stimuli/blue.png"" style=""width: 200px;height: 200px;""></button>","1","blue","brown","[""blue"",""brown"",""high nameability""]","right-left","[""brown"",""blue""]","2","high nameability","13","right","response","1"
"html-audio-button-response","77","141754","0.0-58.0-1.0","CAN_113","113","","","","","","null","stimuli/bleep.m4a","null","blue","brown","[""blue"",""brown"",""high nameability""]","right-left","[""brown"",""blue""]","2","high nameability","13","right","audio_feedback","1"
"html-button-response","78","142270","0.0-59.0","CAN_113","113","","","","","","null","<button class=""jspsych-btn""><img src=""stimuli/white_square.png"" style=""width: 200px;height: 200px;""></button>","null","blue","brown","[""blue"",""brown"",""high nameability""]","right-left","[""brown"",""blue""]","2","high nameability","13","right","iti",""
"html-button-response","79","142864","0.0-60.0","CAN_113","113","","","","","","577","","0","purple","red","[""purple"",""red"",""high nameability""]","left-right","[""purple"",""red"",""high nameability""]","2","high nameability","14","left","trigger",""
"html-button-response","80","143514","0.0-61.0-0.0","CAN_113","113","","","","","","643","<button class=""jspsych-btn""><img src=""stimuli/purple.png"" style=""width: 200px;height: 200px;""></button>","0","purple","red","[""purple"",""red"",""high nameability""]","left-right","[""purple"",""red"",""high nameability""]","2","high nameability","14","left","response","1"
"html-audio-button-response","81","143717","0.0-61.0-1.0","CAN_113","113","","","","","","null","stimuli/bleep.m4a","null","purple","red","[""purple"",""red"",""high nameability""]","left-right","[""purple"",""red"",""high nameability""]","2","high nameability","14","left","audio_feedback","1"
"html-button-response","82","144228","0.0-62.0","CAN_113","113","","","","","","null","<button class=""jspsych-btn""><img src=""stimuli/white_square.png"" style=""width: 200px;height: 200px;""></button>","null","purple","red","[""purple"",""red"",""high nameability""]","left-right","[""purple"",""red"",""high nameability""]","2","high nameability","14","left","iti",""
"html-button-response","83","144918","0.0-63.0","CAN_113","113","","","","","","674","","0","pink","mustard","[""pink"",""mustard"",""low nameability""]","right-left","[""mustard"",""pink""]","2","low nameability","15","right","trigger",""
"html-button-response","84","145572","0.0-64.0-0.0","CAN_113","113","","","","","","640","<button class=""jspsych-btn""><img src=""stimuli/pink.png"" style=""width: 200px;height: 200px;""></button>","1","pink","mustard","[""pink"",""mustard"",""low nameability""]","right-left","[""mustard"",""pink""]","2","low nameability","15","right","response","1"
"html-audio-button-response","85","145783","0.0-64.0-1.0","CAN_113","113","","","","","","null","stimuli/bleep.m4a","null","pink","mustard","[""pink"",""mustard"",""low nameability""]","right-left","[""mustard"",""pink""]","2","low nameability","15","right","audio_feedback","1"
"html-button-response","86","146299","0.0-65.0","CAN_113","113","","","","","","null","<button class=""jspsych-btn""><img src=""stimuli/white_square.png"" style=""width: 200px;height: 200px;""></button>","null","pink","mustard","[""pink"",""mustard"",""low nameability""]","right-left","[""mustard"",""pink""]","2","low nameability","15","right","iti",""
"html-button-response","87","146843","0.0-66.0","CAN_113","113","","","","","","527","","0","mustard","pink","[""mustard"",""pink"",""low nameability""]","left-right","[""mustard"",""pink"",""low nameability""]","2","low nameability","16","left","trigger",""
"html-button-response","88","147445","0.0-67.0-0.0","CAN_113","113","","","","","","594","<button class=""jspsych-btn""><img src=""stimuli/mustard.png"" style=""width: 200px;height: 200px;""></button>","0","mustard","pink","[""mustard"",""pink"",""low nameability""]","left-right","[""mustard"",""pink"",""low nameability""]","2","low nameability","16","left","response","1"
"html-audio-button-response","89","147651","0.0-67.0-1.0","CAN_113","113","","","","","","null","stimuli/bleep.m4a","null","mustard","pink","[""mustard"",""pink"",""low nameability""]","left-right","[""mustard"",""pink"",""low nameability""]","2","low nameability","16","left","audio_feedback","1"
"html-button-response","90","148176","0.0-68.0","CAN_113","113","","","","","","null","<button class=""jspsych-btn""><img src=""stimuli/white_square.png"" style=""width: 200px;height: 200px;""></button>","null","mustard","pink","[""mustard"",""pink"",""low nameability""]","left-right","[""mustard"",""pink"",""low nameability""]","2","low nameability","16","left","iti",""
"html-button-response","91","148706","0.0-69.0","CAN_113","113","","","","","","511","","0","mustard","neonyellow","[""mustard"",""neonyellow"",""low nameability""]","right-left","[""neonyellow"",""mustard""]","2","low nameability","17","right","trigger",""
"html-button-response","92","149263","0.0-70.0-0.0","CAN_113","113","","","","","","541","<button class=""jspsych-btn""><img src=""stimuli/mustard.png"" style=""width: 200px;height: 200px;""></button>","1","mustard","neonyellow","[""mustard"",""neonyellow"",""low nameability""]","right-left","[""neonyellow"",""mustard""]","2","low nameability","17","right","response","1"
"html-audio-button-response","93","149471","0.0-70.0-1.0","CAN_113","113","","","","","","null","stimuli/bleep.m4a","null","mustard","neonyellow","[""mustard"",""neonyellow"",""low nameability""]","right-left","[""neonyellow"",""mustard""]","2","low nameability","17","right","audio_feedback","1"
"html-button-response","94","149987","0.0-71.0","CAN_113","113","","","","","","null","<button class=""jspsych-btn""><img src=""stimuli/white_square.png"" style=""width: 200px;height: 200px;""></button>","null","mustard","neonyellow","[""mustard"",""neonyellow"",""low nameability""]","right-left","[""neonyellow"",""mustard""]","2","low nameability","17","right","iti",""
"html-button-response","95","150519","0.0-72.0","CAN_113","113","","","","","","514","","0","neonyellow","darkgreenblue","[""neonyellow"",""darkgreenblue"",""low nameability""]","right-left","[""darkgreenblue"",""neonyellow""]","2","low nameability","18","right","trigger",""
"html-button-response","96","151082","0.0-73.0-0.0","CAN_113","113","","","","","","553","<button class=""jspsych-btn""><img src=""stimuli/neonyellow.png"" style=""width: 200px;height: 200px;""></button>","1","neonyellow","darkgreenblue","[""neonyellow"",""darkgreenblue"",""low nameability""]","right-left","[""darkgreenblue"",""neonyellow""]","2","low nameability","18","right","response","1"
"html-audio-button-response","97","151295","0.0-73.0-1.0","CAN_113","113","","","","","","null","stimuli/bleep.m4a","null","neonyellow","darkgreenblue","[""neonyellow"",""darkgreenblue"",""low nameability""]","right-left","[""darkgreenblue"",""neonyellow""]","2","low nameability","18","right","audio_feedback","1"
"html-button-response","98","151815","0.0-74.0","CAN_113","113","","","","","","null","<button class=""jspsych-btn""><img src=""stimuli/white_square.png"" style=""width: 200px;height: 200px;""></button>","null","neonyellow","darkgreenblue","[""neonyellow"",""darkgreenblue"",""low nameability""]","right-left","[""darkgreenblue"",""neonyellow""]","2","low nameability","18","right","iti",""
"html-button-response","99","152436","0.0-75.0","CAN_113","113","","","","","","602","","0","brown","orange","[""brown"",""orange"",""high nameability""]","right-left","[""orange"",""brown""]","2","high nameability","19","right","trigger",""
"html-button-response","100","153126","0.0-76.0-0.0","CAN_113","113","","","","","","675","<button class=""jspsych-btn""><img src=""stimuli/brown.png"" style=""width: 200px;height: 200px;""></button>","1","brown","orange","[""brown"",""orange"",""high nameability""]","right-left","[""orange"",""brown""]","2","high nameability","19","right","response","1"
"html-audio-button-response","101","153334","0.0-76.0-1.0","CAN_113","113","","","","","","null","stimuli/bleep.m4a","null","brown","orange","[""brown"",""orange"",""high nameability""]","right-left","[""orange"",""brown""]","2","high nameability","19","right","audio_feedback","1"
"html-button-response","102","153854","0.0-77.0","CAN_113","113","","","","","","null","<button class=""jspsych-btn""><img src=""stimuli/white_square.png"" style=""width: 200px;height: 200px;""></button>","null","brown","orange","[""brown"",""orange"",""high nameability""]","right-left","[""orange"",""brown""]","2","high nameability","19","right","iti",""
"html-button-response","103","154473","0.0-78.0","CAN_113","113","","","","","","599","","0","yellow","brown","[""yellow"",""brown"",""high nameability""]","left-right","[""yellow"",""brown"",""high nameability""]","2","high nameability","20","left","trigger",""
"html-button-response","104","155107","0.0-79.0-0.0","CAN_113","113","","","","","","623","<button class=""jspsych-btn""><img src=""stimuli/yellow.png"" style=""width: 200px;height: 200px;""></button>","0","yellow","brown","[""yellow"",""brown"",""high nameability""]","left-right","[""yellow"",""brown"",""high nameability""]","2","high nameability","20","left","response","1"
"html-audio-button-response","105","155316","0.0-79.0-1.0","CAN_113","113","","","","","","null","stimuli/bleep.m4a","null","yellow","brown","[""yellow"",""brown"",""high nameability""]","left-right","[""yellow"",""brown"",""high nameability""]","2","high nameability","20","left","audio_feedback","1"
"html-button-response","106","155839","0.0-80.0","CAN_113","113","","","","","","null","<button class=""jspsych-btn""><img src=""stimuli/white_square.png"" style=""width: 200px;height: 200px;""></button>","null","yellow","brown","[""yellow"",""brown"",""high nameability""]","left-right","[""yellow"",""brown"",""high nameability""]","2","high nameability","20","left","iti",""
"pavlovia","107","155914","0.0-81.0","CAN_113","113","","","","","","","","","","","","","","","","","","",""
"pavlovia","108","155925","0.0-82.0","CAN_113","113","","","","","","","","","","","","","","","","","","",""
"html-audio-button-response","109","157566","0.0-83.0","CAN_113","113","","","","","","1728","stimuli/tada.m4a","0","","","","","","","","","","",""
"html-button-response","110","158514","0.0-84.0","CAN_113","113","","","","","","938","","0","","","","","","","","","","",""
"html-button-response","111","159360","0.0-85.0","CAN_113","113","","","","","","838","","0","purple","blue","[""purple"",""blue"",""high nameability""]","left-right","[""purple"",""blue"",""high nameability""]","3","high nameability","21","left","trigger",""
"html-button-response","112","160017","0.0-86.0-0.0","CAN_113","113","","","","","","648","<button class=""jspsych-btn""><img src=""stimuli/purple.png"" style=""width: 200px;height: 200px;""></button>","0","purple","blue","[""purple"",""blue"",""high nameability""]","left-right","[""purple"",""blue"",""high nameability""]","3","high nameability","21","left","response","1"
"html-audio-button-response","113","160227","0.0-86.0-1.0","CAN_113","113","","","","","","null","stimuli/bleep.m4a","null","purple","blue","[""purple"",""blue"",""high nameability""]","left-right","[""purple"",""blue"",""high nameability""]","3","high nameability","21","left","audio_feedback","1"
"html-button-response","114","160748","0.0-87.0","CAN_113","113","","","","","","null","<button class=""jspsych-btn""><img src=""stimuli/white_square.png"" style=""width: 200px;height: 200px;""></button>","null","purple","blue","[""purple"",""blue"",""high nameability""]","left-right","[""purple"",""blue"",""high nameability""]","3","high nameability","21","left","iti",""
"html-button-response","115","161445","0.0-88.0","CAN_113","113","","","","","","679","","0","darkgreenblue","mustard","[""darkgreenblue"",""mustard"",""low nameability""]","left-right","[""darkgreenblue"",""mustard"",""low nameability""]","3","low nameability","22","left","trigger",""
"html-button-response","116","162115","0.0-89.0-0.0","CAN_113","113","","","","","","660","<button class=""jspsych-btn""><img src=""stimuli/darkgreenblue.png"" style=""width: 200px;height: 200px;""></button>","0","darkgreenblue","mustard","[""darkgreenblue"",""mustard"",""low nameability""]","left-right","[""darkgreenblue"",""mustard"",""low nameability""]","3","low nameability","22","left","response","1"
"html-audio-button-response","117","162331","0.0-89.0-1.0","CAN_113","113","","","","","","null","stimuli/bleep.m4a","null","darkgreenblue","mustard","[""darkgreenblue"",""mustard"",""low nameability""]","left-right","[""darkgreenblue"",""mustard"",""low nameability""]","3","low nameability","22","left","audio_feedback","1"
"html-button-response","118","162851","0.0-90.0","CAN_113","113","","","","","","null","<button class=""jspsych-btn""><img src=""stimuli/white_square.png"" style=""width: 200px;height: 200px;""></button>","null","darkgreenblue","mustard","[""darkgreenblue"",""mustard"",""low nameability""]","left-right","[""darkgreenblue"",""mustard"",""low nameability""]","3","low nameability","22","left","iti",""
"html-button-response","119","163543","0.0-91.0","CAN_113","113","","","","","","675","","0","blue","red","[""blue"",""red"",""high nameability""]","left-right","[""blue"",""red"",""high nameability""]","3","high nameability","23","left","trigger",""
"html-button-response","120","164167","0.0-92.0-0.0","CAN_113","113","","","","","","615","<button class=""jspsych-btn""><img src=""stimuli/blue.png"" style=""width: 200px;height: 200px;""></button>","0","blue","red","[""blue"",""red"",""high nameability""]","left-right","[""blue"",""red"",""high nameability""]","3","high nameability","23","left","response","1"
"html-audio-button-response","121","164367","0.0-92.0-1.0","CAN_113","113","","","","","","null","stimuli/bleep.m4a","null","blue","red","[""blue"",""red"",""high nameability""]","left-right","[""blue"",""red"",""high nameability""]","3","high nameability","23","left","audio_feedback","1"
"html-button-response","122","164883","0.0-93.0","CAN_113","113","","","","","","null","<button class=""jspsych-btn""><img src=""stimuli/white_square.png"" style=""width: 200px;height: 200px;""></button>","null","blue","red","[""blue"",""red"",""high nameability""]","left-right","[""blue"",""red"",""high nameability""]","3","high nameability","23","left","iti",""
"html-button-response","123","165523","0.0-94.0","CAN_113","113","","","","","","623","","0","red","purple","[""red"",""purple"",""high nameability""]","right-left","[""purple"",""red""]","3","high nameability","24","right","trigger",""
"html-button-response","124","166106","0.0-95.0-0.0","CAN_113","113","","","","","","574","<button class=""jspsych-btn""><img src=""stimuli/red.png"" style=""width: 200px;height: 200px;""></button>","1","red","purple","[""red"",""purple"",""high nameability""]","right-left","[""purple"",""red""]","3","high nameability","24","right","response","1"
"html-audio-button-response","125","166315","0.0-95.0-1.0","CAN_113","113","","","","","","null","stimuli/bleep.m4a","null","red","purple","[""red"",""purple"",""high nameability""]","right-left","[""purple"",""red""]","3","high nameability","24","right","audio_feedback","1"
"html-button-response","126","166836","0.0-96.0","CAN_113","113","","","","","","null","<button class=""jspsych-btn""><img src=""stimuli/white_square.png"" style=""width: 200px;height: 200px;""></button>","null","red","purple","[""red"",""purple"",""high nameability""]","right-left","[""purple"",""red""]","3","high nameability","24","right","iti",""
"html-button-response","127","167398","0.0-97.0","CAN_113","113","","","","","","548","","0","pink","turquoise","[""pink"",""turquoise"",""low nameability""]","left-right","[""pink"",""turquoise"",""low nameability""]","3","low nameability","25","left","trigger",""
"html-button-response","128","168041","0.0-98.0-0.0","CAN_113","113","","","","","","635","<button class=""jspsych-btn""><img src=""stimuli/pink.png"" style=""width: 200px;height: 200px;""></button>","0","pink","turquoise","[""pink"",""turquoise"",""low nameability""]","left-right","[""pink"",""turquoise"",""low nameability""]","3","low nameability","25","left","response","1"
"html-audio-button-response","129","168246","0.0-98.0-1.0","CAN_113","113","","","","","","null","stimuli/bleep.m4a","null","pink","turquoise","[""pink"",""turquoise"",""low nameability""]","left-right","[""pink"",""turquoise"",""low nameability""]","3","low nameability","25","left","audio_feedback","1"
"html-button-response","130","168763","0.0-99.0","CAN_113","113","","","","","","null","<button class=""jspsych-btn""><img src=""stimuli/white_square.png"" style=""width: 200px;height: 200px;""></button>","null","pink","turquoise","[""pink"",""turquoise"",""low nameability""]","left-right","[""pink"",""turquoise"",""low nameability""]","3","low nameability","25","left","iti",""
"html-button-response","131","169370","0.0-100.0","CAN_113","113","","","","","","598","","0","mustard","lightred","[""mustard"",""lightred"",""low nameability""]","left-right","[""mustard"",""lightred"",""low nameability""]","3","low nameability","26","left","trigger",""
"html-button-response","132","170002","0.0-101.0-0.0","CAN_113","113","","","","","","624","<button class=""jspsych-btn""><img src=""stimuli/mustard.png"" style=""width: 200px;height: 200px;""></button>","0","mustard","lightred","[""mustard"",""lightred"",""low nameability""]","left-right","[""mustard"",""lightred"",""low nameability""]","3","low nameability","26","left","response","1"
"html-audio-button-response","133","170205","0.0-101.0-1.0","CAN_113","113","","","","","","null","stimuli/bleep.m4a","null","mustard","lightred","[""mustard"",""lightred"",""low nameability""]","left-right","[""mustard"",""lightred"",""low nameability""]","3","low nameability","26","left","audio_feedback","1"
"html-button-response","134","170724","0.0-102.0","CAN_113","113","","","","","","null","<button class=""jspsych-btn""><img src=""stimuli/white_square.png"" style=""width: 200px;height: 200px;""></button>","null","mustard","lightred","[""mustard"",""lightred"",""low nameability""]","left-right","[""mustard"",""lightred"",""low nameability""]","3","low nameability","26","left","iti",""
"html-button-response","135","171304","0.0-103.0","CAN_113","113","","","","","","559","","0","lightred","darkgreenblue","[""lightred"",""darkgreenblue"",""low nameability""]","left-right","[""lightred"",""darkgreenblue"",""low nameability""]","3","low nameability","27","left","trigger",""
"html-button-response","136","171861","0.0-104.0-0.0","CAN_113","113","","","","","","549","<button class=""jspsych-btn""><img src=""stimuli/lightred.png"" style=""width: 200px;height: 200px;""></button>","0","lightred","darkgreenblue","[""lightred"",""darkgreenblue"",""low nameability""]","left-right","[""lightred"",""darkgreenblue"",""low nameability""]","3","low nameability","27","left","response","1"
"html-audio-button-response","137","172070","0.0-104.0-1.0","CAN_113","113","","","","","","null","stimuli/bleep.m4a","null","lightred","darkgreenblue","[""lightred"",""darkgreenblue"",""low nameability""]","left-right","[""lightred"",""darkgreenblue"",""low nameability""]","3","low nameability","27","left","audio_feedback","1"
"html-button-response","138","172590","0.0-105.0","CAN_113","113","","","","","","null","<button class=""jspsych-btn""><img src=""stimuli/white_square.png"" style=""width: 200px;height: 200px;""></button>","null","lightred","darkgreenblue","[""lightred"",""darkgreenblue"",""low nameability""]","left-right","[""lightred"",""darkgreenblue"",""low nameability""]","3","low nameability","27","left","iti",""
"html-button-response","139","173027","0.0-106.0","CAN_113","113","","","","","","419","","0","mustard","turquoise","[""mustard"",""turquoise"",""low nameability""]","right-left","[""turquoise"",""mustard""]","3","low nameability","28","right","trigger",""
"html-button-response","140","173575","0.0-107.0-0.0","CAN_113","113","","","","","","538","<button class=""jspsych-btn""><img src=""stimuli/mustard.png"" style=""width: 200px;height: 200px;""></button>","1","mustard","turquoise","[""mustard"",""turquoise"",""low nameability""]","right-left","[""turquoise"",""mustard""]","3","low nameability","28","right","response","1"
"html-audio-button-response","141","173790","0.0-107.0-1.0","CAN_113","113","","","","","","null","stimuli/bleep.m4a","null","mustard","turquoise","[""mustard"",""turquoise"",""low nameability""]","right-left","[""turquoise"",""mustard""]","3","low nameability","28","right","audio_feedback","1"
"html-button-response","142","174306","0.0-108.0","CAN_113","113","","","","","","null","<button class=""jspsych-btn""><img src=""stimuli/white_square.png"" style=""width: 200px;height: 200px;""></button>","null","mustard","turquoise","[""mustard"",""turquoise"",""low nameability""]","right-left","[""turquoise"",""mustard""]","3","low nameability","28","right","iti",""
"html-button-response","143","174847","0.0-109.0","CAN_113","113","","","","","","519","","0","brown","purple","[""brown"",""purple"",""high nameability""]","right-left","[""purple"",""brown""]","3","high nameability","29","right","trigger",""
"html-button-response","144","176076","0.0-110.0-0.0","CAN_113","113","","","","","","1220","<button class=""jspsych-btn""><img src=""stimuli/brown.png"" style=""width: 200px;height: 200px;""></button>","1","brown","purple","[""brown"",""purple"",""high nameability""]","right-left","[""purple"",""brown""]","3","high nameability","29","right","response","1"
"html-audio-button-response","145","176284","0.0-110.0-1.0","CAN_113","113","","","","","","null","stimuli/bleep.m4a","null","brown","purple","[""brown"",""purple"",""high nameability""]","right-left","[""purple"",""brown""]","3","high nameability","29","right","audio_feedback","1"
"html-button-response","146","176806","0.0-111.0","CAN_113","113","","","","","","null","<button class=""jspsych-btn""><img src=""stimuli/white_square.png"" style=""width: 200px;height: 200px;""></button>","null","brown","purple","[""brown"",""purple"",""high nameability""]","right-left","[""purple"",""brown""]","3","high nameability","29","right","iti",""
"html-button-response","147","177314","0.0-112.0","CAN_113","113","","","","","","482","","0","brown","yellow","[""brown"",""yellow"",""high nameability""]","right-left","[""yellow"",""brown""]","3","high nameability","30","right","trigger",""
"html-button-response","148","177886","0.0-113.0-0.0","CAN_113","113","","","","","","565","<button class=""jspsych-btn""><img src=""stimuli/brown.png"" style=""width: 200px;height: 200px;""></button>","1","brown","yellow","[""brown"",""yellow"",""high nameability""]","right-left","[""yellow"",""brown""]","3","high nameability","30","right","response","1"
"html-audio-button-response","149","178094","0.0-113.0-1.0","CAN_113","113","","","","","","null","stimuli/bleep.m4a","null","brown","yellow","[""brown"",""yellow"",""high nameability""]","right-left","[""yellow"",""brown""]","3","high nameability","30","right","audio_feedback","1"
"html-button-response","150","178612","0.0-114.0","CAN_113","113","","","","","","null","<button class=""jspsych-btn""><img src=""stimuli/white_square.png"" style=""width: 200px;height: 200px;""></button>","null","brown","yellow","[""brown"",""yellow"",""high nameability""]","right-left","[""yellow"",""brown""]","3","high nameability","30","right","iti",""
"pavlovia","151","178675","0.0-115.0","CAN_113","113","","","","","","","","","","","","","","","","","","",""
"pavlovia","152","178682","0.0-116.0","CAN_113","113","","","","","","","","","","","","","","","","","","",""
"html-audio-button-response","153","180239","0.0-117.0","CAN_113","113","","","","","","1619","stimuli/tada.m4a","0","","","","","","","","","","",""
"html-button-response","154","180854","0.0-118.0","CAN_113","113","","","","","","607","","0","","","","","","","","","","",""
"html-button-response","155","181695","0.0-119.0","CAN_113","113","","","","","","831","","0","turquoise","mustard","[""turquoise"",""mustard"",""low nameability""]","right-left","[""mustard"",""turquoise""]","4","low nameability","31","right","trigger",""
"html-button-response","156","182298","0.0-120.0-0.0","CAN_113","113","","","","","","585","<button class=""jspsych-btn""><img src=""stimuli/turquoise.png"" style=""width: 200px;height: 200px;""></button>","1","turquoise","mustard","[""turquoise"",""mustard"",""low nameability""]","right-left","[""mustard"",""turquoise""]","4","low nameability","31","right","response","1"
"html-audio-button-response","157","182503","0.0-120.0-1.0","CAN_113","113","","","","","","null","stimuli/bleep.m4a","null","turquoise","mustard","[""turquoise"",""mustard"",""low nameability""]","right-left","[""mustard"",""turquoise""]","4","low nameability","31","right","audio_feedback","1"
"html-button-response","158","183023","0.0-121.0","CAN_113","113","","","","","","null","<button class=""jspsych-btn""><img src=""stimuli/white_square.png"" style=""width: 200px;height: 200px;""></button>","null","turquoise","mustard","[""turquoise"",""mustard"",""low nameability""]","right-left","[""mustard"",""turquoise""]","4","low nameability","31","right","iti",""
"html-button-response","159","183730","0.0-122.0","CAN_113","113","","","","","","686","","0","red","brown","[""red"",""brown"",""high nameability""]","right-left","[""brown"",""red""]","4","high nameability","32","right","trigger",""
"html-button-response","160","184286","0.0-123.0-0.0","CAN_113","113","","","","","","546","<button class=""jspsych-btn""><img src=""stimuli/red.png"" style=""width: 200px;height: 200px;""></button>","1","red","brown","[""red"",""brown"",""high nameability""]","right-left","[""brown"",""red""]","4","high nameability","32","right","response","1"
"html-audio-button-response","161","184492","0.0-123.0-1.0","CAN_113","113","","","","","","null","stimuli/bleep.m4a","null","red","brown","[""red"",""brown"",""high nameability""]","right-left","[""brown"",""red""]","4","high nameability","32","right","audio_feedback","1"
"html-button-response","162","185016","0.0-124.0","CAN_113","113","","","","","","null","<button class=""jspsych-btn""><img src=""stimuli/white_square.png"" style=""width: 200px;height: 200px;""></button>","null","red","brown","[""red"",""brown"",""high nameability""]","right-left","[""brown"",""red""]","4","high nameability","32","right","iti",""
"html-button-response","163","185746","0.0-125.0","CAN_113","113","","","","","","711","","0","blue","purple","[""blue"",""purple"",""high nameability""]","left-right","[""blue"",""purple"",""high nameability""]","4","high nameability","33","left","trigger",""
"html-button-response","164","186444","0.0-126.0-0.0","CAN_113","113","","","","","","687","<button class=""jspsych-btn""><img src=""stimuli/blue.png"" style=""width: 200px;height: 200px;""></button>","0","blue","purple","[""blue"",""purple"",""high nameability""]","left-right","[""blue"",""purple"",""high nameability""]","4","high nameability","33","left","response","1"
"html-audio-button-response","165","186650","0.0-126.0-1.0","CAN_113","113","","","","","","null","stimuli/bleep.m4a","null","blue","purple","[""blue"",""purple"",""high nameability""]","left-right","[""blue"",""purple"",""high nameability""]","4","high nameability","33","left","audio_feedback","1"
"html-button-response","166","187163","0.0-127.0","CAN_113","113","","","","","","null","<button class=""jspsych-btn""><img src=""stimuli/white_square.png"" style=""width: 200px;height: 200px;""></button>","null","blue","purple","[""blue"",""purple"",""high nameability""]","left-right","[""blue"",""purple"",""high nameability""]","4","high nameability","33","left","iti",""
"html-button-response","167","187788","0.0-128.0","CAN_113","113","","","","","","618","","0","darkgreenblue","pink","[""darkgreenblue"",""pink"",""low nameability""]","right-left","[""pink"",""darkgreenblue""]","4","low nameability","34","right","trigger",""
"html-button-response","168","188394","0.0-129.0-0.0","CAN_113","113","","","","","","595","<button class=""jspsych-btn""><img src=""stimuli/darkgreenblue.png"" style=""width: 200px;height: 200px;""></button>","1","darkgreenblue","pink","[""darkgreenblue"",""pink"",""low nameability""]","right-left","[""pink"",""darkgreenblue""]","4","low nameability","34","right","response","1"
"html-audio-button-response","169","188606","0.0-129.0-1.0","CAN_113","113","","","","","","null","stimuli/bleep.m4a","null","darkgreenblue","pink","[""darkgreenblue"",""pink"",""low nameability""]","right-left","[""pink"",""darkgreenblue""]","4","low nameability","34","right","audio_feedback","1"
"html-button-response","170","189126","0.0-130.0","CAN_113","113","","","","","","null","<button class=""jspsych-btn""><img src=""stimuli/white_square.png"" style=""width: 200px;height: 200px;""></button>","null","darkgreenblue","pink","[""darkgreenblue"",""pink"",""low nameability""]","right-left","[""pink"",""darkgreenblue""]","4","low nameability","34","right","iti",""
"html-button-response","171","189787","0.0-131.0","CAN_113","113","","","","","","638","","0","turquoise","lightred","[""turquoise"",""lightred"",""low nameability""]","left-right","[""turquoise"",""lightred"",""low nameability""]","4","low nameability","35","left","trigger",""
"html-button-response","172","190473","0.0-132.0-0.0","CAN_113","113","","","","","","669","<button class=""jspsych-btn""><img src=""stimuli/turquoise.png"" style=""width: 200px;height: 200px;""></button>","0","turquoise","lightred","[""turquoise"",""lightred"",""low nameability""]","left-right","[""turquoise"",""lightred"",""low nameability""]","4","low nameability","35","left","response","1"
"html-audio-button-response","173","190696","0.0-132.0-1.0","CAN_113","113","","","","","","null","stimuli/bleep.m4a","null","turquoise","lightred","[""turquoise"",""lightred"",""low nameability""]","left-right","[""turquoise"",""lightred"",""low nameability""]","4","low nameability","35","left","audio_feedback","1"
"html-button-response","174","191232","0.0-133.0","CAN_113","113","","","","","","null","<button class=""jspsych-btn""><img src=""stimuli/white_square.png"" style=""width: 200px;height: 200px;""></button>","null","turquoise","lightred","[""turquoise"",""lightred"",""low nameability""]","left-right","[""turquoise"",""lightred"",""low nameability""]","4","low nameability","35","left","iti",""
"html-button-response","175","191936","0.0-134.0","CAN_113","113","","","","","","680","","0","purple","yellow","[""purple"",""yellow"",""high nameability""]","left-right","[""purple"",""yellow"",""high nameability""]","4","high nameability","36","left","trigger",""
"html-button-response","176","192546","0.0-135.0-0.0","CAN_113","113","","","","","","586","<button class=""jspsych-btn""><img src=""stimuli/purple.png"" style=""width: 200px;height: 200px;""></button>","0","purple","yellow","[""purple"",""yellow"",""high nameability""]","left-right","[""purple"",""yellow"",""high nameability""]","4","high nameability","36","left","response","1"
"html-audio-button-response","177","192765","0.0-135.0-1.0","CAN_113","113","","","","","","null","stimuli/bleep.m4a","null","purple","yellow","[""purple"",""yellow"",""high nameability""]","left-right","[""purple"",""yellow"",""high nameability""]","4","high nameability","36","left","audio_feedback","1"
"html-button-response","178","193287","0.0-136.0","CAN_113","113","","","","","","null","<button class=""jspsych-btn""><img src=""stimuli/white_square.png"" style=""width: 200px;height: 200px;""></button>","null","purple","yellow","[""purple"",""yellow"",""high nameability""]","left-right","[""purple"",""yellow"",""high nameability""]","4","high nameability","36","left","iti",""
"html-button-response","179","193874","0.0-137.0","CAN_113","113","","","","","","568","","0","mustard","darkgreenblue","[""mustard"",""darkgreenblue"",""low nameability""]","left-right","[""mustard"",""darkgreenblue"",""low nameability""]","4","low nameability","37","left","trigger",""
"html-button-response","180","194456","0.0-138.0-0.0","CAN_113","113","","","","","","568","<button class=""jspsych-btn""><img src=""stimuli/mustard.png"" style=""width: 200px;height: 200px;""></button>","0","mustard","darkgreenblue","[""mustard"",""darkgreenblue"",""low nameability""]","left-right","[""mustard"",""darkgreenblue"",""low nameability""]","4","low nameability","37","left","response","1"
"html-audio-button-response","181","194676","0.0-138.0-1.0","CAN_113","113","","","","","","null","stimuli/bleep.m4a","null","mustard","darkgreenblue","[""mustard"",""darkgreenblue"",""low nameability""]","left-right","[""mustard"",""darkgreenblue"",""low nameability""]","4","low nameability","37","left","audio_feedback","1"
"html-button-response","182","195210","0.0-139.0","CAN_113","113","","","","","","null","<button class=""jspsych-btn""><img src=""stimuli/white_square.png"" style=""width: 200px;height: 200px;""></button>","null","mustard","darkgreenblue","[""mustard"",""darkgreenblue"",""low nameability""]","left-right","[""mustard"",""darkgreenblue"",""low nameability""]","4","low nameability","37","left","iti",""
"html-button-response","183","195890","0.0-140.0","CAN_113","113","","","","","","652","","0","turquoise","darkgreenblue","[""turquoise"",""darkgreenblue"",""low nameability""]","left-right","[""turquoise"",""darkgreenblue"",""low nameability""]","4","low nameability","38","left","trigger",""
"html-button-response","184","197229","0.0-141.0-0.0","CAN_113","113","","","","","","1326","<button class=""jspsych-btn""><img src=""stimuli/turquoise.png"" style=""width: 200px;height: 200px;""></button>","0","turquoise","darkgreenblue","[""turquoise"",""darkgreenblue"",""low nameability""]","left-right","[""turquoise"",""darkgreenblue"",""low nameability""]","4","low nameability","38","left","response","1"
"html-audio-button-response","185","197457","0.0-141.0-1.0","CAN_113","113","","","","","","null","stimuli/bleep.m4a","null","turquoise","darkgreenblue","[""turquoise"",""darkgreenblue"",""low nameability""]","left-right","[""turquoise"",""darkgreenblue"",""low nameability""]","4","low nameability","38","left","audio_feedback","1"
"html-button-response","186","197986","0.0-142.0","CAN_113","113","","","","","","null","<button class=""jspsych-btn""><img src=""stimuli/white_square.png"" style=""width: 200px;height: 200px;""></button>","null","turquoise","darkgreenblue","[""turquoise"",""darkgreenblue"",""low nameability""]","left-right","[""turquoise"",""darkgreenblue"",""low nameability""]","4","low nameability","38","left","iti",""
"html-button-response","187","198681","0.0-143.0","CAN_113","113","","","","","","677","","0","blue","orange","[""blue"",""orange"",""high nameability""]","left-right","[""blue"",""orange"",""high nameability""]","4","high nameability","39","left","trigger",""
"html-button-response","188","199361","0.0-144.0-0.0","CAN_113","113","","","","","","670","<button class=""jspsych-btn""><img src=""stimuli/blue.png"" style=""width: 200px;height: 200px;""></button>","0","blue","orange","[""blue"",""orange"",""high nameability""]","left-right","[""blue"",""orange"",""high nameability""]","4","high nameability","39","left","response","1"
"html-audio-button-response","189","199576","0.0-144.0-1.0","CAN_113","113","","","","","","null","stimuli/bleep.m4a","null","blue","orange","[""blue"",""orange"",""high nameability""]","left-right","[""blue"",""orange"",""high nameability""]","4","high nameability","39","left","audio_feedback","1"
"html-button-response","190","200101","0.0-145.0","CAN_113","113","","","","","","null","<button class=""jspsych-btn""><img src=""stimuli/white_square.png"" style=""width: 200px;height: 200px;""></button>","null","blue","orange","[""blue"",""orange"",""high nameability""]","left-right","[""blue"",""orange"",""high nameability""]","4","high nameability","39","left","iti",""
"html-button-response","191","200666","0.0-146.0","CAN_113","113","","","","","","541","","0","blue","yellow","[""blue"",""yellow"",""high nameability""]","left-right","[""blue"",""yellow"",""high nameability""]","4","high nameability","40","left","trigger",""
"html-button-response","192","201333","0.0-147.0-0.0","CAN_113","113","","","","","","655","<button class=""jspsych-btn""><img src=""stimuli/blue.png"" style=""width: 200px;height: 200px;""></button>","0","blue","yellow","[""blue"",""yellow"",""high nameability""]","left-right","[""blue"",""yellow"",""high nameability""]","4","high nameability","40","left","response","1"
"html-audio-button-response","193","201545","0.0-147.0-1.0","CAN_113","113","","","","","","null","stimuli/bleep.m4a","null","blue","yellow","[""blue"",""yellow"",""high nameability""]","left-right","[""blue"",""yellow"",""high nameability""]","4","high nameability","40","left","audio_feedback","1"
"html-button-response","194","202071","0.0-148.0","CAN_113","113","","","","","","null","<button class=""jspsych-btn""><img src=""stimuli/white_square.png"" style=""width: 200px;height: 200px;""></button>","null","blue","yellow","[""blue"",""yellow"",""high nameability""]","left-right","[""blue"",""yellow"",""high nameability""]","4","high nameability","40","left","iti",""
"pavlovia","195","202190","0.0-149.0","CAN_113","113","","","","","","","","","","","","","","","","","","",""
"pavlovia","196","202206","0.0-150.0","CAN_113","113","","","","","","","","","","","","","","","","","","",""
"html-audio-button-response","197","203720","0.0-151.0","CAN_113","113","","","","","","1648","stimuli/tada.m4a","0","","","","","","","","","","",""
"html-button-response","198","204472","0.0-152.0","CAN_113","113","","","","","","743","","0","","","","","","","","","","",""
"html-button-response","199","205230","0.0-153.0","CAN_113","113","","","","","","747","","0","pink","neonyellow","[""pink"",""neonyellow"",""low nameability""]","right-left","[""neonyellow"",""pink""]","5","low nameability","41","right","trigger",""
"html-button-response","200","205979","0.0-154.0-0.0","CAN_113","113","","","","","","738","<button class=""jspsych-btn""><img src=""stimuli/pink.png"" style=""width: 200px;height: 200px;""></button>","1","pink","neonyellow","[""pink"",""neonyellow"",""low nameability""]","right-left","[""neonyellow"",""pink""]","5","low nameability","41","right","response","1"
"html-audio-button-response","201","206183","0.0-154.0-1.0","CAN_113","113","","","","","","null","stimuli/bleep.m4a","null","pink","neonyellow","[""pink"",""neonyellow"",""low nameability""]","right-left","[""neonyellow"",""pink""]","5","low nameability","41","right","audio_feedback","1"
"html-button-response","202","206706","0.0-155.0","CAN_113","113","","","","","","null","<button class=""jspsych-btn""><img src=""stimuli/white_square.png"" style=""width: 200px;height: 200px;""></button>","null","pink","neonyellow","[""pink"",""neonyellow"",""low nameability""]","right-left","[""neonyellow"",""pink""]","5","low nameability","41","right","iti",""
"html-button-response","203","207332","0.0-156.0","CAN_113","113","","","","","","604","","0","orange","red","[""orange"",""red"",""high nameability""]","left-right","[""orange"",""red"",""high nameability""]","5","high nameability","42","left","trigger",""
"html-button-response","204","208018","0.0-157.0-0.0","CAN_113","113","","","","","","674","<button class=""jspsych-btn""><img src=""stimuli/orange.png"" style=""width: 200px;height: 200px;""></button>","0","orange","red","[""orange"",""red"",""high nameability""]","left-right","[""orange"",""red"",""high nameability""]","5","high nameability","42","left","response","1"
"html-audio-button-response","205","208230","0.0-157.0-1.0","CAN_113","113","","","","","","null","stimuli/bleep.m4a","null","orange","red","[""orange"",""red"",""high nameability""]","left-right","[""orange"",""red"",""high nameability""]","5","high nameability","42","left","audio_feedback","1"
"html-button-response","206","208760","0.0-158.0","CAN_113","113","","","","","","null","<button class=""jspsych-btn""><img src=""stimuli/white_square.png"" style=""width: 200px;height: 200px;""></button>","null","orange","red","[""orange"",""red"",""high nameability""]","left-right","[""orange"",""red"",""high nameability""]","5","high nameability","42","left","iti",""
"html-button-response","207","209290","0.0-159.0","CAN_113","113","","","","","","513","","0","pink","lightred","[""pink"",""lightred"",""low nameability""]","right-left","[""lightred"",""pink""]","5","low nameability","43","right","trigger",""
"html-button-response","208","209903","0.0-160.0-0.0","CAN_113","113","","","","","","603","<button class=""jspsych-btn""><img src=""stimuli/pink.png"" style=""width: 200px;height: 200px;""></button>","1","pink","lightred","[""pink"",""lightred"",""low nameability""]","right-left","[""lightred"",""pink""]","5","low nameability","43","right","response","1"
"html-audio-button-response","209","210118","0.0-160.0-1.0","CAN_113","113","","","","","","null","stimuli/bleep.m4a","null","pink","lightred","[""pink"",""lightred"",""low nameability""]","right-left","[""lightred"",""pink""]","5","low nameability","43","right","audio_feedback","1"
"html-button-response","210","210639","0.0-161.0","CAN_113","113","","","","","","null","<button class=""jspsych-btn""><img src=""stimuli/white_square.png"" style=""width: 200px;height: 200px;""></button>","null","pink","lightred","[""pink"",""lightred"",""low nameability""]","right-left","[""lightred"",""pink""]","5","low nameability","43","right","iti",""
"html-button-response","211","211155","0.0-162.0","CAN_113","113","","","","","","499","","0","darkgreenblue","turquoise","[""darkgreenblue"",""turquoise"",""low nameability""]","right-left","[""turquoise"",""darkgreenblue""]","5","low nameability","44","right","trigger",""
"html-button-response","212","211825","0.0-163.0-0.0","CAN_113","113","","","","","","657","<button class=""jspsych-btn""><img src=""stimuli/darkgreenblue.png"" style=""width: 200px;height: 200px;""></button>","1","darkgreenblue","turquoise","[""darkgreenblue"",""turquoise"",""low nameability""]","right-left","[""turquoise"",""darkgreenblue""]","5","low nameability","44","right","response","1"
"html-audio-button-response","213","212035","0.0-163.0-1.0","CAN_113","113","","","","","","null","stimuli/bleep.m4a","null","darkgreenblue","turquoise","[""darkgreenblue"",""turquoise"",""low nameability""]","right-left","[""turquoise"",""darkgreenblue""]","5","low nameability","44","right","audio_feedback","1"
"html-button-response","214","212553","0.0-164.0","CAN_113","113","","","","","","null","<button class=""jspsych-btn""><img src=""stimuli/white_square.png"" style=""width: 200px;height: 200px;""></button>","null","darkgreenblue","turquoise","[""darkgreenblue"",""turquoise"",""low nameability""]","right-left","[""turquoise"",""darkgreenblue""]","5","low nameability","44","right","iti",""
"html-button-response","215","213191","0.0-165.0","CAN_113","113","","","","","","621","","0","yellow","purple","[""yellow"",""purple"",""high nameability""]","left-right","[""yellow"",""purple"",""high nameability""]","5","high nameability","45","left","trigger",""
"html-button-response","216","213881","0.0-166.0-0.0","CAN_113","113","","","","","","681","<button class=""jspsych-btn""><img src=""stimuli/yellow.png"" style=""width: 200px;height: 200px;""></button>","0","yellow","purple","[""yellow"",""purple"",""high nameability""]","left-right","[""yellow"",""purple"",""high nameability""]","5","high nameability","45","left","response","1"
"html-audio-button-response","217","214091","0.0-166.0-1.0","CAN_113","113","","","","","","null","stimuli/bleep.m4a","null","yellow","purple","[""yellow"",""purple"",""high nameability""]","left-right","[""yellow"",""purple"",""high nameability""]","5","high nameability","45","left","audio_feedback","1"
"html-button-response","218","214607","0.0-167.0","CAN_113","113","","","","","","null","<button class=""jspsych-btn""><img src=""stimuli/white_square.png"" style=""width: 200px;height: 200px;""></button>","null","yellow","purple","[""yellow"",""purple"",""high nameability""]","left-right","[""yellow"",""purple"",""high nameability""]","5","high nameability","45","left","iti",""
"html-button-response","219","215222","0.0-168.0","CAN_113","113","","","","","","597","","0","neonyellow","pink","[""neonyellow"",""pink"",""low nameability""]","left-right","[""neonyellow"",""pink"",""low nameability""]","5","low nameability","46","left","trigger",""
"html-button-response","220","215898","0.0-169.0-0.0","CAN_113","113","","","","","","667","<button class=""jspsych-btn""><img src=""stimuli/neonyellow.png"" style=""width: 200px;height: 200px;""></button>","0","neonyellow","pink","[""neonyellow"",""pink"",""low nameability""]","left-right","[""neonyellow"",""pink"",""low nameability""]","5","low nameability","46","left","response","1"
"html-audio-button-response","221","216109","0.0-169.0-1.0","CAN_113","113","","","","","","null","stimuli/bleep.m4a","null","neonyellow","pink","[""neonyellow"",""pink"",""low nameability""]","left-right","[""neonyellow"",""pink"",""low nameability""]","5","low nameability","46","left","audio_feedback","1"
"html-button-response","222","216621","0.0-170.0","CAN_113","113","","","","","","null","<button class=""jspsych-btn""><img src=""stimuli/white_square.png"" style=""width: 200px;height: 200px;""></button>","null","neonyellow","pink","[""neonyellow"",""pink"",""low nameability""]","left-right","[""neonyellow"",""pink"",""low nameability""]","5","low nameability","46","left","iti",""
"html-button-response","223","217229","0.0-171.0","CAN_113","113","","","","","","584","","0","darkgreenblue","lightred","[""darkgreenblue"",""lightred"",""low nameability""]","left-right","[""darkgreenblue"",""lightred"",""low nameability""]","5","low nameability","47","left","trigger",""
"html-button-response","224","217914","0.0-172.0-0.0","CAN_113","113","","","","","","671","<button class=""jspsych-btn""><img src=""stimuli/darkgreenblue.png"" style=""width: 200px;height: 200px;""></button>","0","darkgreenblue","lightred","[""darkgreenblue"",""lightred"",""low nameability""]","left-right","[""darkgreenblue"",""lightred"",""low nameability""]","5","low nameability","47","left","response","1"
"html-audio-button-response","225","218119","0.0-172.0-1.0","CAN_113","113","","","","","","null","stimuli/bleep.m4a","null","darkgreenblue","lightred","[""darkgreenblue"",""lightred"",""low nameability""]","left-right","[""darkgreenblue"",""lightred"",""low nameability""]","5","low nameability","47","left","audio_feedback","1"
"html-button-response","226","218642","0.0-173.0","CAN_113","113","","","","","","null","<button class=""jspsych-btn""><img src=""stimuli/white_square.png"" style=""width: 200px;height: 200px;""></button>","null","darkgreenblue","lightred","[""darkgreenblue"",""lightred"",""low nameability""]","left-right","[""darkgreenblue"",""lightred"",""low nameability""]","5","low nameability","47","left","iti",""
"html-button-response","227","219243","0.0-174.0","CAN_113","113","","","","","","584","","0","lightred","turquoise","[""lightred"",""turquoise"",""low nameability""]","right-left","[""turquoise"",""lightred""]","5","low nameability","48","right","trigger",""
"html-button-response","228","219768","0.0-175.0-0.0","CAN_113","113","","","","","","518","<button class=""jspsych-btn""><img src=""stimuli/lightred.png"" style=""width: 200px;height: 200px;""></button>","1","lightred","turquoise","[""lightred"",""turquoise"",""low nameability""]","right-left","[""turquoise"",""lightred""]","5","low nameability","48","right","response","1"
"html-audio-button-response","229","219974","0.0-175.0-1.0","CAN_113","113","","","","","","null","stimuli/bleep.m4a","null","lightred","turquoise","[""lightred"",""turquoise"",""low nameability""]","right-left","[""turquoise"",""lightred""]","5","low nameability","48","right","audio_feedback","1"
"html-button-response","230","220494","0.0-176.0","CAN_113","113","","","","","","null","<button class=""jspsych-btn""><img src=""stimuli/white_square.png"" style=""width: 200px;height: 200px;""></button>","null","lightred","turquoise","[""lightred"",""turquoise"",""low nameability""]","right-left","[""turquoise"",""lightred""]","5","low nameability","48","right","iti",""
"html-button-response","231","221061","0.0-177.0","CAN_113","113","","","","","","551","","0","yellow","orange","[""yellow"",""orange"",""high nameability""]","left-right","[""yellow"",""orange"",""high nameability""]","5","high nameability","49","left","trigger",""
"html-button-response","232","221739","0.0-178.0-0.0","CAN_113","113","","","","","","670","<button class=""jspsych-btn""><img src=""stimuli/yellow.png"" style=""width: 200px;height: 200px;""></button>","0","yellow","orange","[""yellow"",""orange"",""high nameability""]","left-right","[""yellow"",""orange"",""high nameability""]","5","high nameability","49","left","response","1"
"html-audio-button-response","233","221947","0.0-178.0-1.0","CAN_113","113","","","","","","null","stimuli/bleep.m4a","null","yellow","orange","[""yellow"",""orange"",""high nameability""]","left-right","[""yellow"",""orange"",""high nameability""]","5","high nameability","49","left","audio_feedback","1"
"html-button-response","234","222470","0.0-179.0","CAN_113","113","","","","","","null","<button class=""jspsych-btn""><img src=""stimuli/white_square.png"" style=""width: 200px;height: 200px;""></button>","null","yellow","orange","[""yellow"",""orange"",""high nameability""]","left-right","[""yellow"",""orange"",""high nameability""]","5","high nameability","49","left","iti",""
"html-button-response","235","223068","0.0-180.0","CAN_113","113","","","","","","580","","0","brown","blue","[""brown"",""blue"",""high nameability""]","right-left","[""blue"",""brown""]","5","high nameability","50","right","trigger",""
"html-button-response","236","223632","0.0-181.0-0.0","CAN_113","113","","","","","","554","<button class=""jspsych-btn""><img src=""stimuli/brown.png"" style=""width: 200px;height: 200px;""></button>","1","brown","blue","[""brown"",""blue"",""high nameability""]","right-left","[""blue"",""brown""]","5","high nameability","50","right","response","1"
"html-audio-button-response","237","223847","0.0-181.0-1.0","CAN_113","113","","","","","","null","stimuli/bleep.m4a","null","brown","blue","[""brown"",""blue"",""high nameability""]","right-left","[""blue"",""brown""]","5","high nameability","50","right","audio_feedback","1"
"html-button-response","238","224362","0.0-182.0","CAN_113","113","","","","","","null","<button class=""jspsych-btn""><img src=""stimuli/white_square.png"" style=""width: 200px;height: 200px;""></button>","null","brown","blue","[""brown"",""blue"",""high nameability""]","right-left","[""blue"",""brown""]","5","high nameability","50","right","iti",""
"pavlovia","239","224448","0.0-183.0","CAN_113","113","","","","","","","","","","","","","","","","","","",""
"pavlovia","240","224457","0.0-184.0","CAN_113","113","","","","","","","","","","","","","","","","","","",""
"html-audio-button-response","241","227583","0.0-185.0","CAN_113","113","","","","","","3208","stimuli/tada.m4a","0","","","","","","","","","","",""
"html-button-response","242","228140","0.0-186.0","CAN_113","113","","","","","","546","","0","","","","","","","","","","",""
"html-button-response","243","228886","0.0-187.0","CAN_113","113","","","","","","734","","0","purple","orange","[""purple"",""orange"",""high nameability""]","right-left","[""orange"",""purple""]","6","high nameability","51","right","trigger",""
"html-button-response","244","229445","0.0-188.0-0.0","CAN_113","113","","","","","","548","<button class=""jspsych-btn""><img src=""stimuli/purple.png"" style=""width: 200px;height: 200px;""></button>","1","purple","orange","[""purple"",""orange"",""high nameability""]","right-left","[""orange"",""purple""]","6","high nameability","51","right","response","1"
"html-audio-button-response","245","229657","0.0-188.0-1.0","CAN_113","113","","","","","","null","stimuli/bleep.m4a","null","purple","orange","[""purple"",""orange"",""high nameability""]","right-left","[""orange"",""purple""]","6","high nameability","51","right","audio_feedback","1"
"html-button-response","246","230177","0.0-189.0","CAN_113","113","","","","","","null","<button class=""jspsych-btn""><img src=""stimuli/white_square.png"" style=""width: 200px;height: 200px;""></button>","null","purple","orange","[""purple"",""orange"",""high nameability""]","right-left","[""orange"",""purple""]","6","high nameability","51","right","iti",""
"html-button-response","247","230696","0.0-190.0","CAN_113","113","","","","","","500","","0","purple","brown","[""purple"",""brown"",""high nameability""]","left-right","[""purple"",""brown"",""high nameability""]","6","high nameability","52","left","trigger",""
"html-button-response","248","231372","0.0-191.0-0.0","CAN_113","113","","","","","","669","<button class=""jspsych-btn""><img src=""stimuli/purple.png"" style=""width: 200px;height: 200px;""></button>","0","purple","brown","[""purple"",""brown"",""high nameability""]","left-right","[""purple"",""brown"",""high nameability""]","6","high nameability","52","left","response","1"
"html-audio-button-response","249","231579","0.0-191.0-1.0","CAN_113","113","","","","","","null","stimuli/bleep.m4a","null","purple","brown","[""purple"",""brown"",""high nameability""]","left-right","[""purple"",""brown"",""high nameability""]","6","high nameability","52","left","audio_feedback","1"
"html-button-response","250","232096","0.0-192.0","CAN_113","113","","","","","","null","<button class=""jspsych-btn""><img src=""stimuli/white_square.png"" style=""width: 200px;height: 200px;""></button>","null","purple","brown","[""purple"",""brown"",""high nameability""]","left-right","[""purple"",""brown"",""high nameability""]","6","high nameability","52","left","iti",""
"html-button-response","251","232743","0.0-193.0","CAN_113","113","","","","","","629","","0","red","yellow","[""red"",""yellow"",""high nameability""]","left-right","[""red"",""yellow"",""high nameability""]","6","high nameability","53","left","trigger",""
"html-button-response","252","233407","0.0-194.0-0.0","CAN_113","113","","","","","","654","<button class=""jspsych-btn""><img src=""stimuli/red.png"" style=""width: 200px;height: 200px;""></button>","0","red","yellow","[""red"",""yellow"",""high nameability""]","left-right","[""red"",""yellow"",""high nameability""]","6","high nameability","53","left","response","1"
"html-audio-button-response","253","233614","0.0-194.0-1.0","CAN_113","113","","","","","","null","stimuli/bleep.m4a","null","red","yellow","[""red"",""yellow"",""high nameability""]","left-right","[""red"",""yellow"",""high nameability""]","6","high nameability","53","left","audio_feedback","1"
"html-button-response","254","234136","0.0-195.0","CAN_113","113","","","","","","null","<button class=""jspsych-btn""><img src=""stimuli/white_square.png"" style=""width: 200px;height: 200px;""></button>","null","red","yellow","[""red"",""yellow"",""high nameability""]","left-right","[""red"",""yellow"",""high nameability""]","6","high nameability","53","left","iti",""
"html-button-response","255","234735","0.0-196.0","CAN_113","113","","","","","","579","","0","orange","yellow","[""orange"",""yellow"",""high nameability""]","right-left","[""yellow"",""orange""]","6","high nameability","54","right","trigger",""
"html-button-response","256","235317","0.0-197.0-0.0","CAN_113","113","","","","","","568","<button class=""jspsych-btn""><img src=""stimuli/orange.png"" style=""width: 200px;height: 200px;""></button>","1","orange","yellow","[""orange"",""yellow"",""high nameability""]","right-left","[""yellow"",""orange""]","6","high nameability","54","right","response","1"
"html-audio-button-response","257","235531","0.0-197.0-1.0","CAN_113","113","","","","","","null","stimuli/bleep.m4a","null","orange","yellow","[""orange"",""yellow"",""high nameability""]","right-left","[""yellow"",""orange""]","6","high nameability","54","right","audio_feedback","1"
"html-button-response","258","236055","0.0-198.0","CAN_113","113","","","","","","null","<button class=""jspsych-btn""><img src=""stimuli/white_square.png"" style=""width: 200px;height: 200px;""></button>","null","orange","yellow","[""orange"",""yellow"",""high nameability""]","right-left","[""yellow"",""orange""]","6","high nameability","54","right","iti",""
"html-button-response","259","236626","0.0-199.0","CAN_113","113","","","","","","551","","0","neonyellow","lightred","[""neonyellow"",""lightred"",""low nameability""]","right-left","[""lightred"",""neonyellow""]","6","low nameability","55","right","trigger",""
"html-button-response","260","237240","0.0-200.0-0.0","CAN_113","113","","","","","","605","<button class=""jspsych-btn""><img src=""stimuli/neonyellow.png"" style=""width: 200px;height: 200px;""></button>","1","neonyellow","lightred","[""neonyellow"",""lightred"",""low nameability""]","right-left","[""lightred"",""neonyellow""]","6","low nameability","55","right","response","1"
"html-audio-button-response","261","237459","0.0-200.0-1.0","CAN_113","113","","","","","","null","stimuli/bleep.m4a","null","neonyellow","lightred","[""neonyellow"",""lightred"",""low nameability""]","right-left","[""lightred"",""neonyellow""]","6","low nameability","55","right","audio_feedback","1"
"html-button-response","262","237978","0.0-201.0","CAN_113","113","","","","","","null","<button class=""jspsych-btn""><img src=""stimuli/white_square.png"" style=""width: 200px;height: 200px;""></button>","null","neonyellow","lightred","[""neonyellow"",""lightred"",""low nameability""]","right-left","[""lightred"",""neonyellow""]","6","low nameability","55","right","iti",""
"html-button-response","263","238476","0.0-202.0","CAN_113","113","","","","","","478","","0","neonyellow","turquoise","[""neonyellow"",""turquoise"",""low nameability""]","left-right","[""neonyellow"",""turquoise"",""low nameability""]","6","low nameability","56","left","trigger",""
"html-button-response","264","239075","0.0-203.0-0.0","CAN_113","113","","","","","","589","<button class=""jspsych-btn""><img src=""stimuli/neonyellow.png"" style=""width: 200px;height: 200px;""></button>","0","neonyellow","turquoise","[""neonyellow"",""turquoise"",""low nameability""]","left-right","[""neonyellow"",""turquoise"",""low nameability""]","6","low nameability","56","left","response","1"
"html-audio-button-response","265","239282","0.0-203.0-1.0","CAN_113","113","","","","","","null","stimuli/bleep.m4a","null","neonyellow","turquoise","[""neonyellow"",""turquoise"",""low nameability""]","left-right","[""neonyellow"",""turquoise"",""low nameability""]","6","low nameability","56","left","audio_feedback","1"
"html-button-response","266","239799","0.0-204.0","CAN_113","113","","","","","","null","<button class=""jspsych-btn""><img src=""stimuli/white_square.png"" style=""width: 200px;height: 200px;""></button>","null","neonyellow","turquoise","[""neonyellow"",""turquoise"",""low nameability""]","left-right","[""neonyellow"",""turquoise"",""low nameability""]","6","low nameability","56","left","iti",""
"html-button-response","267","240295","0.0-205.0","CAN_113","113","","","","","","477","","0","orange","purple","[""orange"",""purple"",""high nameability""]","left-right","[""orange"",""purple"",""high nameability""]","6","high nameability","57","left","trigger",""
"html-button-response","268","240959","0.0-206.0-0.0","CAN_113","113","","","","","","657","<button class=""jspsych-btn""><img src=""stimuli/orange.png"" style=""width: 200px;height: 200px;""></button>","0","orange","purple","[""orange"",""purple"",""high nameability""]","left-right","[""orange"",""purple"",""high nameability""]","6","high nameability","57","left","response","1"
"html-audio-button-response","269","241172","0.0-206.0-1.0","CAN_113","113","","","","","","null","stimuli/bleep.m4a","null","orange","purple","[""orange"",""purple"",""high nameability""]","left-right","[""orange"",""purple"",""high nameability""]","6","high nameability","57","left","audio_feedback","1"
"html-button-response","270","241705","0.0-207.0","CAN_113","113","","","","","","null","<button class=""jspsych-btn""><img src=""stimuli/white_square.png"" style=""width: 200px;height: 200px;""></button>","null","orange","purple","[""orange"",""purple"",""high nameability""]","left-right","[""orange"",""purple"",""high nameability""]","6","high nameability","57","left","iti",""
"html-button-response","271","242414","0.0-208.0","CAN_113","113","","","","","","676","","0","brown","red","[""brown"",""red"",""high nameability""]","right-left","[""red"",""brown""]","6","high nameability","58","right","trigger",""
"html-button-response","272","243092","0.0-209.0-0.0","CAN_113","113","","","","","","669","<button class=""jspsych-btn""><img src=""stimuli/brown.png"" style=""width: 200px;height: 200px;""></button>","1","brown","red","[""brown"",""red"",""high nameability""]","right-left","[""red"",""brown""]","6","high nameability","58","right","response","1"
"html-audio-button-response","273","243302","0.0-209.0-1.0","CAN_113","113","","","","","","null","stimuli/bleep.m4a","null","brown","red","[""brown"",""red"",""high nameability""]","right-left","[""red"",""brown""]","6","high nameability","58","right","audio_feedback","1"
"html-button-response","274","243826","0.0-210.0","CAN_113","113","","","","","","null","<button class=""jspsych-btn""><img src=""stimuli/white_square.png"" style=""width: 200px;height: 200px;""></button>","null","brown","red","[""brown"",""red"",""high nameability""]","right-left","[""red"",""brown""]","6","high nameability","58","right","iti",""
"html-button-response","275","244591","0.0-211.0","CAN_113","113","","","","","","749","","0","lightred","neonyellow","[""lightred"",""neonyellow"",""low nameability""]","left-right","[""lightred"",""neonyellow"",""low nameability""]","6","low nameability","59","left","trigger",""
"html-button-response","276","245238","0.0-212.0-0.0","CAN_113","113","","","","","","640","<button class=""jspsych-btn""><img src=""stimuli/lightred.png"" style=""width: 200px;height: 200px;""></button>","0","lightred","neonyellow","[""lightred"",""neonyellow"",""low nameability""]","left-right","[""lightred"",""neonyellow"",""low nameability""]","6","low nameability","59","left","response","1"
"html-audio-button-response","277","245455","0.0-212.0-1.0","CAN_113","113","","","","","","null","stimuli/bleep.m4a","null","lightred","neonyellow","[""lightred"",""neonyellow"",""low nameability""]","left-right","[""lightred"",""neonyellow"",""low nameability""]","6","low nameability","59","left","audio_feedback","1"
"html-button-response","278","245972","0.0-213.0","CAN_113","113","","","","","","null","<button class=""jspsych-btn""><img src=""stimuli/white_square.png"" style=""width: 200px;height: 200px;""></button>","null","lightred","neonyellow","[""lightred"",""neonyellow"",""low nameability""]","left-right","[""lightred"",""neonyellow"",""low nameability""]","6","low nameability","59","left","iti",""
"html-button-response","279","246540","0.0-214.0","CAN_113","113","","","","","","548","","0","pink","darkgreenblue","[""pink"",""darkgreenblue"",""low nameability""]","left-right","[""pink"",""darkgreenblue"",""low nameability""]","6","low nameability","60","left","trigger",""
"html-button-response","280","247207","0.0-215.0-0.0","CAN_113","113","","","","","","658","<button class=""jspsych-btn""><img src=""stimuli/pink.png"" style=""width: 200px;height: 200px;""></button>","0","pink","darkgreenblue","[""pink"",""darkgreenblue"",""low nameability""]","left-right","[""pink"",""darkgreenblue"",""low nameability""]","6","low nameability","60","left","response","1"
"html-audio-button-response","281","247415","0.0-215.0-1.0","CAN_113","113","","","","","","null","stimuli/bleep.m4a","null","pink","darkgreenblue","[""pink"",""darkgreenblue"",""low nameability""]","left-right","[""pink"",""darkgreenblue"",""low nameability""]","6","low nameability","60","left","audio_feedback","1"
"html-button-response","282","247941","0.0-216.0","CAN_113","113","","","","","","null","<button class=""jspsych-btn""><img src=""stimuli/white_square.png"" style=""width: 200px;height: 200px;""></button>","null","pink","darkgreenblue","[""pink"",""darkgreenblue"",""low nameability""]","left-right","[""pink"",""darkgreenblue"",""low nameability""]","6","low nameability","60","left","iti",""
