"trial_type","trial_index","time_elapsed","internal_node_id","subject_id","seed","success","timeout","failed_images","failed_audio","failed_video","rt","stimulus","response","target","foil","choices","combination_order","choices_in_order","round","condition","trial_counter","target_location","trial_kind","correct"
"pavlovia","0","25","0.0-0.0","CAN_136","136","","","","","","","","","","","","","","","","","","",""
"preload","1","740","0.0-1.0","CAN_136","136","true","false","[]","[]","[]","","","","","","","","","","","","","",""
"fullscreen","2","3371","0.0-2.0","CAN_136","136","true","","","","","","","","","","","","","","","","","",""
"html-button-response","3","73318","0.0-3.0","CAN_136","136","","","","","","69925","","0","","","","","","","","","","",""
"html-button-response","4","75854","0.0-4.0","CAN_136","136","","","","","","2523","","0","star","square","[""square"",""star""]","left-right","[""square"",""star""]","1","practice","1","right","trigger",""
"html-button-response","5","78564","0.0-5.0-0.0","CAN_136","136","","","","","","2698","<button class=""jspsych-btn""><img src=""stimuli/star.png"" style=""width: 200px;height: 200px;""></button>","1","star","square","[""square"",""star""]","left-right","[""square"",""star""]","1","practice","1","right","response","1"
"html-audio-button-response","6","78775","0.0-5.0-1.0","CAN_136","136","","","","","","null","stimuli/bleep.m4a","null","star","square","[""square"",""star""]","left-right","[""square"",""star""]","1","practice","1","right","audio_feedback","1"
"html-button-response","7","79305","0.0-6.0","CAN_136","136","","","","","","null","<button class=""jspsych-btn""><img src=""stimuli/white_square.png"" style=""width: 200px;height: 200px;""></button>","null","star","square","[""square"",""star""]","left-right","[""square"",""star""]","1","practice","1","right","iti",""
"html-button-response","8","80466","0.0-7.0","CAN_136","136","","","","","","1141","","0","triangle","pentagram","[""triangle"",""pentagram""]","left-right","[""triangle"",""pentagram""]","1","practice","1","left","trigger",""
"html-button-response","9","82456","0.0-8.0-0.0","CAN_136","136","","","","","","1973","<button class=""jspsych-btn""><img src=""stimuli/triangle.png"" style=""width: 200px;height: 200px;""></button>","0","triangle","pentagram","[""triangle"",""pentagram""]","left-right","[""triangle"",""pentagram""]","1","practice","1","left","response","1"
"html-audio-button-response","10","82672","0.0-8.0-1.0","CAN_136","136","","","","","","null","stimuli/bleep.m4a","null","triangle","pentagram","[""triangle"",""pentagram""]","left-right","[""triangle"",""pentagram""]","1","practice","1","left","audio_feedback","1"
"html-button-response","11","83198","0.0-9.0","CAN_136","136","","","","","","null","<button class=""jspsych-btn""><img src=""stimuli/white_square.png"" style=""width: 200px;height: 200px;""></button>","null","triangle","pentagram","[""triangle"",""pentagram""]","left-right","[""triangle"",""pentagram""]","1","practice","1","left","iti",""
"html-button-response","12","84154","0.0-10.0","CAN_136","136","","","","","","939","","0","diamond","rectangle","[""rectangle"",""diamond""]","left-right","[""rectangle"",""diamond""]","1","practice","1","right","trigger",""
"html-button-response","13","85915","0.0-11.0-0.0","CAN_136","136","","","","","","1754","<button class=""jspsych-btn""><img src=""stimuli/diamond.png"" style=""width: 200px;height: 200px;""></button>","1","diamond","rectangle","[""rectangle"",""diamond""]","left-right","[""rectangle"",""diamond""]","1","practice","1","right","response","1"
"html-audio-button-response","14","86125","0.0-11.0-1.0","CAN_136","136","","","","","","null","stimuli/bleep.m4a","null","diamond","rectangle","[""rectangle"",""diamond""]","left-right","[""rectangle"",""diamond""]","1","practice","1","right","audio_feedback","1"
"html-button-response","15","86643","0.0-12.0","CAN_136","136","","","","","","null","<button class=""jspsych-btn""><img src=""stimuli/white_square.png"" style=""width: 200px;height: 200px;""></button>","null","diamond","rectangle","[""rectangle"",""diamond""]","left-right","[""rectangle"",""diamond""]","1","practice","1","right","iti",""
"html-button-response","16","87462","0.0-13.0","CAN_136","136","","","","","","800","","0","pentagram","star","[""pentagram"",""star""]","left-right","[""pentagram"",""star""]","1","practice","1","left","trigger",""
"html-button-response","17","88265","0.0-14.0-0.0","CAN_136","136","","","","","","794","<button class=""jspsych-btn""><img src=""stimuli/pentagram.png"" style=""width: 200px;height: 200px;""></button>","0","pentagram","star","[""pentagram"",""star""]","left-right","[""pentagram"",""star""]","1","practice","1","left","response","1"
"html-audio-button-response","18","88474","0.0-14.0-1.0","CAN_136","136","","","","","","null","stimuli/bleep.m4a","null","pentagram","star","[""pentagram"",""star""]","left-right","[""pentagram"",""star""]","1","practice","1","left","audio_feedback","1"
"html-button-response","19","88995","0.0-15.0","CAN_136","136","","","","","","null","<button class=""jspsych-btn""><img src=""stimuli/white_square.png"" style=""width: 200px;height: 200px;""></button>","null","pentagram","star","[""pentagram"",""star""]","left-right","[""pentagram"",""star""]","1","practice","1","left","iti",""
"html-button-response","20","96689","0.0-16.0","CAN_136","136","","","","","","7679","","0","","","","","","","","","","",""
"html-button-response","21","97497","0.0-17.0","CAN_136","136","","","","","","795","","0","orange","red","[""orange"",""red"",""high nameability""]","right-left","[""red"",""orange""]","1","high nameability","1","right","trigger",""
"html-button-response","22","98255","0.0-18.0-0.0","CAN_136","136","","","","","","742","<button class=""jspsych-btn""><img src=""stimuli/orange.png"" style=""width: 200px;height: 200px;""></button>","1","orange","red","[""orange"",""red"",""high nameability""]","right-left","[""red"",""orange""]","1","high nameability","1","right","response","1"
"html-audio-button-response","23","98462","0.0-18.0-1.0","CAN_136","136","","","","","","null","stimuli/bleep.m4a","null","orange","red","[""orange"",""red"",""high nameability""]","right-left","[""red"",""orange""]","1","high nameability","1","right","audio_feedback","1"
"html-button-response","24","98996","0.0-19.0","CAN_136","136","","","","","","null","<button class=""jspsych-btn""><img src=""stimuli/white_square.png"" style=""width: 200px;height: 200px;""></button>","null","orange","red","[""orange"",""red"",""high nameability""]","right-left","[""red"",""orange""]","1","high nameability","1","right","iti",""
"html-button-response","25","99198","0.0-20.0","CAN_136","136","","","","","","173","","0","turquoise","lightred","[""turquoise"",""lightred"",""low nameability""]","right-left","[""lightred"",""turquoise""]","1","low nameability","2","right","trigger",""
"html-button-response","26","99967","0.0-21.0-0.0","CAN_136","136","","","","","","761","<button class=""jspsych-btn""><img src=""stimuli/turquoise.png"" style=""width: 200px;height: 200px;""></button>","1","turquoise","lightred","[""turquoise"",""lightred"",""low nameability""]","right-left","[""lightred"",""turquoise""]","1","low nameability","2","right","response","1"
"html-audio-button-response","27","100174","0.0-21.0-1.0","CAN_136","136","","","","","","null","stimuli/bleep.m4a","null","turquoise","lightred","[""turquoise"",""lightred"",""low nameability""]","right-left","[""lightred"",""turquoise""]","1","low nameability","2","right","audio_feedback","1"
"html-button-response","28","100691","0.0-22.0","CAN_136","136","","","","","","null","<button class=""jspsych-btn""><img src=""stimuli/white_square.png"" style=""width: 200px;height: 200px;""></button>","null","turquoise","lightred","[""turquoise"",""lightred"",""low nameability""]","right-left","[""lightred"",""turquoise""]","1","low nameability","2","right","iti",""
"html-button-response","29","101130","0.0-23.0","CAN_136","136","","","","","","413","","0","mustard","turquoise","[""mustard"",""turquoise"",""low nameability""]","left-right","[""mustard"",""turquoise"",""low nameability""]","1","low nameability","3","left","trigger",""
"html-button-response","30","102341","0.0-24.0-0.0","CAN_136","136","","","","","","1197","<button class=""jspsych-btn""><img src=""stimuli/mustard.png"" style=""width: 200px;height: 200px;""></button>","0","mustard","turquoise","[""mustard"",""turquoise"",""low nameability""]","left-right","[""mustard"",""turquoise"",""low nameability""]","1","low nameability","3","left","response","1"
"html-audio-button-response","31","102548","0.0-24.0-1.0","CAN_136","136","","","","","","null","stimuli/bleep.m4a","null","mustard","turquoise","[""mustard"",""turquoise"",""low nameability""]","left-right","[""mustard"",""turquoise"",""low nameability""]","1","low nameability","3","left","audio_feedback","1"
"html-button-response","32","103066","0.0-25.0","CAN_136","136","","","","","","null","<button class=""jspsych-btn""><img src=""stimuli/white_square.png"" style=""width: 200px;height: 200px;""></button>","null","mustard","turquoise","[""mustard"",""turquoise"",""low nameability""]","left-right","[""mustard"",""turquoise"",""low nameability""]","1","low nameability","3","left","iti",""
"html-button-response","33","103550","0.0-26.0","CAN_136","136","","","","","","468","","0","orange","blue","[""orange"",""blue"",""high nameability""]","right-left","[""blue"",""orange""]","1","high nameability","4","right","trigger",""
"html-button-response","34","104262","0.0-27.0-0.0","CAN_136","136","","","","","","703","<button class=""jspsych-btn""><img src=""stimuli/orange.png"" style=""width: 200px;height: 200px;""></button>","1","orange","blue","[""orange"",""blue"",""high nameability""]","right-left","[""blue"",""orange""]","1","high nameability","4","right","response","1"
"html-audio-button-response","35","104465","0.0-27.0-1.0","CAN_136","136","","","","","","null","stimuli/bleep.m4a","null","orange","blue","[""orange"",""blue"",""high nameability""]","right-left","[""blue"",""orange""]","1","high nameability","4","right","audio_feedback","1"
"html-button-response","36","104984","0.0-28.0","CAN_136","136","","","","","","null","<button class=""jspsych-btn""><img src=""stimuli/white_square.png"" style=""width: 200px;height: 200px;""></button>","null","orange","blue","[""orange"",""blue"",""high nameability""]","right-left","[""blue"",""orange""]","1","high nameability","4","right","iti",""
"html-button-response","37","105442","0.0-29.0","CAN_136","136","","","","","","440","","0","purple","orange","[""purple"",""orange"",""high nameability""]","right-left","[""orange"",""purple""]","1","high nameability","5","right","trigger",""
"html-button-response","38","106150","0.0-30.0-0.0","CAN_136","136","","","","","","700","<button class=""jspsych-btn""><img src=""stimuli/purple.png"" style=""width: 200px;height: 200px;""></button>","1","purple","orange","[""purple"",""orange"",""high nameability""]","right-left","[""orange"",""purple""]","1","high nameability","5","right","response","1"
"html-audio-button-response","39","106356","0.0-30.0-1.0","CAN_136","136","","","","","","null","stimuli/bleep.m4a","null","purple","orange","[""purple"",""orange"",""high nameability""]","right-left","[""orange"",""purple""]","1","high nameability","5","right","audio_feedback","1"
"html-button-response","40","106876","0.0-31.0","CAN_136","136","","","","","","null","<button class=""jspsych-btn""><img src=""stimuli/white_square.png"" style=""width: 200px;height: 200px;""></button>","null","purple","orange","[""purple"",""orange"",""high nameability""]","right-left","[""orange"",""purple""]","1","high nameability","5","right","iti",""
"html-button-response","41","107327","0.0-32.0","CAN_136","136","","","","","","434","","0","blue","red","[""blue"",""red"",""high nameability""]","left-right","[""blue"",""red"",""high nameability""]","1","high nameability","6","left","trigger",""
"html-button-response","42","108040","0.0-33.0-0.0","CAN_136","136","","","","","","705","<button class=""jspsych-btn""><img src=""stimuli/blue.png"" style=""width: 200px;height: 200px;""></button>","0","blue","red","[""blue"",""red"",""high nameability""]","left-right","[""blue"",""red"",""high nameability""]","1","high nameability","6","left","response","1"
"html-audio-button-response","43","108247","0.0-33.0-1.0","CAN_136","136","","","","","","null","stimuli/bleep.m4a","null","blue","red","[""blue"",""red"",""high nameability""]","left-right","[""blue"",""red"",""high nameability""]","1","high nameability","6","left","audio_feedback","1"
"html-button-response","44","108768","0.0-34.0","CAN_136","136","","","","","","null","<button class=""jspsych-btn""><img src=""stimuli/white_square.png"" style=""width: 200px;height: 200px;""></button>","null","blue","red","[""blue"",""red"",""high nameability""]","left-right","[""blue"",""red"",""high nameability""]","1","high nameability","6","left","iti",""
"html-button-response","45","109283","0.0-35.0","CAN_136","136","","","","","","494","","0","turquoise","pink","[""turquoise"",""pink"",""low nameability""]","left-right","[""turquoise"",""pink"",""low nameability""]","1","low nameability","7","left","trigger",""
"html-button-response","46","109967","0.0-36.0-0.0","CAN_136","136","","","","","","676","<button class=""jspsych-btn""><img src=""stimuli/turquoise.png"" style=""width: 200px;height: 200px;""></button>","0","turquoise","pink","[""turquoise"",""pink"",""low nameability""]","left-right","[""turquoise"",""pink"",""low nameability""]","1","low nameability","7","left","response","1"
"html-audio-button-response","47","110182","0.0-36.0-1.0","CAN_136","136","","","","","","null","stimuli/bleep.m4a","null","turquoise","pink","[""turquoise"",""pink"",""low nameability""]","left-right","[""turquoise"",""pink"",""low nameability""]","1","low nameability","7","left","audio_feedback","1"
"html-button-response","48","110699","0.0-37.0","CAN_136","136","","","","","","null","<button class=""jspsych-btn""><img src=""stimuli/white_square.png"" style=""width: 200px;height: 200px;""></button>","null","turquoise","pink","[""turquoise"",""pink"",""low nameability""]","left-right","[""turquoise"",""pink"",""low nameability""]","1","low nameability","7","left","iti",""
"html-button-response","49","111269","0.0-38.0","CAN_136","136","","","","","","544","","0","lightred","neonyellow","[""lightred"",""neonyellow"",""low nameability""]","left-right","[""lightred"",""neonyellow"",""low nameability""]","1","low nameability","8","left","trigger",""
"html-button-response","50","111950","0.0-39.0-0.0","CAN_136","136","","","","","","672","<button class=""jspsych-btn""><img src=""stimuli/lightred.png"" style=""width: 200px;height: 200px;""></button>","0","lightred","neonyellow","[""lightred"",""neonyellow"",""low nameability""]","left-right","[""lightred"",""neonyellow"",""low nameability""]","1","low nameability","8","left","response","1"
"html-audio-button-response","51","112165","0.0-39.0-1.0","CAN_136","136","","","","","","null","stimuli/bleep.m4a","null","lightred","neonyellow","[""lightred"",""neonyellow"",""low nameability""]","left-right","[""lightred"",""neonyellow"",""low nameability""]","1","low nameability","8","left","audio_feedback","1"
"html-button-response","52","112682","0.0-40.0","CAN_136","136","","","","","","null","<button class=""jspsych-btn""><img src=""stimuli/white_square.png"" style=""width: 200px;height: 200px;""></button>","null","lightred","neonyellow","[""lightred"",""neonyellow"",""low nameability""]","left-right","[""lightred"",""neonyellow"",""low nameability""]","1","low nameability","8","left","iti",""
"html-button-response","53","113157","0.0-41.0","CAN_136","136","","","","","","459","","0","blue","purple","[""blue"",""purple"",""high nameability""]","left-right","[""blue"",""purple"",""high nameability""]","1","high nameability","9","left","trigger",""
"html-button-response","54","113788","0.0-42.0-0.0","CAN_136","136","","","","","","621","<button class=""jspsych-btn""><img src=""stimuli/blue.png"" style=""width: 200px;height: 200px;""></button>","0","blue","purple","[""blue"",""purple"",""high nameability""]","left-right","[""blue"",""purple"",""high nameability""]","1","high nameability","9","left","response","1"
"html-audio-button-response","55","113991","0.0-42.0-1.0","CAN_136","136","","","","","","null","stimuli/bleep.m4a","null","blue","purple","[""blue"",""purple"",""high nameability""]","left-right","[""blue"",""purple"",""high nameability""]","1","high nameability","9","left","audio_feedback","1"
"html-button-response","56","114512","0.0-43.0","CAN_136","136","","","","","","null","<button class=""jspsych-btn""><img src=""stimuli/white_square.png"" style=""width: 200px;height: 200px;""></button>","null","blue","purple","[""blue"",""purple"",""high nameability""]","left-right","[""blue"",""purple"",""high nameability""]","1","high nameability","9","left","iti",""
"html-button-response","57","115005","0.0-44.0","CAN_136","136","","","","","","466","","0","neonyellow","pink","[""neonyellow"",""pink"",""low nameability""]","left-right","[""neonyellow"",""pink"",""low nameability""]","1","low nameability","10","left","trigger",""
"html-button-response","58","115622","0.0-45.0-0.0","CAN_136","136","","","","","","608","<button class=""jspsych-btn""><img src=""stimuli/neonyellow.png"" style=""width: 200px;height: 200px;""></button>","0","neonyellow","pink","[""neonyellow"",""pink"",""low nameability""]","left-right","[""neonyellow"",""pink"",""low nameability""]","1","low nameability","10","left","response","1"
"html-audio-button-response","59","115844","0.0-45.0-1.0","CAN_136","136","","","","","","null","stimuli/bleep.m4a","null","neonyellow","pink","[""neonyellow"",""pink"",""low nameability""]","left-right","[""neonyellow"",""pink"",""low nameability""]","1","low nameability","10","left","audio_feedback","1"
"html-button-response","60","116370","0.0-46.0","CAN_136","136","","","","","","null","<button class=""jspsych-btn""><img src=""stimuli/white_square.png"" style=""width: 200px;height: 200px;""></button>","null","neonyellow","pink","[""neonyellow"",""pink"",""low nameability""]","left-right","[""neonyellow"",""pink"",""low nameability""]","1","low nameability","10","left","iti",""
"pavlovia","61","116464","0.0-47.0","CAN_136","136","","","","","","","","","","","","","","","","","","",""
"pavlovia","62","116480","0.0-48.0","CAN_136","136","","","","","","","","","","","","","","","","","","",""
"html-audio-button-response","63","119545","0.0-49.0","CAN_136","136","","","","","","3181","stimuli/tada.m4a","0","","","","","","","","","","",""
"html-button-response","64","137815","0.0-50.0","CAN_136","136","","","","","","18265","","0","","","","","","","","","","",""
"html-button-response","65","139109","0.0-51.0","CAN_136","136","","","","","","1287","","0","lightred","mustard","[""lightred"",""mustard"",""low nameability""]","left-right","[""lightred"",""mustard"",""low nameability""]","2","low nameability","11","left","trigger",""
"html-button-response","66","139692","0.0-52.0-0.0","CAN_136","136","","","","","","574","<button class=""jspsych-btn""><img src=""stimuli/lightred.png"" style=""width: 200px;height: 200px;""></button>","0","lightred","mustard","[""lightred"",""mustard"",""low nameability""]","left-right","[""lightred"",""mustard"",""low nameability""]","2","low nameability","11","left","response","1"
"html-audio-button-response","67","139893","0.0-52.0-1.0","CAN_136","136","","","","","","null","stimuli/bleep.m4a","null","lightred","mustard","[""lightred"",""mustard"",""low nameability""]","left-right","[""lightred"",""mustard"",""low nameability""]","2","low nameability","11","left","audio_feedback","1"
"html-button-response","68","140409","0.0-53.0","CAN_136","136","","","","","","null","<button class=""jspsych-btn""><img src=""stimuli/white_square.png"" style=""width: 200px;height: 200px;""></button>","null","lightred","mustard","[""lightred"",""mustard"",""low nameability""]","left-right","[""lightred"",""mustard"",""low nameability""]","2","low nameability","11","left","iti",""
"html-button-response","69","140817","0.0-54.0","CAN_136","136","","","","","","389","","0","lightred","pink","[""lightred"",""pink"",""low nameability""]","left-right","[""lightred"",""pink"",""low nameability""]","2","low nameability","12","left","trigger",""
"html-button-response","70","141398","0.0-55.0-0.0","CAN_136","136","","","","","","574","<button class=""jspsych-btn""><img src=""stimuli/lightred.png"" style=""width: 200px;height: 200px;""></button>","0","lightred","pink","[""lightred"",""pink"",""low nameability""]","left-right","[""lightred"",""pink"",""low nameability""]","2","low nameability","12","left","response","1"
"html-audio-button-response","71","141605","0.0-55.0-1.0","CAN_136","136","","","","","","null","stimuli/bleep.m4a","null","lightred","pink","[""lightred"",""pink"",""low nameability""]","left-right","[""lightred"",""pink"",""low nameability""]","2","low nameability","12","left","audio_feedback","1"
"html-button-response","72","142124","0.0-56.0","CAN_136","136","","","","","","null","<button class=""jspsych-btn""><img src=""stimuli/white_square.png"" style=""width: 200px;height: 200px;""></button>","null","lightred","pink","[""lightred"",""pink"",""low nameability""]","left-right","[""lightred"",""pink"",""low nameability""]","2","low nameability","12","left","iti",""
"html-button-response","73","142586","0.0-57.0","CAN_136","136","","","","","","443","","0","yellow","purple","[""yellow"",""purple"",""high nameability""]","right-left","[""purple"",""yellow""]","2","high nameability","13","right","trigger",""
"html-button-response","74","143332","0.0-58.0-0.0","CAN_136","136","","","","","","739","<button class=""jspsych-btn""><img src=""stimuli/yellow.png"" style=""width: 200px;height: 200px;""></button>","1","yellow","purple","[""yellow"",""purple"",""high nameability""]","right-left","[""purple"",""yellow""]","2","high nameability","13","right","response","1"
"html-audio-button-response","75","143539","0.0-58.0-1.0","CAN_136","136","","","","","","null","stimuli/bleep.m4a","null","yellow","purple","[""yellow"",""purple"",""high nameability""]","right-left","[""purple"",""yellow""]","2","high nameability","13","right","audio_feedback","1"
"html-button-response","76","144058","0.0-59.0","CAN_136","136","","","","","","null","<button class=""jspsych-btn""><img src=""stimuli/white_square.png"" style=""width: 200px;height: 200px;""></button>","null","yellow","purple","[""yellow"",""purple"",""high nameability""]","right-left","[""purple"",""yellow""]","2","high nameability","13","right","iti",""
"html-button-response","77","144522","0.0-60.0","CAN_136","136","","","","","","445","","0","brown","red","[""brown"",""red"",""high nameability""]","right-left","[""red"",""brown""]","2","high nameability","14","right","trigger",""
"html-button-response","78","145281","0.0-61.0-0.0","CAN_136","136","","","","","","752","<button class=""jspsych-btn""><img src=""stimuli/brown.png"" style=""width: 200px;height: 200px;""></button>","1","brown","red","[""brown"",""red"",""high nameability""]","right-left","[""red"",""brown""]","2","high nameability","14","right","response","1"
"html-audio-button-response","79","145486","0.0-61.0-1.0","CAN_136","136","","","","","","null","stimuli/bleep.m4a","null","brown","red","[""brown"",""red"",""high nameability""]","right-left","[""red"",""brown""]","2","high nameability","14","right","audio_feedback","1"
"html-button-response","80","146003","0.0-62.0","CAN_136","136","","","","","","null","<button class=""jspsych-btn""><img src=""stimuli/white_square.png"" style=""width: 200px;height: 200px;""></button>","null","brown","red","[""brown"",""red"",""high nameability""]","right-left","[""red"",""brown""]","2","high nameability","14","right","iti",""
"html-button-response","81","146466","0.0-63.0","CAN_136","136","","","","","","442","","0","lightred","darkgreenblue","[""lightred"",""darkgreenblue"",""low nameability""]","right-left","[""darkgreenblue"",""lightred""]","2","low nameability","15","right","trigger",""
"html-button-response","82","147095","0.0-64.0-0.0","CAN_136","136","","","","","","622","<button class=""jspsych-btn""><img src=""stimuli/lightred.png"" style=""width: 200px;height: 200px;""></button>","1","lightred","darkgreenblue","[""lightred"",""darkgreenblue"",""low nameability""]","right-left","[""darkgreenblue"",""lightred""]","2","low nameability","15","right","response","1"
"html-audio-button-response","83","147307","0.0-64.0-1.0","CAN_136","136","","","","","","null","stimuli/bleep.m4a","null","lightred","darkgreenblue","[""lightred"",""darkgreenblue"",""low nameability""]","right-left","[""darkgreenblue"",""lightred""]","2","low nameability","15","right","audio_feedback","1"
"html-button-response","84","147827","0.0-65.0","CAN_136","136","","","","","","null","<button class=""jspsych-btn""><img src=""stimuli/white_square.png"" style=""width: 200px;height: 200px;""></button>","null","lightred","darkgreenblue","[""lightred"",""darkgreenblue"",""low nameability""]","right-left","[""darkgreenblue"",""lightred""]","2","low nameability","15","right","iti",""
"html-button-response","85","148360","0.0-66.0","CAN_136","136","","","","","","515","","0","yellow","blue","[""yellow"",""blue"",""high nameability""]","right-left","[""blue"",""yellow""]","2","high nameability","16","right","trigger",""
"html-button-response","86","148994","0.0-67.0-0.0","CAN_136","136","","","","","","630","<button class=""jspsych-btn""><img src=""stimuli/yellow.png"" style=""width: 200px;height: 200px;""></button>","1","yellow","blue","[""yellow"",""blue"",""high nameability""]","right-left","[""blue"",""yellow""]","2","high nameability","16","right","response","1"
"html-audio-button-response","87","149199","0.0-67.0-1.0","CAN_136","136","","","","","","null","stimuli/bleep.m4a","null","yellow","blue","[""yellow"",""blue"",""high nameability""]","right-left","[""blue"",""yellow""]","2","high nameability","16","right","audio_feedback","1"
"html-button-response","88","149717","0.0-68.0","CAN_136","136","","","","","","null","<button class=""jspsych-btn""><img src=""stimuli/white_square.png"" style=""width: 200px;height: 200px;""></button>","null","yellow","blue","[""yellow"",""blue"",""high nameability""]","right-left","[""blue"",""yellow""]","2","high nameability","16","right","iti",""
"html-button-response","89","150228","0.0-69.0","CAN_136","136","","","","","","488","","0","pink","lightred","[""pink"",""lightred"",""low nameability""]","right-left","[""lightred"",""pink""]","2","low nameability","17","right","trigger",""
"html-button-response","90","150881","0.0-70.0-0.0","CAN_136","136","","","","","","645","<button class=""jspsych-btn""><img src=""stimuli/pink.png"" style=""width: 200px;height: 200px;""></button>","1","pink","lightred","[""pink"",""lightred"",""low nameability""]","right-left","[""lightred"",""pink""]","2","low nameability","17","right","response","1"
"html-audio-button-response","91","151084","0.0-70.0-1.0","CAN_136","136","","","","","","null","stimuli/bleep.m4a","null","pink","lightred","[""pink"",""lightred"",""low nameability""]","right-left","[""lightred"",""pink""]","2","low nameability","17","right","audio_feedback","1"
"html-button-response","92","151605","0.0-71.0","CAN_136","136","","","","","","null","<button class=""jspsych-btn""><img src=""stimuli/white_square.png"" style=""width: 200px;height: 200px;""></button>","null","pink","lightred","[""pink"",""lightred"",""low nameability""]","right-left","[""lightred"",""pink""]","2","low nameability","17","right","iti",""
"html-button-response","93","152121","0.0-72.0","CAN_136","136","","","","","","497","","0","turquoise","neonyellow","[""turquoise"",""neonyellow"",""low nameability""]","right-left","[""neonyellow"",""turquoise""]","2","low nameability","18","right","trigger",""
"html-button-response","94","152784","0.0-73.0-0.0","CAN_136","136","","","","","","654","<button class=""jspsych-btn""><img src=""stimuli/turquoise.png"" style=""width: 200px;height: 200px;""></button>","1","turquoise","neonyellow","[""turquoise"",""neonyellow"",""low nameability""]","right-left","[""neonyellow"",""turquoise""]","2","low nameability","18","right","response","1"
"html-audio-button-response","95","152987","0.0-73.0-1.0","CAN_136","136","","","","","","null","stimuli/bleep.m4a","null","turquoise","neonyellow","[""turquoise"",""neonyellow"",""low nameability""]","right-left","[""neonyellow"",""turquoise""]","2","low nameability","18","right","audio_feedback","1"
"html-button-response","96","153507","0.0-74.0","CAN_136","136","","","","","","null","<button class=""jspsych-btn""><img src=""stimuli/white_square.png"" style=""width: 200px;height: 200px;""></button>","null","turquoise","neonyellow","[""turquoise"",""neonyellow"",""low nameability""]","right-left","[""neonyellow"",""turquoise""]","2","low nameability","18","right","iti",""
"html-button-response","97","153966","0.0-75.0","CAN_136","136","","","","","","444","","0","red","brown","[""red"",""brown"",""high nameability""]","left-right","[""red"",""brown"",""high nameability""]","2","high nameability","19","left","trigger",""
"html-button-response","98","154752","0.0-76.0-0.0","CAN_136","136","","","","","","779","<button class=""jspsych-btn""><img src=""stimuli/red.png"" style=""width: 200px;height: 200px;""></button>","0","red","brown","[""red"",""brown"",""high nameability""]","left-right","[""red"",""brown"",""high nameability""]","2","high nameability","19","left","response","1"
"html-audio-button-response","99","154958","0.0-76.0-1.0","CAN_136","136","","","","","","null","stimuli/bleep.m4a","null","red","brown","[""red"",""brown"",""high nameability""]","left-right","[""red"",""brown"",""high nameability""]","2","high nameability","19","left","audio_feedback","1"
"html-button-response","100","155478","0.0-77.0","CAN_136","136","","","","","","null","<button class=""jspsych-btn""><img src=""stimuli/white_square.png"" style=""width: 200px;height: 200px;""></button>","null","red","brown","[""red"",""brown"",""high nameability""]","left-right","[""red"",""brown"",""high nameability""]","2","high nameability","19","left","iti",""
"html-button-response","101","155951","0.0-78.0","CAN_136","136","","","","","","452","","0","neonyellow","turquoise","[""neonyellow"",""turquoise"",""low nameability""]","left-right","[""neonyellow"",""turquoise"",""low nameability""]","2","low nameability","20","left","trigger",""
"html-button-response","102","156545","0.0-79.0-0.0","CAN_136","136","","","","","","586","<button class=""jspsych-btn""><img src=""stimuli/neonyellow.png"" style=""width: 200px;height: 200px;""></button>","0","neonyellow","turquoise","[""neonyellow"",""turquoise"",""low nameability""]","left-right","[""neonyellow"",""turquoise"",""low nameability""]","2","low nameability","20","left","response","1"
"html-audio-button-response","103","156757","0.0-79.0-1.0","CAN_136","136","","","","","","null","stimuli/bleep.m4a","null","neonyellow","turquoise","[""neonyellow"",""turquoise"",""low nameability""]","left-right","[""neonyellow"",""turquoise"",""low nameability""]","2","low nameability","20","left","audio_feedback","1"
"html-button-response","104","157282","0.0-80.0","CAN_136","136","","","","","","null","<button class=""jspsych-btn""><img src=""stimuli/white_square.png"" style=""width: 200px;height: 200px;""></button>","null","neonyellow","turquoise","[""neonyellow"",""turquoise"",""low nameability""]","left-right","[""neonyellow"",""turquoise"",""low nameability""]","2","low nameability","20","left","iti",""
"pavlovia","105","157404","0.0-81.0","CAN_136","136","","","","","","","","","","","","","","","","","","",""
"pavlovia","106","157419","0.0-82.0","CAN_136","136","","","","","","","","","","","","","","","","","","",""
"html-audio-button-response","107","159433","0.0-83.0","CAN_136","136","","","","","","2160","stimuli/tada.m4a","0","","","","","","","","","","",""
"html-button-response","108","159990","0.0-84.0","CAN_136","136","","","","","","547","","0","","","","","","","","","","",""
"html-button-response","109","160762","0.0-85.0","CAN_136","136","","","","","","758","","0","brown","orange","[""brown"",""orange"",""high nameability""]","right-left","[""orange"",""brown""]","3","high nameability","21","right","trigger",""
"html-button-response","110","161423","0.0-86.0-0.0","CAN_136","136","","","","","","649","<button class=""jspsych-btn""><img src=""stimuli/brown.png"" style=""width: 200px;height: 200px;""></button>","1","brown","orange","[""brown"",""orange"",""high nameability""]","right-left","[""orange"",""brown""]","3","high nameability","21","right","response","1"
"html-audio-button-response","111","161646","0.0-86.0-1.0","CAN_136","136","","","","","","null","stimuli/bleep.m4a","null","brown","orange","[""brown"",""orange"",""high nameability""]","right-left","[""orange"",""brown""]","3","high nameability","21","right","audio_feedback","1"
"html-button-response","112","162181","0.0-87.0","CAN_136","136","","","","","","null","<button class=""jspsych-btn""><img src=""stimuli/white_square.png"" style=""width: 200px;height: 200px;""></button>","null","brown","orange","[""brown"",""orange"",""high nameability""]","right-left","[""orange"",""brown""]","3","high nameability","21","right","iti",""
"html-button-response","113","162612","0.0-88.0","CAN_136","136","","","","","","400","","0","mustard","lightred","[""mustard"",""lightred"",""low nameability""]","right-left","[""lightred"",""mustard""]","3","low nameability","22","right","trigger",""
"html-button-response","114","163323","0.0-89.0-0.0","CAN_136","136","","","","","","697","<button class=""jspsych-btn""><img src=""stimuli/mustard.png"" style=""width: 200px;height: 200px;""></button>","1","mustard","lightred","[""mustard"",""lightred"",""low nameability""]","right-left","[""lightred"",""mustard""]","3","low nameability","22","right","response","1"
"html-audio-button-response","115","163532","0.0-89.0-1.0","CAN_136","136","","","","","","null","stimuli/bleep.m4a","null","mustard","lightred","[""mustard"",""lightred"",""low nameability""]","right-left","[""lightred"",""mustard""]","3","low nameability","22","right","audio_feedback","1"
"html-button-response","116","164058","0.0-90.0","CAN_136","136","","","","","","null","<button class=""jspsych-btn""><img src=""stimuli/white_square.png"" style=""width: 200px;height: 200px;""></button>","null","mustard","lightred","[""mustard"",""lightred"",""low nameability""]","right-left","[""lightred"",""mustard""]","3","low nameability","22","right","iti",""
"html-button-response","117","164549","0.0-91.0","CAN_136","136","","","","","","475","","0","purple","red","[""purple"",""red"",""high nameability""]","left-right","[""purple"",""red"",""high nameability""]","3","high nameability","23","left","trigger",""
"html-button-response","118","165129","0.0-92.0-0.0","CAN_136","136","","","","","","571","<button class=""jspsych-btn""><img src=""stimuli/purple.png"" style=""width: 200px;height: 200px;""></button>","0","purple","red","[""purple"",""red"",""high nameability""]","left-right","[""purple"",""red"",""high nameability""]","3","high nameability","23","left","response","1"
"html-audio-button-response","119","165336","0.0-92.0-1.0","CAN_136","136","","","","","","null","stimuli/bleep.m4a","null","purple","red","[""purple"",""red"",""high nameability""]","left-right","[""purple"",""red"",""high nameability""]","3","high nameability","23","left","audio_feedback","1"
"html-button-response","120","165862","0.0-93.0","CAN_136","136","","","","","","null","<button class=""jspsych-btn""><img src=""stimuli/white_square.png"" style=""width: 200px;height: 200px;""></button>","null","purple","red","[""purple"",""red"",""high nameability""]","left-right","[""purple"",""red"",""high nameability""]","3","high nameability","23","left","iti",""
"html-button-response","121","166282","0.0-94.0","CAN_136","136","","","","","","400","","0","turquoise","mustard","[""turquoise"",""mustard"",""low nameability""]","left-right","[""turquoise"",""mustard"",""low nameability""]","3","low nameability","24","left","trigger",""
"html-button-response","122","166958","0.0-95.0-0.0","CAN_136","136","","","","","","668","<button class=""jspsych-btn""><img src=""stimuli/turquoise.png"" style=""width: 200px;height: 200px;""></button>","0","turquoise","mustard","[""turquoise"",""mustard"",""low nameability""]","left-right","[""turquoise"",""mustard"",""low nameability""]","3","low nameability","24","left","response","1"
"html-audio-button-response","123","167163","0.0-95.0-1.0","CAN_136","136","","","","","","null","stimuli/bleep.m4a","null","turquoise","mustard","[""turquoise"",""mustard"",""low nameability""]","left-right","[""turquoise"",""mustard"",""low nameability""]","3","low nameability","24","left","audio_feedback","1"
"html-button-response","124","167687","0.0-96.0","CAN_136","136","","","","","","null","<button class=""jspsych-btn""><img src=""stimuli/white_square.png"" style=""width: 200px;height: 200px;""></button>","null","turquoise","mustard","[""turquoise"",""mustard"",""low nameability""]","left-right","[""turquoise"",""mustard"",""low nameability""]","3","low nameability","24","left","iti",""
"html-button-response","125","168135","0.0-97.0","CAN_136","136","","","","","","427","","0","pink","neonyellow","[""pink"",""neonyellow"",""low nameability""]","right-left","[""neonyellow"",""pink""]","3","low nameability","25","right","trigger",""
"html-button-response","126","168918","0.0-98.0-0.0","CAN_136","136","","","","","","773","<button class=""jspsych-btn""><img src=""stimuli/pink.png"" style=""width: 200px;height: 200px;""></button>","1","pink","neonyellow","[""pink"",""neonyellow"",""low nameability""]","right-left","[""neonyellow"",""pink""]","3","low nameability","25","right","response","1"
"html-audio-button-response","127","169124","0.0-98.0-1.0","CAN_136","136","","","","","","null","stimuli/bleep.m4a","null","pink","neonyellow","[""pink"",""neonyellow"",""low nameability""]","right-left","[""neonyellow"",""pink""]","3","low nameability","25","right","audio_feedback","1"
"html-button-response","128","169645","0.0-99.0","CAN_136","136","","","","","","null","<button class=""jspsych-btn""><img src=""stimuli/white_square.png"" style=""width: 200px;height: 200px;""></button>","null","pink","neonyellow","[""pink"",""neonyellow"",""low nameability""]","right-left","[""neonyellow"",""pink""]","3","low nameability","25","right","iti",""
"html-button-response","129","170119","0.0-100.0","CAN_136","136","","","","","","457","","0","lightred","turquoise","[""lightred"",""turquoise"",""low nameability""]","left-right","[""lightred"",""turquoise"",""low nameability""]","3","low nameability","26","left","trigger",""
"html-button-response","130","170738","0.0-101.0-0.0","CAN_136","136","","","","","","609","<button class=""jspsych-btn""><img src=""stimuli/lightred.png"" style=""width: 200px;height: 200px;""></button>","0","lightred","turquoise","[""lightred"",""turquoise"",""low nameability""]","left-right","[""lightred"",""turquoise"",""low nameability""]","3","low nameability","26","left","response","1"
"html-audio-button-response","131","170947","0.0-101.0-1.0","CAN_136","136","","","","","","null","stimuli/bleep.m4a","null","lightred","turquoise","[""lightred"",""turquoise"",""low nameability""]","left-right","[""lightred"",""turquoise"",""low nameability""]","3","low nameability","26","left","audio_feedback","1"
"html-button-response","132","171468","0.0-102.0","CAN_136","136","","","","","","null","<button class=""jspsych-btn""><img src=""stimuli/white_square.png"" style=""width: 200px;height: 200px;""></button>","null","lightred","turquoise","[""lightred"",""turquoise"",""low nameability""]","left-right","[""lightred"",""turquoise"",""low nameability""]","3","low nameability","26","left","iti",""
"html-button-response","133","171990","0.0-103.0","CAN_136","136","","","","","","495","","0","darkgreenblue","mustard","[""darkgreenblue"",""mustard"",""low nameability""]","right-left","[""mustard"",""darkgreenblue""]","3","low nameability","27","right","trigger",""
"html-button-response","134","172783","0.0-104.0-0.0","CAN_136","136","","","","","","785","<button class=""jspsych-btn""><img src=""stimuli/darkgreenblue.png"" style=""width: 200px;height: 200px;""></button>","1","darkgreenblue","mustard","[""darkgreenblue"",""mustard"",""low nameability""]","right-left","[""mustard"",""darkgreenblue""]","3","low nameability","27","right","response","1"
"html-audio-button-response","135","172989","0.0-104.0-1.0","CAN_136","136","","","","","","null","stimuli/bleep.m4a","null","darkgreenblue","mustard","[""darkgreenblue"",""mustard"",""low nameability""]","right-left","[""mustard"",""darkgreenblue""]","3","low nameability","27","right","audio_feedback","1"
"html-button-response","136","173512","0.0-105.0","CAN_136","136","","","","","","null","<button class=""jspsych-btn""><img src=""stimuli/white_square.png"" style=""width: 200px;height: 200px;""></button>","null","darkgreenblue","mustard","[""darkgreenblue"",""mustard"",""low nameability""]","right-left","[""mustard"",""darkgreenblue""]","3","low nameability","27","right","iti",""
"html-button-response","137","173978","0.0-106.0","CAN_136","136","","","","","","443","","0","pink","turquoise","[""pink"",""turquoise"",""low nameability""]","right-left","[""turquoise"",""pink""]","3","low nameability","28","right","trigger",""
"html-button-response","138","174651","0.0-107.0-0.0","CAN_136","136","","","","","","663","<button class=""jspsych-btn""><img src=""stimuli/pink.png"" style=""width: 200px;height: 200px;""></button>","1","pink","turquoise","[""pink"",""turquoise"",""low nameability""]","right-left","[""turquoise"",""pink""]","3","low nameability","28","right","response","1"
"html-audio-button-response","139","174855","0.0-107.0-1.0","CAN_136","136","","","","","","null","stimuli/bleep.m4a","null","pink","turquoise","[""pink"",""turquoise"",""low nameability""]","right-left","[""turquoise"",""pink""]","3","low nameability","28","right","audio_feedback","1"
"html-button-response","140","175373","0.0-108.0","CAN_136","136","","","","","","null","<button class=""jspsych-btn""><img src=""stimuli/white_square.png"" style=""width: 200px;height: 200px;""></button>","null","pink","turquoise","[""pink"",""turquoise"",""low nameability""]","right-left","[""turquoise"",""pink""]","3","low nameability","28","right","iti",""
"html-button-response","141","175795","0.0-109.0","CAN_136","136","","","","","","401","","0","blue","orange","[""blue"",""orange"",""high nameability""]","left-right","[""blue"",""orange"",""high nameability""]","3","high nameability","29","left","trigger",""
"html-button-response","142","176482","0.0-110.0-0.0","CAN_136","136","","","","","","678","<button class=""jspsych-btn""><img src=""stimuli/blue.png"" style=""width: 200px;height: 200px;""></button>","0","blue","orange","[""blue"",""orange"",""high nameability""]","left-right","[""blue"",""orange"",""high nameability""]","3","high nameability","29","left","response","1"
"html-audio-button-response","143","176687","0.0-110.0-1.0","CAN_136","136","","","","","","null","stimuli/bleep.m4a","null","blue","orange","[""blue"",""orange"",""high nameability""]","left-right","[""blue"",""orange"",""high nameability""]","3","high nameability","29","left","audio_feedback","1"
"html-button-response","144","177203","0.0-111.0","CAN_136","136","","","","","","null","<button class=""jspsych-btn""><img src=""stimuli/white_square.png"" style=""width: 200px;height: 200px;""></button>","null","blue","orange","[""blue"",""orange"",""high nameability""]","left-right","[""blue"",""orange"",""high nameability""]","3","high nameability","29","left","iti",""
"html-button-response","145","177636","0.0-112.0","CAN_136","136","","","","","","413","","0","purple","yellow","[""purple"",""yellow"",""high nameability""]","right-left","[""yellow"",""purple""]","3","high nameability","30","right","trigger",""
"html-button-response","146","178240","0.0-113.0-0.0","CAN_136","136","","","","","","596","<button class=""jspsych-btn""><img src=""stimuli/purple.png"" style=""width: 200px;height: 200px;""></button>","1","purple","yellow","[""purple"",""yellow"",""high nameability""]","right-left","[""yellow"",""purple""]","3","high nameability","30","right","response","1"
"html-audio-button-response","147","178448","0.0-113.0-1.0","CAN_136","136","","","","","","null","stimuli/bleep.m4a","null","purple","yellow","[""purple"",""yellow"",""high nameability""]","right-left","[""yellow"",""purple""]","3","high nameability","30","right","audio_feedback","1"
"html-button-response","148","178971","0.0-114.0","CAN_136","136","","","","","","null","<button class=""jspsych-btn""><img src=""stimuli/white_square.png"" style=""width: 200px;height: 200px;""></button>","null","purple","yellow","[""purple"",""yellow"",""high nameability""]","right-left","[""yellow"",""purple""]","3","high nameability","30","right","iti",""
"pavlovia","149","179029","0.0-115.0","CAN_136","136","","","","","","","","","","","","","","","","","","",""
"pavlovia","150","179035","0.0-116.0","CAN_136","136","","","","","","","","","","","","","","","","","","",""
"html-audio-button-response","151","180444","0.0-117.0","CAN_136","136","","","","","","1469","stimuli/tada.m4a","0","","","","","","","","","","",""
"html-button-response","152","180928","0.0-118.0","CAN_136","136","","","","","","477","","0","","","","","","","","","","",""
"html-button-response","153","181579","0.0-119.0","CAN_136","136","","","","","","642","","0","darkgreenblue","neonyellow","[""darkgreenblue"",""neonyellow"",""low nameability""]","right-left","[""neonyellow"",""darkgreenblue""]","4","low nameability","31","right","trigger",""
"html-button-response","154","182254","0.0-120.0-0.0","CAN_136","136","","","","","","666","<button class=""jspsych-btn""><img src=""stimuli/darkgreenblue.png"" style=""width: 200px;height: 200px;""></button>","1","darkgreenblue","neonyellow","[""darkgreenblue"",""neonyellow"",""low nameability""]","right-left","[""neonyellow"",""darkgreenblue""]","4","low nameability","31","right","response","1"
"html-audio-button-response","155","182463","0.0-120.0-1.0","CAN_136","136","","","","","","null","stimuli/bleep.m4a","null","darkgreenblue","neonyellow","[""darkgreenblue"",""neonyellow"",""low nameability""]","right-left","[""neonyellow"",""darkgreenblue""]","4","low nameability","31","right","audio_feedback","1"
"html-button-response","156","182989","0.0-121.0","CAN_136","136","","","","","","null","<button class=""jspsych-btn""><img src=""stimuli/white_square.png"" style=""width: 200px;height: 200px;""></button>","null","darkgreenblue","neonyellow","[""darkgreenblue"",""neonyellow"",""low nameability""]","right-left","[""neonyellow"",""darkgreenblue""]","4","low nameability","31","right","iti",""
"html-button-response","157","183421","0.0-122.0","CAN_136","136","","","","","","417","","0","red","yellow","[""red"",""yellow"",""high nameability""]","right-left","[""yellow"",""red""]","4","high nameability","32","right","trigger",""
"html-button-response","158","184039","0.0-123.0-0.0","CAN_136","136","","","","","","610","<button class=""jspsych-btn""><img src=""stimuli/red.png"" style=""width: 200px;height: 200px;""></button>","1","red","yellow","[""red"",""yellow"",""high nameability""]","right-left","[""yellow"",""red""]","4","high nameability","32","right","response","1"
"html-audio-button-response","159","184245","0.0-123.0-1.0","CAN_136","136","","","","","","null","stimuli/bleep.m4a","null","red","yellow","[""red"",""yellow"",""high nameability""]","right-left","[""yellow"",""red""]","4","high nameability","32","right","audio_feedback","1"
"html-button-response","160","184768","0.0-124.0","CAN_136","136","","","","","","null","<button class=""jspsych-btn""><img src=""stimuli/white_square.png"" style=""width: 200px;height: 200px;""></button>","null","red","yellow","[""red"",""yellow"",""high nameability""]","right-left","[""yellow"",""red""]","4","high nameability","32","right","iti",""
"html-button-response","161","184913","0.0-125.0","CAN_136","136","","","","","","123","","0","red","orange","[""red"",""orange"",""high nameability""]","right-left","[""orange"",""red""]","4","high nameability","33","right","trigger",""
"html-button-response","162","185757","0.0-126.0-0.0","CAN_136","136","","","","","","834","<button class=""jspsych-btn""><img src=""stimuli/red.png"" style=""width: 200px;height: 200px;""></button>","1","red","orange","[""red"",""orange"",""high nameability""]","right-left","[""orange"",""red""]","4","high nameability","33","right","response","1"
"html-audio-button-response","163","185965","0.0-126.0-1.0","CAN_136","136","","","","","","null","stimuli/bleep.m4a","null","red","orange","[""red"",""orange"",""high nameability""]","right-left","[""orange"",""red""]","4","high nameability","33","right","audio_feedback","1"
"html-button-response","164","186490","0.0-127.0","CAN_136","136","","","","","","null","<button class=""jspsych-btn""><img src=""stimuli/white_square.png"" style=""width: 200px;height: 200px;""></button>","null","red","orange","[""red"",""orange"",""high nameability""]","right-left","[""orange"",""red""]","4","high nameability","33","right","iti",""
"html-button-response","165","186965","0.0-128.0","CAN_136","136","","","","","","457","","0","red","purple","[""red"",""purple"",""high nameability""]","right-left","[""purple"",""red""]","4","high nameability","34","right","trigger",""
"html-button-response","166","187632","0.0-129.0-0.0","CAN_136","136","","","","","","658","<button class=""jspsych-btn""><img src=""stimuli/red.png"" style=""width: 200px;height: 200px;""></button>","1","red","purple","[""red"",""purple"",""high nameability""]","right-left","[""purple"",""red""]","4","high nameability","34","right","response","1"
"html-audio-button-response","167","187839","0.0-129.0-1.0","CAN_136","136","","","","","","null","stimuli/bleep.m4a","null","red","purple","[""red"",""purple"",""high nameability""]","right-left","[""purple"",""red""]","4","high nameability","34","right","audio_feedback","1"
"html-button-response","168","188358","0.0-130.0","CAN_136","136","","","","","","null","<button class=""jspsych-btn""><img src=""stimuli/white_square.png"" style=""width: 200px;height: 200px;""></button>","null","red","purple","[""red"",""purple"",""high nameability""]","right-left","[""purple"",""red""]","4","high nameability","34","right","iti",""
"html-button-response","169","188858","0.0-131.0","CAN_136","136","","","","","","481","","0","neonyellow","lightred","[""neonyellow"",""lightred"",""low nameability""]","left-right","[""neonyellow"",""lightred"",""low nameability""]","4","low nameability","35","left","trigger",""
"html-button-response","170","189522","0.0-132.0-0.0","CAN_136","136","","","","","","656","<button class=""jspsych-btn""><img src=""stimuli/neonyellow.png"" style=""width: 200px;height: 200px;""></button>","0","neonyellow","lightred","[""neonyellow"",""lightred"",""low nameability""]","left-right","[""neonyellow"",""lightred"",""low nameability""]","4","low nameability","35","left","response","1"
"html-audio-button-response","171","189727","0.0-132.0-1.0","CAN_136","136","","","","","","null","stimuli/bleep.m4a","null","neonyellow","lightred","[""neonyellow"",""lightred"",""low nameability""]","left-right","[""neonyellow"",""lightred"",""low nameability""]","4","low nameability","35","left","audio_feedback","1"
"html-button-response","172","190252","0.0-133.0","CAN_136","136","","","","","","null","<button class=""jspsych-btn""><img src=""stimuli/white_square.png"" style=""width: 200px;height: 200px;""></button>","null","neonyellow","lightred","[""neonyellow"",""lightred"",""low nameability""]","left-right","[""neonyellow"",""lightred"",""low nameability""]","4","low nameability","35","left","iti",""
"html-button-response","173","190653","0.0-134.0","CAN_136","136","","","","","","377","","0","brown","purple","[""brown"",""purple"",""high nameability""]","left-right","[""brown"",""purple"",""high nameability""]","4","high nameability","36","left","trigger",""
"html-button-response","174","191341","0.0-135.0-0.0","CAN_136","136","","","","","","679","<button class=""jspsych-btn""><img src=""stimuli/brown.png"" style=""width: 200px;height: 200px;""></button>","0","brown","purple","[""brown"",""purple"",""high nameability""]","left-right","[""brown"",""purple"",""high nameability""]","4","high nameability","36","left","response","1"
"html-audio-button-response","175","191542","0.0-135.0-1.0","CAN_136","136","","","","","","null","stimuli/bleep.m4a","null","brown","purple","[""brown"",""purple"",""high nameability""]","left-right","[""brown"",""purple"",""high nameability""]","4","high nameability","36","left","audio_feedback","1"
"html-button-response","176","192064","0.0-136.0","CAN_136","136","","","","","","null","<button class=""jspsych-btn""><img src=""stimuli/white_square.png"" style=""width: 200px;height: 200px;""></button>","null","brown","purple","[""brown"",""purple"",""high nameability""]","left-right","[""brown"",""purple"",""high nameability""]","4","high nameability","36","left","iti",""
"html-button-response","177","192520","0.0-137.0","CAN_136","136","","","","","","439","","0","mustard","darkgreenblue","[""mustard"",""darkgreenblue"",""low nameability""]","left-right","[""mustard"",""darkgreenblue"",""low nameability""]","4","low nameability","37","left","trigger",""
"html-button-response","178","193147","0.0-138.0-0.0","CAN_136","136","","","","","","617","<button class=""jspsych-btn""><img src=""stimuli/mustard.png"" style=""width: 200px;height: 200px;""></button>","0","mustard","darkgreenblue","[""mustard"",""darkgreenblue"",""low nameability""]","left-right","[""mustard"",""darkgreenblue"",""low nameability""]","4","low nameability","37","left","response","1"
"html-audio-button-response","179","193354","0.0-138.0-1.0","CAN_136","136","","","","","","null","stimuli/bleep.m4a","null","mustard","darkgreenblue","[""mustard"",""darkgreenblue"",""low nameability""]","left-right","[""mustard"",""darkgreenblue"",""low nameability""]","4","low nameability","37","left","audio_feedback","1"
"html-button-response","180","193878","0.0-139.0","CAN_136","136","","","","","","null","<button class=""jspsych-btn""><img src=""stimuli/white_square.png"" style=""width: 200px;height: 200px;""></button>","null","mustard","darkgreenblue","[""mustard"",""darkgreenblue"",""low nameability""]","left-right","[""mustard"",""darkgreenblue"",""low nameability""]","4","low nameability","37","left","iti",""
"html-button-response","181","194347","0.0-140.0","CAN_136","136","","","","","","455","","0","yellow","orange","[""yellow"",""orange"",""high nameability""]","right-left","[""orange"",""yellow""]","4","high nameability","38","right","trigger",""
"html-button-response","182","195033","0.0-141.0-0.0","CAN_136","136","","","","","","679","<button class=""jspsych-btn""><img src=""stimuli/yellow.png"" style=""width: 200px;height: 200px;""></button>","1","yellow","orange","[""yellow"",""orange"",""high nameability""]","right-left","[""orange"",""yellow""]","4","high nameability","38","right","response","1"
"html-audio-button-response","183","195238","0.0-141.0-1.0","CAN_136","136","","","","","","null","stimuli/bleep.m4a","null","yellow","orange","[""yellow"",""orange"",""high nameability""]","right-left","[""orange"",""yellow""]","4","high nameability","38","right","audio_feedback","1"
"html-button-response","184","195759","0.0-142.0","CAN_136","136","","","","","","null","<button class=""jspsych-btn""><img src=""stimuli/white_square.png"" style=""width: 200px;height: 200px;""></button>","null","yellow","orange","[""yellow"",""orange"",""high nameability""]","right-left","[""orange"",""yellow""]","4","high nameability","38","right","iti",""
"html-button-response","185","196326","0.0-143.0","CAN_136","136","","","","","","549","","0","purple","brown","[""purple"",""brown"",""high nameability""]","left-right","[""purple"",""brown"",""high nameability""]","4","high nameability","39","left","trigger",""
"html-button-response","186","196940","0.0-144.0-0.0","CAN_136","136","","","","","","607","<button class=""jspsych-btn""><img src=""stimuli/purple.png"" style=""width: 200px;height: 200px;""></button>","0","purple","brown","[""purple"",""brown"",""high nameability""]","left-right","[""purple"",""brown"",""high nameability""]","4","high nameability","39","left","response","1"
"html-audio-button-response","187","197143","0.0-144.0-1.0","CAN_136","136","","","","","","null","stimuli/bleep.m4a","null","purple","brown","[""purple"",""brown"",""high nameability""]","left-right","[""purple"",""brown"",""high nameability""]","4","high nameability","39","left","audio_feedback","1"
"html-button-response","188","197658","0.0-145.0","CAN_136","136","","","","","","null","<button class=""jspsych-btn""><img src=""stimuli/white_square.png"" style=""width: 200px;height: 200px;""></button>","null","purple","brown","[""purple"",""brown"",""high nameability""]","left-right","[""purple"",""brown"",""high nameability""]","4","high nameability","39","left","iti",""
"html-button-response","189","198110","0.0-146.0","CAN_136","136","","","","","","429","","0","mustard","pink","[""mustard"",""pink"",""low nameability""]","right-left","[""pink"",""mustard""]","4","low nameability","40","right","trigger",""
"html-button-response","190","198928","0.0-147.0-0.0","CAN_136","136","","","","","","811","<button class=""jspsych-btn""><img src=""stimuli/mustard.png"" style=""width: 200px;height: 200px;""></button>","1","mustard","pink","[""mustard"",""pink"",""low nameability""]","right-left","[""pink"",""mustard""]","4","low nameability","40","right","response","1"
"html-audio-button-response","191","199131","0.0-147.0-1.0","CAN_136","136","","","","","","null","stimuli/bleep.m4a","null","mustard","pink","[""mustard"",""pink"",""low nameability""]","right-left","[""pink"",""mustard""]","4","low nameability","40","right","audio_feedback","1"
"html-button-response","192","199654","0.0-148.0","CAN_136","136","","","","","","null","<button class=""jspsych-btn""><img src=""stimuli/white_square.png"" style=""width: 200px;height: 200px;""></button>","null","mustard","pink","[""mustard"",""pink"",""low nameability""]","right-left","[""pink"",""mustard""]","4","low nameability","40","right","iti",""
"pavlovia","193","199746","0.0-149.0","CAN_136","136","","","","","","","","","","","","","","","","","","",""
"pavlovia","194","199757","0.0-150.0","CAN_136","136","","","","","","","","","","","","","","","","","","",""
"html-audio-button-response","195","201293","0.0-151.0","CAN_136","136","","","","","","1643","stimuli/tada.m4a","0","","","","","","","","","","",""
"html-button-response","196","201835","0.0-152.0","CAN_136","136","","","","","","535","","0","","","","","","","","","","",""
"html-button-response","197","203142","0.0-153.0","CAN_136","136","","","","","","1299","","0","yellow","brown","[""yellow"",""brown"",""high nameability""]","left-right","[""yellow"",""brown"",""high nameability""]","5","high nameability","41","left","trigger",""
"html-button-response","198","203711","0.0-154.0-0.0","CAN_136","136","","","","","","561","<button class=""jspsych-btn""><img src=""stimuli/yellow.png"" style=""width: 200px;height: 200px;""></button>","0","yellow","brown","[""yellow"",""brown"",""high nameability""]","left-right","[""yellow"",""brown"",""high nameability""]","5","high nameability","41","left","response","1"
"html-audio-button-response","199","203916","0.0-154.0-1.0","CAN_136","136","","","","","","null","stimuli/bleep.m4a","null","yellow","brown","[""yellow"",""brown"",""high nameability""]","left-right","[""yellow"",""brown"",""high nameability""]","5","high nameability","41","left","audio_feedback","1"
"html-button-response","200","204440","0.0-155.0","CAN_136","136","","","","","","null","<button class=""jspsych-btn""><img src=""stimuli/white_square.png"" style=""width: 200px;height: 200px;""></button>","null","yellow","brown","[""yellow"",""brown"",""high nameability""]","left-right","[""yellow"",""brown"",""high nameability""]","5","high nameability","41","left","iti",""
"html-button-response","201","204916","0.0-156.0","CAN_136","136","","","","","","454","","0","neonyellow","mustard","[""neonyellow"",""mustard"",""low nameability""]","right-left","[""mustard"",""neonyellow""]","5","low nameability","42","right","trigger",""
"html-button-response","202","205574","0.0-157.0-0.0","CAN_136","136","","","","","","651","<button class=""jspsych-btn""><img src=""stimuli/neonyellow.png"" style=""width: 200px;height: 200px;""></button>","1","neonyellow","mustard","[""neonyellow"",""mustard"",""low nameability""]","right-left","[""mustard"",""neonyellow""]","5","low nameability","42","right","response","1"
"html-audio-button-response","203","205779","0.0-157.0-1.0","CAN_136","136","","","","","","null","stimuli/bleep.m4a","null","neonyellow","mustard","[""neonyellow"",""mustard"",""low nameability""]","right-left","[""mustard"",""neonyellow""]","5","low nameability","42","right","audio_feedback","1"
"html-button-response","204","206298","0.0-158.0","CAN_136","136","","","","","","null","<button class=""jspsych-btn""><img src=""stimuli/white_square.png"" style=""width: 200px;height: 200px;""></button>","null","neonyellow","mustard","[""neonyellow"",""mustard"",""low nameability""]","right-left","[""mustard"",""neonyellow""]","5","low nameability","42","right","iti",""
"html-button-response","205","206709","0.0-159.0","CAN_136","136","","","","","","395","","0","darkgreenblue","pink","[""darkgreenblue"",""pink"",""low nameability""]","left-right","[""darkgreenblue"",""pink"",""low nameability""]","5","low nameability","43","left","trigger",""
"html-button-response","206","207432","0.0-160.0-0.0","CAN_136","136","","","","","","713","<button class=""jspsych-btn""><img src=""stimuli/darkgreenblue.png"" style=""width: 200px;height: 200px;""></button>","0","darkgreenblue","pink","[""darkgreenblue"",""pink"",""low nameability""]","left-right","[""darkgreenblue"",""pink"",""low nameability""]","5","low nameability","43","left","response","1"
"html-audio-button-response","207","207645","0.0-160.0-1.0","CAN_136","136","","","","","","null","stimuli/bleep.m4a","null","darkgreenblue","pink","[""darkgreenblue"",""pink"",""low nameability""]","left-right","[""darkgreenblue"",""pink"",""low nameability""]","5","low nameability","43","left","audio_feedback","1"
"html-button-response","208","208167","0.0-161.0","CAN_136","136","","","","","","null","<button class=""jspsych-btn""><img src=""stimuli/white_square.png"" style=""width: 200px;height: 200px;""></button>","null","darkgreenblue","pink","[""darkgreenblue"",""pink"",""low nameability""]","left-right","[""darkgreenblue"",""pink"",""low nameability""]","5","low nameability","43","left","iti",""
"html-button-response","209","208688","0.0-162.0","CAN_136","136","","","","","","506","","0","brown","blue","[""brown"",""blue"",""high nameability""]","left-right","[""brown"",""blue"",""high nameability""]","5","high nameability","44","left","trigger",""
"html-button-response","210","209318","0.0-163.0-0.0","CAN_136","136","","","","","","621","<button class=""jspsych-btn""><img src=""stimuli/brown.png"" style=""width: 200px;height: 200px;""></button>","0","brown","blue","[""brown"",""blue"",""high nameability""]","left-right","[""brown"",""blue"",""high nameability""]","5","high nameability","44","left","response","1"
"html-audio-button-response","211","209527","0.0-163.0-1.0","CAN_136","136","","","","","","null","stimuli/bleep.m4a","null","brown","blue","[""brown"",""blue"",""high nameability""]","left-right","[""brown"",""blue"",""high nameability""]","5","high nameability","44","left","audio_feedback","1"
"html-button-response","212","210044","0.0-164.0","CAN_136","136","","","","","","null","<button class=""jspsych-btn""><img src=""stimuli/white_square.png"" style=""width: 200px;height: 200px;""></button>","null","brown","blue","[""brown"",""blue"",""high nameability""]","left-right","[""brown"",""blue"",""high nameability""]","5","high nameability","44","left","iti",""
"html-button-response","213","210450","0.0-165.0","CAN_136","136","","","","","","388","","0","darkgreenblue","lightred","[""darkgreenblue"",""lightred"",""low nameability""]","left-right","[""darkgreenblue"",""lightred"",""low nameability""]","5","low nameability","45","left","trigger",""
"html-button-response","214","211154","0.0-166.0-0.0","CAN_136","136","","","","","","695","<button class=""jspsych-btn""><img src=""stimuli/darkgreenblue.png"" style=""width: 200px;height: 200px;""></button>","0","darkgreenblue","lightred","[""darkgreenblue"",""lightred"",""low nameability""]","left-right","[""darkgreenblue"",""lightred"",""low nameability""]","5","low nameability","45","left","response","1"
"html-audio-button-response","215","211367","0.0-166.0-1.0","CAN_136","136","","","","","","null","stimuli/bleep.m4a","null","darkgreenblue","lightred","[""darkgreenblue"",""lightred"",""low nameability""]","left-right","[""darkgreenblue"",""lightred"",""low nameability""]","5","low nameability","45","left","audio_feedback","1"
"html-button-response","216","211886","0.0-167.0","CAN_136","136","","","","","","null","<button class=""jspsych-btn""><img src=""stimuli/white_square.png"" style=""width: 200px;height: 200px;""></button>","null","darkgreenblue","lightred","[""darkgreenblue"",""lightred"",""low nameability""]","left-right","[""darkgreenblue"",""lightred"",""low nameability""]","5","low nameability","45","left","iti",""
"html-button-response","217","212365","0.0-168.0","CAN_136","136","","","","","","461","","0","orange","yellow","[""orange"",""yellow"",""high nameability""]","right-left","[""yellow"",""orange""]","5","high nameability","46","right","trigger",""
"html-button-response","218","213050","0.0-169.0-0.0","CAN_136","136","","","","","","676","<button class=""jspsych-btn""><img src=""stimuli/orange.png"" style=""width: 200px;height: 200px;""></button>","1","orange","yellow","[""orange"",""yellow"",""high nameability""]","right-left","[""yellow"",""orange""]","5","high nameability","46","right","response","1"
"html-audio-button-response","219","213256","0.0-169.0-1.0","CAN_136","136","","","","","","null","stimuli/bleep.m4a","null","orange","yellow","[""orange"",""yellow"",""high nameability""]","right-left","[""yellow"",""orange""]","5","high nameability","46","right","audio_feedback","1"
"html-button-response","220","213777","0.0-170.0","CAN_136","136","","","","","","null","<button class=""jspsych-btn""><img src=""stimuli/white_square.png"" style=""width: 200px;height: 200px;""></button>","null","orange","yellow","[""orange"",""yellow"",""high nameability""]","right-left","[""yellow"",""orange""]","5","high nameability","46","right","iti",""
"html-button-response","221","214264","0.0-171.0","CAN_136","136","","","","","","465","","0","blue","brown","[""blue"",""brown"",""high nameability""]","left-right","[""blue"",""brown"",""high nameability""]","5","high nameability","47","left","trigger",""
"html-button-response","222","214869","0.0-172.0-0.0","CAN_136","136","","","","","","599","<button class=""jspsych-btn""><img src=""stimuli/blue.png"" style=""width: 200px;height: 200px;""></button>","0","blue","brown","[""blue"",""brown"",""high nameability""]","left-right","[""blue"",""brown"",""high nameability""]","5","high nameability","47","left","response","1"
"html-audio-button-response","223","215074","0.0-172.0-1.0","CAN_136","136","","","","","","null","stimuli/bleep.m4a","null","blue","brown","[""blue"",""brown"",""high nameability""]","left-right","[""blue"",""brown"",""high nameability""]","5","high nameability","47","left","audio_feedback","1"
"html-button-response","224","215591","0.0-173.0","CAN_136","136","","","","","","null","<button class=""jspsych-btn""><img src=""stimuli/white_square.png"" style=""width: 200px;height: 200px;""></button>","null","blue","brown","[""blue"",""brown"",""high nameability""]","left-right","[""blue"",""brown"",""high nameability""]","5","high nameability","47","left","iti",""
"html-button-response","225","216055","0.0-174.0","CAN_136","136","","","","","","439","","0","darkgreenblue","turquoise","[""darkgreenblue"",""turquoise"",""low nameability""]","left-right","[""darkgreenblue"",""turquoise"",""low nameability""]","5","low nameability","48","left","trigger",""
"html-button-response","226","216651","0.0-175.0-0.0","CAN_136","136","","","","","","589","<button class=""jspsych-btn""><img src=""stimuli/darkgreenblue.png"" style=""width: 200px;height: 200px;""></button>","0","darkgreenblue","turquoise","[""darkgreenblue"",""turquoise"",""low nameability""]","left-right","[""darkgreenblue"",""turquoise"",""low nameability""]","5","low nameability","48","left","response","1"
"html-audio-button-response","227","216855","0.0-175.0-1.0","CAN_136","136","","","","","","null","stimuli/bleep.m4a","null","darkgreenblue","turquoise","[""darkgreenblue"",""turquoise"",""low nameability""]","left-right","[""darkgreenblue"",""turquoise"",""low nameability""]","5","low nameability","48","left","audio_feedback","1"
"html-button-response","228","217375","0.0-176.0","CAN_136","136","","","","","","null","<button class=""jspsych-btn""><img src=""stimuli/white_square.png"" style=""width: 200px;height: 200px;""></button>","null","darkgreenblue","turquoise","[""darkgreenblue"",""turquoise"",""low nameability""]","left-right","[""darkgreenblue"",""turquoise"",""low nameability""]","5","low nameability","48","left","iti",""
"html-button-response","229","217850","0.0-177.0","CAN_136","136","","","","","","441","","0","purple","blue","[""purple"",""blue"",""high nameability""]","left-right","[""purple"",""blue"",""high nameability""]","5","high nameability","49","left","trigger",""
"html-button-response","230","218516","0.0-178.0-0.0","CAN_136","136","","","","","","653","<button class=""jspsych-btn""><img src=""stimuli/purple.png"" style=""width: 200px;height: 200px;""></button>","0","purple","blue","[""purple"",""blue"",""high nameability""]","left-right","[""purple"",""blue"",""high nameability""]","5","high nameability","49","left","response","1"
"html-audio-button-response","231","218722","0.0-178.0-1.0","CAN_136","136","","","","","","null","stimuli/bleep.m4a","null","purple","blue","[""purple"",""blue"",""high nameability""]","left-right","[""purple"",""blue"",""high nameability""]","5","high nameability","49","left","audio_feedback","1"
"html-button-response","232","219241","0.0-179.0","CAN_136","136","","","","","","null","<button class=""jspsych-btn""><img src=""stimuli/white_square.png"" style=""width: 200px;height: 200px;""></button>","null","purple","blue","[""purple"",""blue"",""high nameability""]","left-right","[""purple"",""blue"",""high nameability""]","5","high nameability","49","left","iti",""
"html-button-response","233","219821","0.0-180.0","CAN_136","136","","","","","","560","","0","blue","yellow","[""blue"",""yellow"",""high nameability""]","right-left","[""yellow"",""blue""]","5","high nameability","50","right","trigger",""
"html-button-response","234","220536","0.0-181.0-0.0","CAN_136","136","","","","","","708","<button class=""jspsych-btn""><img src=""stimuli/blue.png"" style=""width: 200px;height: 200px;""></button>","1","blue","yellow","[""blue"",""yellow"",""high nameability""]","right-left","[""yellow"",""blue""]","5","high nameability","50","right","response","1"
"html-audio-button-response","235","220742","0.0-181.0-1.0","CAN_136","136","","","","","","null","stimuli/bleep.m4a","null","blue","yellow","[""blue"",""yellow"",""high nameability""]","right-left","[""yellow"",""blue""]","5","high nameability","50","right","audio_feedback","1"
"html-button-response","236","221257","0.0-182.0","CAN_136","136","","","","","","null","<button class=""jspsych-btn""><img src=""stimuli/white_square.png"" style=""width: 200px;height: 200px;""></button>","null","blue","yellow","[""blue"",""yellow"",""high nameability""]","right-left","[""yellow"",""blue""]","5","high nameability","50","right","iti",""
"pavlovia","237","221369","0.0-183.0","CAN_136","136","","","","","","","","","","","","","","","","","","",""
"pavlovia","238","221385","0.0-184.0","CAN_136","136","","","","","","","","","","","","","","","","","","",""
"html-audio-button-response","239","222846","0.0-185.0","CAN_136","136","","","","","","1584","stimuli/tada.m4a","0","","","","","","","","","","",""
"html-button-response","240","223413","0.0-186.0","CAN_136","136","","","","","","557","","0","","","","","","","","","","",""
"html-button-response","241","224125","0.0-187.0","CAN_136","136","","","","","","701","","0","brown","yellow","[""brown"",""yellow"",""high nameability""]","right-left","[""yellow"",""brown""]","6","high nameability","51","right","trigger",""
"html-button-response","242","224825","0.0-188.0-0.0","CAN_136","136","","","","","","688","<button class=""jspsych-btn""><img src=""stimuli/brown.png"" style=""width: 200px;height: 200px;""></button>","1","brown","yellow","[""brown"",""yellow"",""high nameability""]","right-left","[""yellow"",""brown""]","6","high nameability","51","right","response","1"
"html-audio-button-response","243","225035","0.0-188.0-1.0","CAN_136","136","","","","","","null","stimuli/bleep.m4a","null","brown","yellow","[""brown"",""yellow"",""high nameability""]","right-left","[""yellow"",""brown""]","6","high nameability","51","right","audio_feedback","1"
"html-button-response","244","225566","0.0-189.0","CAN_136","136","","","","","","null","<button class=""jspsych-btn""><img src=""stimuli/white_square.png"" style=""width: 200px;height: 200px;""></button>","null","brown","yellow","[""brown"",""yellow"",""high nameability""]","right-left","[""yellow"",""brown""]","6","high nameability","51","right","iti",""
"html-button-response","245","226005","0.0-190.0","CAN_136","136","","","","","","427","","0","neonyellow","darkgreenblue","[""neonyellow"",""darkgreenblue"",""low nameability""]","right-left","[""darkgreenblue"",""neonyellow""]","6","low nameability","52","right","trigger",""
"html-button-response","246","226725","0.0-191.0-0.0","CAN_136","136","","","","","","701","<button class=""jspsych-btn""><img src=""stimuli/neonyellow.png"" style=""width: 200px;height: 200px;""></button>","1","neonyellow","darkgreenblue","[""neonyellow"",""darkgreenblue"",""low nameability""]","right-left","[""darkgreenblue"",""neonyellow""]","6","low nameability","52","right","response","1"
"html-audio-button-response","247","226938","0.0-191.0-1.0","CAN_136","136","","","","","","null","stimuli/bleep.m4a","null","neonyellow","darkgreenblue","[""neonyellow"",""darkgreenblue"",""low nameability""]","right-left","[""darkgreenblue"",""neonyellow""]","6","low nameability","52","right","audio_feedback","1"
"html-button-response","248","227462","0.0-192.0","CAN_136","136","","","","","","null","<button class=""jspsych-btn""><img src=""stimuli/white_square.png"" style=""width: 200px;height: 200px;""></button>","null","neonyellow","darkgreenblue","[""neonyellow"",""darkgreenblue"",""low nameability""]","right-left","[""darkgreenblue"",""neonyellow""]","6","low nameability","52","right","iti",""
"html-button-response","249","227941","0.0-193.0","CAN_136","136","","","","","","462","","0","turquoise","darkgreenblue","[""turquoise"",""darkgreenblue"",""low nameability""]","right-left","[""darkgreenblue"",""turquoise""]","6","low nameability","53","right","trigger",""
"html-button-response","250","228641","0.0-194.0-0.0","CAN_136","136","","","","","","688","<button class=""jspsych-btn""><img src=""stimuli/turquoise.png"" style=""width: 200px;height: 200px;""></button>","1","turquoise","darkgreenblue","[""turquoise"",""darkgreenblue"",""low nameability""]","right-left","[""darkgreenblue"",""turquoise""]","6","low nameability","53","right","response","1"
"html-audio-button-response","251","228851","0.0-194.0-1.0","CAN_136","136","","","","","","null","stimuli/bleep.m4a","null","turquoise","darkgreenblue","[""turquoise"",""darkgreenblue"",""low nameability""]","right-left","[""darkgreenblue"",""turquoise""]","6","low nameability","53","right","audio_feedback","1"
"html-button-response","252","229374","0.0-195.0","CAN_136","136","","","","","","null","<button class=""jspsych-btn""><img src=""stimuli/white_square.png"" style=""width: 200px;height: 200px;""></button>","null","turquoise","darkgreenblue","[""turquoise"",""darkgreenblue"",""low nameability""]","right-left","[""darkgreenblue"",""turquoise""]","6","low nameability","53","right","iti",""
"html-button-response","253","229851","0.0-196.0","CAN_136","136","","","","","","459","","0","pink","mustard","[""pink"",""mustard"",""low nameability""]","left-right","[""pink"",""mustard"",""low nameability""]","6","low nameability","54","left","trigger",""
"html-button-response","254","230543","0.0-197.0-0.0","CAN_136","136","","","","","","681","<button class=""jspsych-btn""><img src=""stimuli/pink.png"" style=""width: 200px;height: 200px;""></button>","0","pink","mustard","[""pink"",""mustard"",""low nameability""]","left-right","[""pink"",""mustard"",""low nameability""]","6","low nameability","54","left","response","1"
"html-audio-button-response","255","230752","0.0-197.0-1.0","CAN_136","136","","","","","","null","stimuli/bleep.m4a","null","pink","mustard","[""pink"",""mustard"",""low nameability""]","left-right","[""pink"",""mustard"",""low nameability""]","6","low nameability","54","left","audio_feedback","1"
"html-button-response","256","231272","0.0-198.0","CAN_136","136","","","","","","null","<button class=""jspsych-btn""><img src=""stimuli/white_square.png"" style=""width: 200px;height: 200px;""></button>","null","pink","mustard","[""pink"",""mustard"",""low nameability""]","left-right","[""pink"",""mustard"",""low nameability""]","6","low nameability","54","left","iti",""
"html-button-response","257","231763","0.0-199.0","CAN_136","136","","","","","","474","","0","orange","brown","[""orange"",""brown"",""high nameability""]","right-left","[""brown"",""orange""]","6","high nameability","55","right","trigger",""
"html-button-response","258","232404","0.0-200.0-0.0","CAN_136","136","","","","","","631","<button class=""jspsych-btn""><img src=""stimuli/orange.png"" style=""width: 200px;height: 200px;""></button>","1","orange","brown","[""orange"",""brown"",""high nameability""]","right-left","[""brown"",""orange""]","6","high nameability","55","right","response","1"
"html-audio-button-response","259","232613","0.0-200.0-1.0","CAN_136","136","","","","","","null","stimuli/bleep.m4a","null","orange","brown","[""orange"",""brown"",""high nameability""]","right-left","[""brown"",""orange""]","6","high nameability","55","right","audio_feedback","1"
"html-button-response","260","233138","0.0-201.0","CAN_136","136","","","","","","null","<button class=""jspsych-btn""><img src=""stimuli/white_square.png"" style=""width: 200px;height: 200px;""></button>","null","orange","brown","[""orange"",""brown"",""high nameability""]","right-left","[""brown"",""orange""]","6","high nameability","55","right","iti",""
"html-button-response","261","233581","0.0-202.0","CAN_136","136","","","","","","423","","0","orange","purple","[""orange"",""purple"",""high nameability""]","left-right","[""orange"",""purple"",""high nameability""]","6","high nameability","56","left","trigger",""
"html-button-response","262","234186","0.0-203.0-0.0","CAN_136","136","","","","","","594","<button class=""jspsych-btn""><img src=""stimuli/orange.png"" style=""width: 200px;height: 200px;""></button>","0","orange","purple","[""orange"",""purple"",""high nameability""]","left-right","[""orange"",""purple"",""high nameability""]","6","high nameability","56","left","response","1"
"html-audio-button-response","263","234390","0.0-203.0-1.0","CAN_136","136","","","","","","null","stimuli/bleep.m4a","null","orange","purple","[""orange"",""purple"",""high nameability""]","left-right","[""orange"",""purple"",""high nameability""]","6","high nameability","56","left","audio_feedback","1"
"html-button-response","264","234913","0.0-204.0","CAN_136","136","","","","","","null","<button class=""jspsych-btn""><img src=""stimuli/white_square.png"" style=""width: 200px;height: 200px;""></button>","null","orange","purple","[""orange"",""purple"",""high nameability""]","left-right","[""orange"",""purple"",""high nameability""]","6","high nameability","56","left","iti",""
"html-button-response","265","235374","0.0-205.0","CAN_136","136","","","","","","444","","0","mustard","neonyellow","[""mustard"",""neonyellow"",""low nameability""]","left-right","[""mustard"",""neonyellow"",""low nameability""]","6","low nameability","57","left","trigger",""
"html-button-response","266","236227","0.0-206.0-0.0","CAN_136","136","","","","","","846","<button class=""jspsych-btn""><img src=""stimuli/mustard.png"" style=""width: 200px;height: 200px;""></button>","0","mustard","neonyellow","[""mustard"",""neonyellow"",""low nameability""]","left-right","[""mustard"",""neonyellow"",""low nameability""]","6","low nameability","57","left","response","1"
"html-audio-button-response","267","236435","0.0-206.0-1.0","CAN_136","136","","","","","","null","stimuli/bleep.m4a","null","mustard","neonyellow","[""mustard"",""neonyellow"",""low nameability""]","left-right","[""mustard"",""neonyellow"",""low nameability""]","6","low nameability","57","left","audio_feedback","1"
"html-button-response","268","236958","0.0-207.0","CAN_136","136","","","","","","null","<button class=""jspsych-btn""><img src=""stimuli/white_square.png"" style=""width: 200px;height: 200px;""></button>","null","mustard","neonyellow","[""mustard"",""neonyellow"",""low nameability""]","left-right","[""mustard"",""neonyellow"",""low nameability""]","6","low nameability","57","left","iti",""
"html-button-response","269","237426","0.0-208.0","CAN_136","136","","","","","","452","","0","yellow","red","[""yellow"",""red"",""high nameability""]","left-right","[""yellow"",""red"",""high nameability""]","6","high nameability","58","left","trigger",""
"html-button-response","270","238093","0.0-209.0-0.0","CAN_136","136","","","","","","658","<button class=""jspsych-btn""><img src=""stimuli/yellow.png"" style=""width: 200px;height: 200px;""></button>","0","yellow","red","[""yellow"",""red"",""high nameability""]","left-right","[""yellow"",""red"",""high nameability""]","6","high nameability","58","left","response","1"
"html-audio-button-response","271","238300","0.0-209.0-1.0","CAN_136","136","","","","","","null","stimuli/bleep.m4a","null","yellow","red","[""yellow"",""red"",""high nameability""]","left-right","[""yellow"",""red"",""high nameability""]","6","high nameability","58","left","audio_feedback","1"
"html-button-response","272","238821","0.0-210.0","CAN_136","136","","","","","","null","<button class=""jspsych-btn""><img src=""stimuli/white_square.png"" style=""width: 200px;height: 200px;""></button>","null","yellow","red","[""yellow"",""red"",""high nameability""]","left-right","[""yellow"",""red"",""high nameability""]","6","high nameability","58","left","iti",""
"html-button-response","273","239294","0.0-211.0","CAN_136","136","","","","","","445","","0","pink","darkgreenblue","[""pink"",""darkgreenblue"",""low nameability""]","right-left","[""darkgreenblue"",""pink""]","6","low nameability","59","right","trigger",""
"html-button-response","274","239981","0.0-212.0-0.0","CAN_136","136","","","","","","678","<button class=""jspsych-btn""><img src=""stimuli/pink.png"" style=""width: 200px;height: 200px;""></button>","1","pink","darkgreenblue","[""pink"",""darkgreenblue"",""low nameability""]","right-left","[""darkgreenblue"",""pink""]","6","low nameability","59","right","response","1"
"html-audio-button-response","275","240187","0.0-212.0-1.0","CAN_136","136","","","","","","null","stimuli/bleep.m4a","null","pink","darkgreenblue","[""pink"",""darkgreenblue"",""low nameability""]","right-left","[""darkgreenblue"",""pink""]","6","low nameability","59","right","audio_feedback","1"
"html-button-response","276","240709","0.0-213.0","CAN_136","136","","","","","","null","<button class=""jspsych-btn""><img src=""stimuli/white_square.png"" style=""width: 200px;height: 200px;""></button>","null","pink","darkgreenblue","[""pink"",""darkgreenblue"",""low nameability""]","right-left","[""darkgreenblue"",""pink""]","6","low nameability","59","right","iti",""
"html-button-response","277","241197","0.0-214.0","CAN_136","136","","","","","","469","","0","red","blue","[""red"",""blue"",""high nameability""]","left-right","[""red"",""blue"",""high nameability""]","6","high nameability","60","left","trigger",""
"html-button-response","278","241813","0.0-215.0-0.0","CAN_136","136","","","","","","606","<button class=""jspsych-btn""><img src=""stimuli/red.png"" style=""width: 200px;height: 200px;""></button>","0","red","blue","[""red"",""blue"",""high nameability""]","left-right","[""red"",""blue"",""high nameability""]","6","high nameability","60","left","response","1"
"html-audio-button-response","279","242020","0.0-215.0-1.0","CAN_136","136","","","","","","null","stimuli/bleep.m4a","null","red","blue","[""red"",""blue"",""high nameability""]","left-right","[""red"",""blue"",""high nameability""]","6","high nameability","60","left","audio_feedback","1"
"html-button-response","280","242540","0.0-216.0","CAN_136","136","","","","","","null","<button class=""jspsych-btn""><img src=""stimuli/white_square.png"" style=""width: 200px;height: 200px;""></button>","null","red","blue","[""red"",""blue"",""high nameability""]","left-right","[""red"",""blue"",""high nameability""]","6","high nameability","60","left","iti",""
