"trial_type","trial_index","time_elapsed","internal_node_id","subject_id","seed","success","timeout","failed_images","failed_audio","failed_video","rt","stimulus","response","target","foil","choices","combination_order","choices_in_order","round","condition","trial_counter","target_location","trial_kind","correct"
"pavlovia","0","23","0.0-0.0","CAN_138","138","","","","","","","","","","","","","","","","","","",""
"preload","1","1549","0.0-1.0","CAN_138","138","true","false","[]","[]","[]","","","","","","","","","","","","","",""
"fullscreen","2","113234","0.0-2.0","CAN_138","138","true","","","","","","","","","","","","","","","","","",""
"html-button-response","3","234211","0.0-3.0","CAN_138","138","","","","","","120956","","0","","","","","","","","","","",""
"html-button-response","4","237355","0.0-4.0","CAN_138","138","","","","","","3124","","0","star","square","[""square"",""star""]","left-right","[""square"",""star""]","1","practice","1","right","trigger",""
"html-button-response","5","242115","0.0-5.0-0.0","CAN_138","138","","","","","","4747","<button class=""jspsych-btn""><img src=""stimuli/star.png"" style=""width: 200px;height: 200px;""></button>","1","star","square","[""square"",""star""]","left-right","[""square"",""star""]","1","practice","1","right","response","1"
"html-audio-button-response","6","242331","0.0-5.0-1.0","CAN_138","138","","","","","","null","stimuli/bleep.m4a","null","star","square","[""square"",""star""]","left-right","[""square"",""star""]","1","practice","1","right","audio_feedback","1"
"html-button-response","7","242862","0.0-6.0","CAN_138","138","","","","","","null","<button class=""jspsych-btn""><img src=""stimuli/white_square.png"" style=""width: 200px;height: 200px;""></button>","null","star","square","[""square"",""star""]","left-right","[""square"",""star""]","1","practice","1","right","iti",""
"html-button-response","8","249385","0.0-7.0","CAN_138","138","","","","","","6503","","0","triangle","pentagram","[""triangle"",""pentagram""]","left-right","[""triangle"",""pentagram""]","1","practice","1","left","trigger",""
"html-button-response","9","251635","0.0-8.0-0.0","CAN_138","138","","","","","","2240","<button class=""jspsych-btn""><img src=""stimuli/triangle.png"" style=""width: 200px;height: 200px;""></button>","0","triangle","pentagram","[""triangle"",""pentagram""]","left-right","[""triangle"",""pentagram""]","1","practice","1","left","response","1"
"html-audio-button-response","10","251847","0.0-8.0-1.0","CAN_138","138","","","","","","null","stimuli/bleep.m4a","null","triangle","pentagram","[""triangle"",""pentagram""]","left-right","[""triangle"",""pentagram""]","1","practice","1","left","audio_feedback","1"
"html-button-response","11","252368","0.0-9.0","CAN_138","138","","","","","","null","<button class=""jspsych-btn""><img src=""stimuli/white_square.png"" style=""width: 200px;height: 200px;""></button>","null","triangle","pentagram","[""triangle"",""pentagram""]","left-right","[""triangle"",""pentagram""]","1","practice","1","left","iti",""
"html-button-response","12","253517","0.0-10.0","CAN_138","138","","","","","","1130","","0","diamond","rectangle","[""rectangle"",""diamond""]","left-right","[""rectangle"",""diamond""]","1","practice","1","right","trigger",""
"html-button-response","13","256929","0.0-11.0-0.0","CAN_138","138","","","","","","3403","<button class=""jspsych-btn""><img src=""stimuli/diamond.png"" style=""width: 200px;height: 200px;""></button>","1","diamond","rectangle","[""rectangle"",""diamond""]","left-right","[""rectangle"",""diamond""]","1","practice","1","right","response","1"
"html-audio-button-response","14","257153","0.0-11.0-1.0","CAN_138","138","","","","","","null","stimuli/bleep.m4a","null","diamond","rectangle","[""rectangle"",""diamond""]","left-right","[""rectangle"",""diamond""]","1","practice","1","right","audio_feedback","1"
"html-button-response","15","257673","0.0-12.0","CAN_138","138","","","","","","null","<button class=""jspsych-btn""><img src=""stimuli/white_square.png"" style=""width: 200px;height: 200px;""></button>","null","diamond","rectangle","[""rectangle"",""diamond""]","left-right","[""rectangle"",""diamond""]","1","practice","1","right","iti",""
"html-button-response","16","258747","0.0-13.0","CAN_138","138","","","","","","1057","","0","pentagram","star","[""pentagram"",""star""]","left-right","[""pentagram"",""star""]","1","practice","1","left","trigger",""
"html-button-response","17","259715","0.0-14.0-0.0","CAN_138","138","","","","","","957","<button class=""jspsych-btn""><img src=""stimuli/pentagram.png"" style=""width: 200px;height: 200px;""></button>","0","pentagram","star","[""pentagram"",""star""]","left-right","[""pentagram"",""star""]","1","practice","1","left","response","1"
"html-audio-button-response","18","259923","0.0-14.0-1.0","CAN_138","138","","","","","","null","stimuli/bleep.m4a","null","pentagram","star","[""pentagram"",""star""]","left-right","[""pentagram"",""star""]","1","practice","1","left","audio_feedback","1"
"html-button-response","19","260449","0.0-15.0","CAN_138","138","","","","","","null","<button class=""jspsych-btn""><img src=""stimuli/white_square.png"" style=""width: 200px;height: 200px;""></button>","null","pentagram","star","[""pentagram"",""star""]","left-right","[""pentagram"",""star""]","1","practice","1","left","iti",""
"html-button-response","20","269942","0.0-16.0","CAN_138","138","","","","","","9475","","0","","","","","","","","","","",""
"html-button-response","21","270758","0.0-17.0","CAN_138","138","","","","","","806","","0","purple","brown","[""purple"",""brown"",""high nameability""]","left-right","[""purple"",""brown"",""high nameability""]","1","high nameability","1","left","trigger",""
"html-button-response","22","271498","0.0-18.0-0.0","CAN_138","138","","","","","","729","<button class=""jspsych-btn""><img src=""stimuli/purple.png"" style=""width: 200px;height: 200px;""></button>","0","purple","brown","[""purple"",""brown"",""high nameability""]","left-right","[""purple"",""brown"",""high nameability""]","1","high nameability","1","left","response","1"
"html-audio-button-response","23","271704","0.0-18.0-1.0","CAN_138","138","","","","","","null","stimuli/bleep.m4a","null","purple","brown","[""purple"",""brown"",""high nameability""]","left-right","[""purple"",""brown"",""high nameability""]","1","high nameability","1","left","audio_feedback","1"
"html-button-response","24","272228","0.0-19.0","CAN_138","138","","","","","","null","<button class=""jspsych-btn""><img src=""stimuli/white_square.png"" style=""width: 200px;height: 200px;""></button>","null","purple","brown","[""purple"",""brown"",""high nameability""]","left-right","[""purple"",""brown"",""high nameability""]","1","high nameability","1","left","iti",""
"html-button-response","25","272955","0.0-20.0","CAN_138","138","","","","","","704","","0","darkgreenblue","turquoise","[""darkgreenblue"",""turquoise"",""low nameability""]","right-left","[""turquoise"",""darkgreenblue""]","1","low nameability","2","right","trigger",""
"html-button-response","26","274934","0.0-21.0-0.0","CAN_138","138","","","","","","1970","<button class=""jspsych-btn""><img src=""stimuli/darkgreenblue.png"" style=""width: 200px;height: 200px;""></button>","1","darkgreenblue","turquoise","[""darkgreenblue"",""turquoise"",""low nameability""]","right-left","[""turquoise"",""darkgreenblue""]","1","low nameability","2","right","response","1"
"html-audio-button-response","27","275137","0.0-21.0-1.0","CAN_138","138","","","","","","null","stimuli/bleep.m4a","null","darkgreenblue","turquoise","[""darkgreenblue"",""turquoise"",""low nameability""]","right-left","[""turquoise"",""darkgreenblue""]","1","low nameability","2","right","audio_feedback","1"
"html-button-response","28","275665","0.0-22.0","CAN_138","138","","","","","","null","<button class=""jspsych-btn""><img src=""stimuli/white_square.png"" style=""width: 200px;height: 200px;""></button>","null","darkgreenblue","turquoise","[""darkgreenblue"",""turquoise"",""low nameability""]","right-left","[""turquoise"",""darkgreenblue""]","1","low nameability","2","right","iti",""
"html-button-response","29","276302","0.0-23.0","CAN_138","138","","","","","","617","","0","purple","blue","[""purple"",""blue"",""high nameability""]","left-right","[""purple"",""blue"",""high nameability""]","1","high nameability","3","left","trigger",""
"html-button-response","30","277037","0.0-24.0-0.0","CAN_138","138","","","","","","726","<button class=""jspsych-btn""><img src=""stimuli/purple.png"" style=""width: 200px;height: 200px;""></button>","0","purple","blue","[""purple"",""blue"",""high nameability""]","left-right","[""purple"",""blue"",""high nameability""]","1","high nameability","3","left","response","1"
"html-audio-button-response","31","277245","0.0-24.0-1.0","CAN_138","138","","","","","","null","stimuli/bleep.m4a","null","purple","blue","[""purple"",""blue"",""high nameability""]","left-right","[""purple"",""blue"",""high nameability""]","1","high nameability","3","left","audio_feedback","1"
"html-button-response","32","277766","0.0-25.0","CAN_138","138","","","","","","null","<button class=""jspsych-btn""><img src=""stimuli/white_square.png"" style=""width: 200px;height: 200px;""></button>","null","purple","blue","[""purple"",""blue"",""high nameability""]","left-right","[""purple"",""blue"",""high nameability""]","1","high nameability","3","left","iti",""
"html-button-response","33","278462","0.0-26.0","CAN_138","138","","","","","","668","","0","red","brown","[""red"",""brown"",""high nameability""]","right-left","[""brown"",""red""]","1","high nameability","4","right","trigger",""
"html-button-response","34","280098","0.0-27.0-0.0","CAN_138","138","","","","","","1628","<button class=""jspsych-btn""><img src=""stimuli/red.png"" style=""width: 200px;height: 200px;""></button>","1","red","brown","[""red"",""brown"",""high nameability""]","right-left","[""brown"",""red""]","1","high nameability","4","right","response","1"
"html-audio-button-response","35","280303","0.0-27.0-1.0","CAN_138","138","","","","","","null","stimuli/bleep.m4a","null","red","brown","[""red"",""brown"",""high nameability""]","right-left","[""brown"",""red""]","1","high nameability","4","right","audio_feedback","1"
"html-button-response","36","280831","0.0-28.0","CAN_138","138","","","","","","null","<button class=""jspsych-btn""><img src=""stimuli/white_square.png"" style=""width: 200px;height: 200px;""></button>","null","red","brown","[""red"",""brown"",""high nameability""]","right-left","[""brown"",""red""]","1","high nameability","4","right","iti",""
"html-button-response","37","281501","0.0-29.0","CAN_138","138","","","","","","650","","0","blue","brown","[""blue"",""brown"",""high nameability""]","right-left","[""brown"",""blue""]","1","high nameability","5","right","trigger",""
"html-button-response","38","282299","0.0-30.0-0.0","CAN_138","138","","","","","","789","<button class=""jspsych-btn""><img src=""stimuli/blue.png"" style=""width: 200px;height: 200px;""></button>","1","blue","brown","[""blue"",""brown"",""high nameability""]","right-left","[""brown"",""blue""]","1","high nameability","5","right","response","1"
"html-audio-button-response","39","282504","0.0-30.0-1.0","CAN_138","138","","","","","","null","stimuli/bleep.m4a","null","blue","brown","[""blue"",""brown"",""high nameability""]","right-left","[""brown"",""blue""]","1","high nameability","5","right","audio_feedback","1"
"html-button-response","40","283024","0.0-31.0","CAN_138","138","","","","","","null","<button class=""jspsych-btn""><img src=""stimuli/white_square.png"" style=""width: 200px;height: 200px;""></button>","null","blue","brown","[""blue"",""brown"",""high nameability""]","right-left","[""brown"",""blue""]","1","high nameability","5","right","iti",""
"html-button-response","41","283641","0.0-32.0","CAN_138","138","","","","","","598","","0","lightred","pink","[""lightred"",""pink"",""low nameability""]","right-left","[""pink"",""lightred""]","1","low nameability","6","right","trigger",""
"html-button-response","42","284319","0.0-33.0-0.0","CAN_138","138","","","","","","671","<button class=""jspsych-btn""><img src=""stimuli/lightred.png"" style=""width: 200px;height: 200px;""></button>","1","lightred","pink","[""lightred"",""pink"",""low nameability""]","right-left","[""pink"",""lightred""]","1","low nameability","6","right","response","1"
"html-audio-button-response","43","284528","0.0-33.0-1.0","CAN_138","138","","","","","","null","stimuli/bleep.m4a","null","lightred","pink","[""lightred"",""pink"",""low nameability""]","right-left","[""pink"",""lightred""]","1","low nameability","6","right","audio_feedback","1"
"html-button-response","44","285048","0.0-34.0","CAN_138","138","","","","","","null","<button class=""jspsych-btn""><img src=""stimuli/white_square.png"" style=""width: 200px;height: 200px;""></button>","null","lightred","pink","[""lightred"",""pink"",""low nameability""]","right-left","[""pink"",""lightred""]","1","low nameability","6","right","iti",""
"html-button-response","45","285702","0.0-35.0","CAN_138","138","","","","","","633","","0","purple","red","[""purple"",""red"",""high nameability""]","right-left","[""red"",""purple""]","1","high nameability","7","right","trigger",""
"html-button-response","46","286351","0.0-36.0-0.0","CAN_138","138","","","","","","644","<button class=""jspsych-btn""><img src=""stimuli/purple.png"" style=""width: 200px;height: 200px;""></button>","1","purple","red","[""purple"",""red"",""high nameability""]","right-left","[""red"",""purple""]","1","high nameability","7","right","response","1"
"html-audio-button-response","47","286565","0.0-36.0-1.0","CAN_138","138","","","","","","null","stimuli/bleep.m4a","null","purple","red","[""purple"",""red"",""high nameability""]","right-left","[""red"",""purple""]","1","high nameability","7","right","audio_feedback","1"
"html-button-response","48","287090","0.0-37.0","CAN_138","138","","","","","","null","<button class=""jspsych-btn""><img src=""stimuli/white_square.png"" style=""width: 200px;height: 200px;""></button>","null","purple","red","[""purple"",""red"",""high nameability""]","right-left","[""red"",""purple""]","1","high nameability","7","right","iti",""
"html-button-response","49","287655","0.0-38.0","CAN_138","138","","","","","","544","","0","turquoise","pink","[""turquoise"",""pink"",""low nameability""]","left-right","[""turquoise"",""pink"",""low nameability""]","1","low nameability","8","left","trigger",""
"html-button-response","50","288493","0.0-39.0-0.0","CAN_138","138","","","","","","832","<button class=""jspsych-btn""><img src=""stimuli/turquoise.png"" style=""width: 200px;height: 200px;""></button>","0","turquoise","pink","[""turquoise"",""pink"",""low nameability""]","left-right","[""turquoise"",""pink"",""low nameability""]","1","low nameability","8","left","response","1"
"html-audio-button-response","51","288698","0.0-39.0-1.0","CAN_138","138","","","","","","null","stimuli/bleep.m4a","null","turquoise","pink","[""turquoise"",""pink"",""low nameability""]","left-right","[""turquoise"",""pink"",""low nameability""]","1","low nameability","8","left","audio_feedback","1"
"html-button-response","52","289218","0.0-40.0","CAN_138","138","","","","","","null","<button class=""jspsych-btn""><img src=""stimuli/white_square.png"" style=""width: 200px;height: 200px;""></button>","null","turquoise","pink","[""turquoise"",""pink"",""low nameability""]","left-right","[""turquoise"",""pink"",""low nameability""]","1","low nameability","8","left","iti",""
"html-button-response","53","289798","0.0-41.0","CAN_138","138","","","","","","557","","0","yellow","brown","[""yellow"",""brown"",""high nameability""]","left-right","[""yellow"",""brown"",""high nameability""]","1","high nameability","9","left","trigger",""
"html-button-response","54","290513","0.0-42.0-0.0","CAN_138","138","","","","","","708","<button class=""jspsych-btn""><img src=""stimuli/yellow.png"" style=""width: 200px;height: 200px;""></button>","0","yellow","brown","[""yellow"",""brown"",""high nameability""]","left-right","[""yellow"",""brown"",""high nameability""]","1","high nameability","9","left","response","1"
"html-audio-button-response","55","290715","0.0-42.0-1.0","CAN_138","138","","","","","","null","stimuli/bleep.m4a","null","yellow","brown","[""yellow"",""brown"",""high nameability""]","left-right","[""yellow"",""brown"",""high nameability""]","1","high nameability","9","left","audio_feedback","1"
"html-button-response","56","291231","0.0-43.0","CAN_138","138","","","","","","null","<button class=""jspsych-btn""><img src=""stimuli/white_square.png"" style=""width: 200px;height: 200px;""></button>","null","yellow","brown","[""yellow"",""brown"",""high nameability""]","left-right","[""yellow"",""brown"",""high nameability""]","1","high nameability","9","left","iti",""
"html-button-response","57","291871","0.0-44.0","CAN_138","138","","","","","","617","","0","turquoise","lightred","[""turquoise"",""lightred"",""low nameability""]","right-left","[""lightred"",""turquoise""]","1","low nameability","10","right","trigger",""
"html-button-response","58","292578","0.0-45.0-0.0","CAN_138","138","","","","","","700","<button class=""jspsych-btn""><img src=""stimuli/turquoise.png"" style=""width: 200px;height: 200px;""></button>","1","turquoise","lightred","[""turquoise"",""lightred"",""low nameability""]","right-left","[""lightred"",""turquoise""]","1","low nameability","10","right","response","1"
"html-audio-button-response","59","292783","0.0-45.0-1.0","CAN_138","138","","","","","","null","stimuli/bleep.m4a","null","turquoise","lightred","[""turquoise"",""lightred"",""low nameability""]","right-left","[""lightred"",""turquoise""]","1","low nameability","10","right","audio_feedback","1"
"html-button-response","60","293303","0.0-46.0","CAN_138","138","","","","","","null","<button class=""jspsych-btn""><img src=""stimuli/white_square.png"" style=""width: 200px;height: 200px;""></button>","null","turquoise","lightred","[""turquoise"",""lightred"",""low nameability""]","right-left","[""lightred"",""turquoise""]","1","low nameability","10","right","iti",""
"pavlovia","61","293404","0.0-47.0","CAN_138","138","","","","","","","","","","","","","","","","","","",""
"pavlovia","62","293416","0.0-48.0","CAN_138","138","","","","","","","","","","","","","","","","","","",""
"html-audio-button-response","63","296050","0.0-49.0","CAN_138","138","","","","","","2749","stimuli/tada.m4a","0","","","","","","","","","","",""
"html-button-response","64","297013","0.0-50.0","CAN_138","138","","","","","","956","","0","","","","","","","","","","",""
"html-button-response","65","297805","0.0-51.0","CAN_138","138","","","","","","785","","0","brown","purple","[""brown"",""purple"",""high nameability""]","right-left","[""purple"",""brown""]","2","high nameability","11","right","trigger",""
"html-button-response","66","298740","0.0-52.0-0.0","CAN_138","138","","","","","","927","<button class=""jspsych-btn""><img src=""stimuli/brown.png"" style=""width: 200px;height: 200px;""></button>","1","brown","purple","[""brown"",""purple"",""high nameability""]","right-left","[""purple"",""brown""]","2","high nameability","11","right","response","1"
"html-audio-button-response","67","298948","0.0-52.0-1.0","CAN_138","138","","","","","","null","stimuli/bleep.m4a","null","brown","purple","[""brown"",""purple"",""high nameability""]","right-left","[""purple"",""brown""]","2","high nameability","11","right","audio_feedback","1"
"html-button-response","68","299463","0.0-53.0","CAN_138","138","","","","","","null","<button class=""jspsych-btn""><img src=""stimuli/white_square.png"" style=""width: 200px;height: 200px;""></button>","null","brown","purple","[""brown"",""purple"",""high nameability""]","right-left","[""purple"",""brown""]","2","high nameability","11","right","iti",""
"html-button-response","69","300022","0.0-54.0","CAN_138","138","","","","","","547","","0","lightred","turquoise","[""lightred"",""turquoise"",""low nameability""]","right-left","[""turquoise"",""lightred""]","2","low nameability","12","right","trigger",""
"html-button-response","70","301365","0.0-55.0-0.0","CAN_138","138","","","","","","1338","<button class=""jspsych-btn""><img src=""stimuli/lightred.png"" style=""width: 200px;height: 200px;""></button>","1","lightred","turquoise","[""lightred"",""turquoise"",""low nameability""]","right-left","[""turquoise"",""lightred""]","2","low nameability","12","right","response","1"
"html-audio-button-response","71","301575","0.0-55.0-1.0","CAN_138","138","","","","","","null","stimuli/bleep.m4a","null","lightred","turquoise","[""lightred"",""turquoise"",""low nameability""]","right-left","[""turquoise"",""lightred""]","2","low nameability","12","right","audio_feedback","1"
"html-button-response","72","302091","0.0-56.0","CAN_138","138","","","","","","null","<button class=""jspsych-btn""><img src=""stimuli/white_square.png"" style=""width: 200px;height: 200px;""></button>","null","lightred","turquoise","[""lightred"",""turquoise"",""low nameability""]","right-left","[""turquoise"",""lightred""]","2","low nameability","12","right","iti",""
"html-button-response","73","302679","0.0-57.0","CAN_138","138","","","","","","566","","0","brown","yellow","[""brown"",""yellow"",""high nameability""]","right-left","[""yellow"",""brown""]","2","high nameability","13","right","trigger",""
"html-button-response","74","303509","0.0-58.0-0.0","CAN_138","138","","","","","","824","<button class=""jspsych-btn""><img src=""stimuli/brown.png"" style=""width: 200px;height: 200px;""></button>","1","brown","yellow","[""brown"",""yellow"",""high nameability""]","right-left","[""yellow"",""brown""]","2","high nameability","13","right","response","1"
"html-audio-button-response","75","303715","0.0-58.0-1.0","CAN_138","138","","","","","","null","stimuli/bleep.m4a","null","brown","yellow","[""brown"",""yellow"",""high nameability""]","right-left","[""yellow"",""brown""]","2","high nameability","13","right","audio_feedback","1"
"html-button-response","76","304233","0.0-59.0","CAN_138","138","","","","","","null","<button class=""jspsych-btn""><img src=""stimuli/white_square.png"" style=""width: 200px;height: 200px;""></button>","null","brown","yellow","[""brown"",""yellow"",""high nameability""]","right-left","[""yellow"",""brown""]","2","high nameability","13","right","iti",""
"html-button-response","77","304822","0.0-60.0","CAN_138","138","","","","","","573","","0","red","orange","[""red"",""orange"",""high nameability""]","left-right","[""red"",""orange"",""high nameability""]","2","high nameability","14","left","trigger",""
"html-button-response","78","305835","0.0-61.0-0.0","CAN_138","138","","","","","","1007","<button class=""jspsych-btn""><img src=""stimuli/red.png"" style=""width: 200px;height: 200px;""></button>","0","red","orange","[""red"",""orange"",""high nameability""]","left-right","[""red"",""orange"",""high nameability""]","2","high nameability","14","left","response","1"
"html-audio-button-response","79","306040","0.0-61.0-1.0","CAN_138","138","","","","","","null","stimuli/bleep.m4a","null","red","orange","[""red"",""orange"",""high nameability""]","left-right","[""red"",""orange"",""high nameability""]","2","high nameability","14","left","audio_feedback","1"
"html-button-response","80","306557","0.0-62.0","CAN_138","138","","","","","","null","<button class=""jspsych-btn""><img src=""stimuli/white_square.png"" style=""width: 200px;height: 200px;""></button>","null","red","orange","[""red"",""orange"",""high nameability""]","left-right","[""red"",""orange"",""high nameability""]","2","high nameability","14","left","iti",""
"html-button-response","81","307218","0.0-63.0","CAN_138","138","","","","","","638","","0","darkgreenblue","neonyellow","[""darkgreenblue"",""neonyellow"",""low nameability""]","left-right","[""darkgreenblue"",""neonyellow"",""low nameability""]","2","low nameability","15","left","trigger",""
"html-button-response","82","308035","0.0-64.0-0.0","CAN_138","138","","","","","","807","<button class=""jspsych-btn""><img src=""stimuli/darkgreenblue.png"" style=""width: 200px;height: 200px;""></button>","0","darkgreenblue","neonyellow","[""darkgreenblue"",""neonyellow"",""low nameability""]","left-right","[""darkgreenblue"",""neonyellow"",""low nameability""]","2","low nameability","15","left","response","1"
"html-audio-button-response","83","308243","0.0-64.0-1.0","CAN_138","138","","","","","","null","stimuli/bleep.m4a","null","darkgreenblue","neonyellow","[""darkgreenblue"",""neonyellow"",""low nameability""]","left-right","[""darkgreenblue"",""neonyellow"",""low nameability""]","2","low nameability","15","left","audio_feedback","1"
"html-button-response","84","308760","0.0-65.0","CAN_138","138","","","","","","null","<button class=""jspsych-btn""><img src=""stimuli/white_square.png"" style=""width: 200px;height: 200px;""></button>","null","darkgreenblue","neonyellow","[""darkgreenblue"",""neonyellow"",""low nameability""]","left-right","[""darkgreenblue"",""neonyellow"",""low nameability""]","2","low nameability","15","left","iti",""
"html-button-response","85","309328","0.0-66.0","CAN_138","138","","","","","","553","","0","yellow","blue","[""yellow"",""blue"",""high nameability""]","right-left","[""blue"",""yellow""]","2","high nameability","16","right","trigger",""
"html-button-response","86","310086","0.0-67.0-0.0","CAN_138","138","","","","","","752","<button class=""jspsych-btn""><img src=""stimuli/yellow.png"" style=""width: 200px;height: 200px;""></button>","1","yellow","blue","[""yellow"",""blue"",""high nameability""]","right-left","[""blue"",""yellow""]","2","high nameability","16","right","response","1"
"html-audio-button-response","87","310291","0.0-67.0-1.0","CAN_138","138","","","","","","null","stimuli/bleep.m4a","null","yellow","blue","[""yellow"",""blue"",""high nameability""]","right-left","[""blue"",""yellow""]","2","high nameability","16","right","audio_feedback","1"
"html-button-response","88","310808","0.0-68.0","CAN_138","138","","","","","","null","<button class=""jspsych-btn""><img src=""stimuli/white_square.png"" style=""width: 200px;height: 200px;""></button>","null","yellow","blue","[""yellow"",""blue"",""high nameability""]","right-left","[""blue"",""yellow""]","2","high nameability","16","right","iti",""
"html-button-response","89","311505","0.0-69.0","CAN_138","138","","","","","","677","","0","yellow","red","[""yellow"",""red"",""high nameability""]","right-left","[""red"",""yellow""]","2","high nameability","17","right","trigger",""
"html-button-response","90","312181","0.0-70.0-0.0","CAN_138","138","","","","","","665","<button class=""jspsych-btn""><img src=""stimuli/yellow.png"" style=""width: 200px;height: 200px;""></button>","1","yellow","red","[""yellow"",""red"",""high nameability""]","right-left","[""red"",""yellow""]","2","high nameability","17","right","response","1"
"html-audio-button-response","91","312391","0.0-70.0-1.0","CAN_138","138","","","","","","null","stimuli/bleep.m4a","null","yellow","red","[""yellow"",""red"",""high nameability""]","right-left","[""red"",""yellow""]","2","high nameability","17","right","audio_feedback","1"
"html-button-response","92","312916","0.0-71.0","CAN_138","138","","","","","","null","<button class=""jspsych-btn""><img src=""stimuli/white_square.png"" style=""width: 200px;height: 200px;""></button>","null","yellow","red","[""yellow"",""red"",""high nameability""]","right-left","[""red"",""yellow""]","2","high nameability","17","right","iti",""
"html-button-response","93","313556","0.0-72.0","CAN_138","138","","","","","","616","","0","lightred","mustard","[""lightred"",""mustard"",""low nameability""]","left-right","[""lightred"",""mustard"",""low nameability""]","2","low nameability","18","left","trigger",""
"html-button-response","94","314448","0.0-73.0-0.0","CAN_138","138","","","","","","884","<button class=""jspsych-btn""><img src=""stimuli/lightred.png"" style=""width: 200px;height: 200px;""></button>","0","lightred","mustard","[""lightred"",""mustard"",""low nameability""]","left-right","[""lightred"",""mustard"",""low nameability""]","2","low nameability","18","left","response","1"
"html-audio-button-response","95","314651","0.0-73.0-1.0","CAN_138","138","","","","","","null","stimuli/bleep.m4a","null","lightred","mustard","[""lightred"",""mustard"",""low nameability""]","left-right","[""lightred"",""mustard"",""low nameability""]","2","low nameability","18","left","audio_feedback","1"
"html-button-response","96","315177","0.0-74.0","CAN_138","138","","","","","","null","<button class=""jspsych-btn""><img src=""stimuli/white_square.png"" style=""width: 200px;height: 200px;""></button>","null","lightred","mustard","[""lightred"",""mustard"",""low nameability""]","left-right","[""lightred"",""mustard"",""low nameability""]","2","low nameability","18","left","iti",""
"html-button-response","97","315841","0.0-75.0","CAN_138","138","","","","","","644","","0","brown","orange","[""brown"",""orange"",""high nameability""]","right-left","[""orange"",""brown""]","2","high nameability","19","right","trigger",""
"html-button-response","98","316565","0.0-76.0-0.0","CAN_138","138","","","","","","716","<button class=""jspsych-btn""><img src=""stimuli/brown.png"" style=""width: 200px;height: 200px;""></button>","1","brown","orange","[""brown"",""orange"",""high nameability""]","right-left","[""orange"",""brown""]","2","high nameability","19","right","response","1"
"html-audio-button-response","99","316771","0.0-76.0-1.0","CAN_138","138","","","","","","null","stimuli/bleep.m4a","null","brown","orange","[""brown"",""orange"",""high nameability""]","right-left","[""orange"",""brown""]","2","high nameability","19","right","audio_feedback","1"
"html-button-response","100","317294","0.0-77.0","CAN_138","138","","","","","","null","<button class=""jspsych-btn""><img src=""stimuli/white_square.png"" style=""width: 200px;height: 200px;""></button>","null","brown","orange","[""brown"",""orange"",""high nameability""]","right-left","[""orange"",""brown""]","2","high nameability","19","right","iti",""
"html-button-response","101","317981","0.0-78.0","CAN_138","138","","","","","","669","","0","purple","yellow","[""purple"",""yellow"",""high nameability""]","right-left","[""yellow"",""purple""]","2","high nameability","20","right","trigger",""
"html-button-response","102","318780","0.0-79.0-0.0","CAN_138","138","","","","","","792","<button class=""jspsych-btn""><img src=""stimuli/purple.png"" style=""width: 200px;height: 200px;""></button>","1","purple","yellow","[""purple"",""yellow"",""high nameability""]","right-left","[""yellow"",""purple""]","2","high nameability","20","right","response","1"
"html-audio-button-response","103","318984","0.0-79.0-1.0","CAN_138","138","","","","","","null","stimuli/bleep.m4a","null","purple","yellow","[""purple"",""yellow"",""high nameability""]","right-left","[""yellow"",""purple""]","2","high nameability","20","right","audio_feedback","1"
"html-button-response","104","319507","0.0-80.0","CAN_138","138","","","","","","null","<button class=""jspsych-btn""><img src=""stimuli/white_square.png"" style=""width: 200px;height: 200px;""></button>","null","purple","yellow","[""purple"",""yellow"",""high nameability""]","right-left","[""yellow"",""purple""]","2","high nameability","20","right","iti",""
"pavlovia","105","319557","0.0-81.0","CAN_138","138","","","","","","","","","","","","","","","","","","",""
"pavlovia","106","319566","0.0-82.0","CAN_138","138","","","","","","","","","","","","","","","","","","",""
"html-audio-button-response","107","321327","0.0-83.0","CAN_138","138","","","","","","1824","stimuli/tada.m4a","0","","","","","","","","","","",""
"html-button-response","108","322026","0.0-84.0","CAN_138","138","","","","","","692","","0","","","","","","","","","","",""
"html-button-response","109","322676","0.0-85.0","CAN_138","138","","","","","","642","","0","neonyellow","pink","[""neonyellow"",""pink"",""low nameability""]","left-right","[""neonyellow"",""pink"",""low nameability""]","3","low nameability","21","left","trigger",""
"html-button-response","110","323452","0.0-86.0-0.0","CAN_138","138","","","","","","771","<button class=""jspsych-btn""><img src=""stimuli/neonyellow.png"" style=""width: 200px;height: 200px;""></button>","0","neonyellow","pink","[""neonyellow"",""pink"",""low nameability""]","left-right","[""neonyellow"",""pink"",""low nameability""]","3","low nameability","21","left","response","1"
"html-audio-button-response","111","323655","0.0-86.0-1.0","CAN_138","138","","","","","","null","stimuli/bleep.m4a","null","neonyellow","pink","[""neonyellow"",""pink"",""low nameability""]","left-right","[""neonyellow"",""pink"",""low nameability""]","3","low nameability","21","left","audio_feedback","1"
"html-button-response","112","324178","0.0-87.0","CAN_138","138","","","","","","null","<button class=""jspsych-btn""><img src=""stimuli/white_square.png"" style=""width: 200px;height: 200px;""></button>","null","neonyellow","pink","[""neonyellow"",""pink"",""low nameability""]","left-right","[""neonyellow"",""pink"",""low nameability""]","3","low nameability","21","left","iti",""
"html-button-response","113","324786","0.0-88.0","CAN_138","138","","","","","","591","","0","lightred","darkgreenblue","[""lightred"",""darkgreenblue"",""low nameability""]","left-right","[""lightred"",""darkgreenblue"",""low nameability""]","3","low nameability","22","left","trigger",""
"html-button-response","114","325463","0.0-89.0-0.0","CAN_138","138","","","","","","671","<button class=""jspsych-btn""><img src=""stimuli/lightred.png"" style=""width: 200px;height: 200px;""></button>","0","lightred","darkgreenblue","[""lightred"",""darkgreenblue"",""low nameability""]","left-right","[""lightred"",""darkgreenblue"",""low nameability""]","3","low nameability","22","left","response","1"
"html-audio-button-response","115","325667","0.0-89.0-1.0","CAN_138","138","","","","","","null","stimuli/bleep.m4a","null","lightred","darkgreenblue","[""lightred"",""darkgreenblue"",""low nameability""]","left-right","[""lightred"",""darkgreenblue"",""low nameability""]","3","low nameability","22","left","audio_feedback","1"
"html-button-response","116","326191","0.0-90.0","CAN_138","138","","","","","","null","<button class=""jspsych-btn""><img src=""stimuli/white_square.png"" style=""width: 200px;height: 200px;""></button>","null","lightred","darkgreenblue","[""lightred"",""darkgreenblue"",""low nameability""]","left-right","[""lightred"",""darkgreenblue"",""low nameability""]","3","low nameability","22","left","iti",""
"html-button-response","117","326757","0.0-91.0","CAN_138","138","","","","","","544","","0","purple","orange","[""purple"",""orange"",""high nameability""]","right-left","[""orange"",""purple""]","3","high nameability","23","right","trigger",""
"html-button-response","118","327640","0.0-92.0-0.0","CAN_138","138","","","","","","877","<button class=""jspsych-btn""><img src=""stimuli/purple.png"" style=""width: 200px;height: 200px;""></button>","1","purple","orange","[""purple"",""orange"",""high nameability""]","right-left","[""orange"",""purple""]","3","high nameability","23","right","response","1"
"html-audio-button-response","119","327844","0.0-92.0-1.0","CAN_138","138","","","","","","null","stimuli/bleep.m4a","null","purple","orange","[""purple"",""orange"",""high nameability""]","right-left","[""orange"",""purple""]","3","high nameability","23","right","audio_feedback","1"
"html-button-response","120","328366","0.0-93.0","CAN_138","138","","","","","","null","<button class=""jspsych-btn""><img src=""stimuli/white_square.png"" style=""width: 200px;height: 200px;""></button>","null","purple","orange","[""purple"",""orange"",""high nameability""]","right-left","[""orange"",""purple""]","3","high nameability","23","right","iti",""
"html-button-response","121","328973","0.0-94.0","CAN_138","138","","","","","","581","","0","pink","neonyellow","[""pink"",""neonyellow"",""low nameability""]","right-left","[""neonyellow"",""pink""]","3","low nameability","24","right","trigger",""
"html-button-response","122","329670","0.0-95.0-0.0","CAN_138","138","","","","","","688","<button class=""jspsych-btn""><img src=""stimuli/pink.png"" style=""width: 200px;height: 200px;""></button>","1","pink","neonyellow","[""pink"",""neonyellow"",""low nameability""]","right-left","[""neonyellow"",""pink""]","3","low nameability","24","right","response","1"
"html-audio-button-response","123","329875","0.0-95.0-1.0","CAN_138","138","","","","","","null","stimuli/bleep.m4a","null","pink","neonyellow","[""pink"",""neonyellow"",""low nameability""]","right-left","[""neonyellow"",""pink""]","3","low nameability","24","right","audio_feedback","1"
"html-button-response","124","330406","0.0-96.0","CAN_138","138","","","","","","null","<button class=""jspsych-btn""><img src=""stimuli/white_square.png"" style=""width: 200px;height: 200px;""></button>","null","pink","neonyellow","[""pink"",""neonyellow"",""low nameability""]","right-left","[""neonyellow"",""pink""]","3","low nameability","24","right","iti",""
"html-button-response","125","331067","0.0-97.0","CAN_138","138","","","","","","642","","0","mustard","darkgreenblue","[""mustard"",""darkgreenblue"",""low nameability""]","left-right","[""mustard"",""darkgreenblue"",""low nameability""]","3","low nameability","25","left","trigger",""
"html-button-response","126","331775","0.0-98.0-0.0","CAN_138","138","","","","","","700","<button class=""jspsych-btn""><img src=""stimuli/mustard.png"" style=""width: 200px;height: 200px;""></button>","0","mustard","darkgreenblue","[""mustard"",""darkgreenblue"",""low nameability""]","left-right","[""mustard"",""darkgreenblue"",""low nameability""]","3","low nameability","25","left","response","1"
"html-audio-button-response","127","331981","0.0-98.0-1.0","CAN_138","138","","","","","","null","stimuli/bleep.m4a","null","mustard","darkgreenblue","[""mustard"",""darkgreenblue"",""low nameability""]","left-right","[""mustard"",""darkgreenblue"",""low nameability""]","3","low nameability","25","left","audio_feedback","1"
"html-button-response","128","332499","0.0-99.0","CAN_138","138","","","","","","null","<button class=""jspsych-btn""><img src=""stimuli/white_square.png"" style=""width: 200px;height: 200px;""></button>","null","mustard","darkgreenblue","[""mustard"",""darkgreenblue"",""low nameability""]","left-right","[""mustard"",""darkgreenblue"",""low nameability""]","3","low nameability","25","left","iti",""
"html-button-response","129","333036","0.0-100.0","CAN_138","138","","","","","","517","","0","blue","orange","[""blue"",""orange"",""high nameability""]","right-left","[""orange"",""blue""]","3","high nameability","26","right","trigger",""
"html-button-response","130","333727","0.0-101.0-0.0","CAN_138","138","","","","","","682","<button class=""jspsych-btn""><img src=""stimuli/blue.png"" style=""width: 200px;height: 200px;""></button>","1","blue","orange","[""blue"",""orange"",""high nameability""]","right-left","[""orange"",""blue""]","3","high nameability","26","right","response","1"
"html-audio-button-response","131","333932","0.0-101.0-1.0","CAN_138","138","","","","","","null","stimuli/bleep.m4a","null","blue","orange","[""blue"",""orange"",""high nameability""]","right-left","[""orange"",""blue""]","3","high nameability","26","right","audio_feedback","1"
"html-button-response","132","334447","0.0-102.0","CAN_138","138","","","","","","null","<button class=""jspsych-btn""><img src=""stimuli/white_square.png"" style=""width: 200px;height: 200px;""></button>","null","blue","orange","[""blue"",""orange"",""high nameability""]","right-left","[""orange"",""blue""]","3","high nameability","26","right","iti",""
"html-button-response","133","335117","0.0-103.0","CAN_138","138","","","","","","649","","0","turquoise","mustard","[""turquoise"",""mustard"",""low nameability""]","left-right","[""turquoise"",""mustard"",""low nameability""]","3","low nameability","27","left","trigger",""
"html-button-response","134","335807","0.0-104.0-0.0","CAN_138","138","","","","","","681","<button class=""jspsych-btn""><img src=""stimuli/turquoise.png"" style=""width: 200px;height: 200px;""></button>","0","turquoise","mustard","[""turquoise"",""mustard"",""low nameability""]","left-right","[""turquoise"",""mustard"",""low nameability""]","3","low nameability","27","left","response","1"
"html-audio-button-response","135","336008","0.0-104.0-1.0","CAN_138","138","","","","","","null","stimuli/bleep.m4a","null","turquoise","mustard","[""turquoise"",""mustard"",""low nameability""]","left-right","[""turquoise"",""mustard"",""low nameability""]","3","low nameability","27","left","audio_feedback","1"
"html-button-response","136","336525","0.0-105.0","CAN_138","138","","","","","","null","<button class=""jspsych-btn""><img src=""stimuli/white_square.png"" style=""width: 200px;height: 200px;""></button>","null","turquoise","mustard","[""turquoise"",""mustard"",""low nameability""]","left-right","[""turquoise"",""mustard"",""low nameability""]","3","low nameability","27","left","iti",""
"html-button-response","137","337189","0.0-106.0","CAN_138","138","","","","","","650","","0","brown","blue","[""brown"",""blue"",""high nameability""]","right-left","[""blue"",""brown""]","3","high nameability","28","right","trigger",""
"html-button-response","138","338082","0.0-107.0-0.0","CAN_138","138","","","","","","885","<button class=""jspsych-btn""><img src=""stimuli/brown.png"" style=""width: 200px;height: 200px;""></button>","1","brown","blue","[""brown"",""blue"",""high nameability""]","right-left","[""blue"",""brown""]","3","high nameability","28","right","response","1"
"html-audio-button-response","139","338287","0.0-107.0-1.0","CAN_138","138","","","","","","null","stimuli/bleep.m4a","null","brown","blue","[""brown"",""blue"",""high nameability""]","right-left","[""blue"",""brown""]","3","high nameability","28","right","audio_feedback","1"
"html-button-response","140","338808","0.0-108.0","CAN_138","138","","","","","","null","<button class=""jspsych-btn""><img src=""stimuli/white_square.png"" style=""width: 200px;height: 200px;""></button>","null","brown","blue","[""brown"",""blue"",""high nameability""]","right-left","[""blue"",""brown""]","3","high nameability","28","right","iti",""
"html-button-response","141","339384","0.0-109.0","CAN_138","138","","","","","","551","","0","orange","brown","[""orange"",""brown"",""high nameability""]","left-right","[""orange"",""brown"",""high nameability""]","3","high nameability","29","left","trigger",""
"html-button-response","142","340027","0.0-110.0-0.0","CAN_138","138","","","","","","636","<button class=""jspsych-btn""><img src=""stimuli/orange.png"" style=""width: 200px;height: 200px;""></button>","0","orange","brown","[""orange"",""brown"",""high nameability""]","left-right","[""orange"",""brown"",""high nameability""]","3","high nameability","29","left","response","1"
"html-audio-button-response","143","340234","0.0-110.0-1.0","CAN_138","138","","","","","","null","stimuli/bleep.m4a","null","orange","brown","[""orange"",""brown"",""high nameability""]","left-right","[""orange"",""brown"",""high nameability""]","3","high nameability","29","left","audio_feedback","1"
"html-button-response","144","340750","0.0-111.0","CAN_138","138","","","","","","null","<button class=""jspsych-btn""><img src=""stimuli/white_square.png"" style=""width: 200px;height: 200px;""></button>","null","orange","brown","[""orange"",""brown"",""high nameability""]","left-right","[""orange"",""brown"",""high nameability""]","3","high nameability","29","left","iti",""
"html-button-response","145","341274","0.0-112.0","CAN_138","138","","","","","","505","","0","darkgreenblue","lightred","[""darkgreenblue"",""lightred"",""low nameability""]","right-left","[""lightred"",""darkgreenblue""]","3","low nameability","30","right","trigger",""
"html-button-response","146","341894","0.0-113.0-0.0","CAN_138","138","","","","","","613","<button class=""jspsych-btn""><img src=""stimuli/darkgreenblue.png"" style=""width: 200px;height: 200px;""></button>","1","darkgreenblue","lightred","[""darkgreenblue"",""lightred"",""low nameability""]","right-left","[""lightred"",""darkgreenblue""]","3","low nameability","30","right","response","1"
"html-audio-button-response","147","342101","0.0-113.0-1.0","CAN_138","138","","","","","","null","stimuli/bleep.m4a","null","darkgreenblue","lightred","[""darkgreenblue"",""lightred"",""low nameability""]","right-left","[""lightred"",""darkgreenblue""]","3","low nameability","30","right","audio_feedback","1"
"html-button-response","148","342620","0.0-114.0","CAN_138","138","","","","","","null","<button class=""jspsych-btn""><img src=""stimuli/white_square.png"" style=""width: 200px;height: 200px;""></button>","null","darkgreenblue","lightred","[""darkgreenblue"",""lightred"",""low nameability""]","right-left","[""lightred"",""darkgreenblue""]","3","low nameability","30","right","iti",""
"pavlovia","149","342688","0.0-115.0","CAN_138","138","","","","","","","","","","","","","","","","","","",""
"pavlovia","150","342701","0.0-116.0","CAN_138","138","","","","","","","","","","","","","","","","","","",""
"html-audio-button-response","151","344586","0.0-117.0","CAN_138","138","","","","","","1968","stimuli/tada.m4a","0","","","","","","","","","","",""
"html-button-response","152","345232","0.0-118.0","CAN_138","138","","","","","","638","","0","","","","","","","","","","",""
"html-button-response","153","345706","0.0-119.0","CAN_138","138","","","","","","467","","0","red","purple","[""red"",""purple"",""high nameability""]","left-right","[""red"",""purple"",""high nameability""]","4","high nameability","31","left","trigger",""
"html-button-response","154","346396","0.0-120.0-0.0","CAN_138","138","","","","","","682","<button class=""jspsych-btn""><img src=""stimuli/red.png"" style=""width: 200px;height: 200px;""></button>","0","red","purple","[""red"",""purple"",""high nameability""]","left-right","[""red"",""purple"",""high nameability""]","4","high nameability","31","left","response","1"
"html-audio-button-response","155","346602","0.0-120.0-1.0","CAN_138","138","","","","","","null","stimuli/bleep.m4a","null","red","purple","[""red"",""purple"",""high nameability""]","left-right","[""red"",""purple"",""high nameability""]","4","high nameability","31","left","audio_feedback","1"
"html-button-response","156","347118","0.0-121.0","CAN_138","138","","","","","","null","<button class=""jspsych-btn""><img src=""stimuli/white_square.png"" style=""width: 200px;height: 200px;""></button>","null","red","purple","[""red"",""purple"",""high nameability""]","left-right","[""red"",""purple"",""high nameability""]","4","high nameability","31","left","iti",""
"html-button-response","157","347614","0.0-122.0","CAN_138","138","","","","","","472","","0","neonyellow","turquoise","[""neonyellow"",""turquoise"",""low nameability""]","right-left","[""turquoise"",""neonyellow""]","4","low nameability","32","right","trigger",""
"html-button-response","158","348307","0.0-123.0-0.0","CAN_138","138","","","","","","684","<button class=""jspsych-btn""><img src=""stimuli/neonyellow.png"" style=""width: 200px;height: 200px;""></button>","1","neonyellow","turquoise","[""neonyellow"",""turquoise"",""low nameability""]","right-left","[""turquoise"",""neonyellow""]","4","low nameability","32","right","response","1"
"html-audio-button-response","159","348512","0.0-123.0-1.0","CAN_138","138","","","","","","null","stimuli/bleep.m4a","null","neonyellow","turquoise","[""neonyellow"",""turquoise"",""low nameability""]","right-left","[""turquoise"",""neonyellow""]","4","low nameability","32","right","audio_feedback","1"
"html-button-response","160","349032","0.0-124.0","CAN_138","138","","","","","","null","<button class=""jspsych-btn""><img src=""stimuli/white_square.png"" style=""width: 200px;height: 200px;""></button>","null","neonyellow","turquoise","[""neonyellow"",""turquoise"",""low nameability""]","right-left","[""turquoise"",""neonyellow""]","4","low nameability","32","right","iti",""
"html-button-response","161","349728","0.0-125.0","CAN_138","138","","","","","","666","","0","neonyellow","darkgreenblue","[""neonyellow"",""darkgreenblue"",""low nameability""]","right-left","[""darkgreenblue"",""neonyellow""]","4","low nameability","33","right","trigger",""
"html-button-response","162","350318","0.0-126.0-0.0","CAN_138","138","","","","","","583","<button class=""jspsych-btn""><img src=""stimuli/neonyellow.png"" style=""width: 200px;height: 200px;""></button>","1","neonyellow","darkgreenblue","[""neonyellow"",""darkgreenblue"",""low nameability""]","right-left","[""darkgreenblue"",""neonyellow""]","4","low nameability","33","right","response","1"
"html-audio-button-response","163","350524","0.0-126.0-1.0","CAN_138","138","","","","","","null","stimuli/bleep.m4a","null","neonyellow","darkgreenblue","[""neonyellow"",""darkgreenblue"",""low nameability""]","right-left","[""darkgreenblue"",""neonyellow""]","4","low nameability","33","right","audio_feedback","1"
"html-button-response","164","351043","0.0-127.0","CAN_138","138","","","","","","null","<button class=""jspsych-btn""><img src=""stimuli/white_square.png"" style=""width: 200px;height: 200px;""></button>","null","neonyellow","darkgreenblue","[""neonyellow"",""darkgreenblue"",""low nameability""]","right-left","[""darkgreenblue"",""neonyellow""]","4","low nameability","33","right","iti",""
"html-button-response","165","351663","0.0-128.0","CAN_138","138","","","","","","600","","0","red","yellow","[""red"",""yellow"",""high nameability""]","left-right","[""red"",""yellow"",""high nameability""]","4","high nameability","34","left","trigger",""
"html-button-response","166","352397","0.0-129.0-0.0","CAN_138","138","","","","","","722","<button class=""jspsych-btn""><img src=""stimuli/red.png"" style=""width: 200px;height: 200px;""></button>","0","red","yellow","[""red"",""yellow"",""high nameability""]","left-right","[""red"",""yellow"",""high nameability""]","4","high nameability","34","left","response","1"
"html-audio-button-response","167","352600","0.0-129.0-1.0","CAN_138","138","","","","","","null","stimuli/bleep.m4a","null","red","yellow","[""red"",""yellow"",""high nameability""]","left-right","[""red"",""yellow"",""high nameability""]","4","high nameability","34","left","audio_feedback","1"
"html-button-response","168","353124","0.0-130.0","CAN_138","138","","","","","","null","<button class=""jspsych-btn""><img src=""stimuli/white_square.png"" style=""width: 200px;height: 200px;""></button>","null","red","yellow","[""red"",""yellow"",""high nameability""]","left-right","[""red"",""yellow"",""high nameability""]","4","high nameability","34","left","iti",""
"html-button-response","169","353683","0.0-131.0","CAN_138","138","","","","","","544","","0","pink","mustard","[""pink"",""mustard"",""low nameability""]","left-right","[""pink"",""mustard"",""low nameability""]","4","low nameability","35","left","trigger",""
"html-button-response","170","354336","0.0-132.0-0.0","CAN_138","138","","","","","","648","<button class=""jspsych-btn""><img src=""stimuli/pink.png"" style=""width: 200px;height: 200px;""></button>","0","pink","mustard","[""pink"",""mustard"",""low nameability""]","left-right","[""pink"",""mustard"",""low nameability""]","4","low nameability","35","left","response","1"
"html-audio-button-response","171","354541","0.0-132.0-1.0","CAN_138","138","","","","","","null","stimuli/bleep.m4a","null","pink","mustard","[""pink"",""mustard"",""low nameability""]","left-right","[""pink"",""mustard"",""low nameability""]","4","low nameability","35","left","audio_feedback","1"
"html-button-response","172","355064","0.0-133.0","CAN_138","138","","","","","","null","<button class=""jspsych-btn""><img src=""stimuli/white_square.png"" style=""width: 200px;height: 200px;""></button>","null","pink","mustard","[""pink"",""mustard"",""low nameability""]","left-right","[""pink"",""mustard"",""low nameability""]","4","low nameability","35","left","iti",""
"html-button-response","173","355597","0.0-134.0","CAN_138","138","","","","","","514","","0","red","blue","[""red"",""blue"",""high nameability""]","right-left","[""blue"",""red""]","4","high nameability","36","right","trigger",""
"html-button-response","174","356216","0.0-135.0-0.0","CAN_138","138","","","","","","613","<button class=""jspsych-btn""><img src=""stimuli/red.png"" style=""width: 200px;height: 200px;""></button>","1","red","blue","[""red"",""blue"",""high nameability""]","right-left","[""blue"",""red""]","4","high nameability","36","right","response","1"
"html-audio-button-response","175","356424","0.0-135.0-1.0","CAN_138","138","","","","","","null","stimuli/bleep.m4a","null","red","blue","[""red"",""blue"",""high nameability""]","right-left","[""blue"",""red""]","4","high nameability","36","right","audio_feedback","1"
"html-button-response","176","356942","0.0-136.0","CAN_138","138","","","","","","null","<button class=""jspsych-btn""><img src=""stimuli/white_square.png"" style=""width: 200px;height: 200px;""></button>","null","red","blue","[""red"",""blue"",""high nameability""]","right-left","[""blue"",""red""]","4","high nameability","36","right","iti",""
"html-button-response","177","357447","0.0-137.0","CAN_138","138","","","","","","466","","0","mustard","turquoise","[""mustard"",""turquoise"",""low nameability""]","right-left","[""turquoise"",""mustard""]","4","low nameability","37","right","trigger",""
"html-button-response","178","358065","0.0-138.0-0.0","CAN_138","138","","","","","","606","<button class=""jspsych-btn""><img src=""stimuli/mustard.png"" style=""width: 200px;height: 200px;""></button>","1","mustard","turquoise","[""mustard"",""turquoise"",""low nameability""]","right-left","[""turquoise"",""mustard""]","4","low nameability","37","right","response","1"
"html-audio-button-response","179","358271","0.0-138.0-1.0","CAN_138","138","","","","","","null","stimuli/bleep.m4a","null","mustard","turquoise","[""mustard"",""turquoise"",""low nameability""]","right-left","[""turquoise"",""mustard""]","4","low nameability","37","right","audio_feedback","1"
"html-button-response","180","358797","0.0-139.0","CAN_138","138","","","","","","null","<button class=""jspsych-btn""><img src=""stimuli/white_square.png"" style=""width: 200px;height: 200px;""></button>","null","mustard","turquoise","[""mustard"",""turquoise"",""low nameability""]","right-left","[""turquoise"",""mustard""]","4","low nameability","37","right","iti",""
"html-button-response","181","359318","0.0-140.0","CAN_138","138","","","","","","501","","0","turquoise","neonyellow","[""turquoise"",""neonyellow"",""low nameability""]","left-right","[""turquoise"",""neonyellow"",""low nameability""]","4","low nameability","38","left","trigger",""
"html-button-response","182","360090","0.0-141.0-0.0","CAN_138","138","","","","","","758","<button class=""jspsych-btn""><img src=""stimuli/turquoise.png"" style=""width: 200px;height: 200px;""></button>","0","turquoise","neonyellow","[""turquoise"",""neonyellow"",""low nameability""]","left-right","[""turquoise"",""neonyellow"",""low nameability""]","4","low nameability","38","left","response","1"
"html-audio-button-response","183","360299","0.0-141.0-1.0","CAN_138","138","","","","","","null","stimuli/bleep.m4a","null","turquoise","neonyellow","[""turquoise"",""neonyellow"",""low nameability""]","left-right","[""turquoise"",""neonyellow"",""low nameability""]","4","low nameability","38","left","audio_feedback","1"
"html-button-response","184","360818","0.0-142.0","CAN_138","138","","","","","","null","<button class=""jspsych-btn""><img src=""stimuli/white_square.png"" style=""width: 200px;height: 200px;""></button>","null","turquoise","neonyellow","[""turquoise"",""neonyellow"",""low nameability""]","left-right","[""turquoise"",""neonyellow"",""low nameability""]","4","low nameability","38","left","iti",""
"html-button-response","185","361321","0.0-143.0","CAN_138","138","","","","","","480","","0","lightred","neonyellow","[""lightred"",""neonyellow"",""low nameability""]","left-right","[""lightred"",""neonyellow"",""low nameability""]","4","low nameability","39","left","trigger",""
"html-button-response","186","361987","0.0-144.0-0.0","CAN_138","138","","","","","","657","<button class=""jspsych-btn""><img src=""stimuli/lightred.png"" style=""width: 200px;height: 200px;""></button>","0","lightred","neonyellow","[""lightred"",""neonyellow"",""low nameability""]","left-right","[""lightred"",""neonyellow"",""low nameability""]","4","low nameability","39","left","response","1"
"html-audio-button-response","187","362192","0.0-144.0-1.0","CAN_138","138","","","","","","null","stimuli/bleep.m4a","null","lightred","neonyellow","[""lightred"",""neonyellow"",""low nameability""]","left-right","[""lightred"",""neonyellow"",""low nameability""]","4","low nameability","39","left","audio_feedback","1"
"html-button-response","188","362710","0.0-145.0","CAN_138","138","","","","","","null","<button class=""jspsych-btn""><img src=""stimuli/white_square.png"" style=""width: 200px;height: 200px;""></button>","null","lightred","neonyellow","[""lightred"",""neonyellow"",""low nameability""]","left-right","[""lightred"",""neonyellow"",""low nameability""]","4","low nameability","39","left","iti",""
"html-button-response","189","363208","0.0-146.0","CAN_138","138","","","","","","479","","0","neonyellow","lightred","[""neonyellow"",""lightred"",""low nameability""]","right-left","[""lightred"",""neonyellow""]","4","low nameability","40","right","trigger",""
"html-button-response","190","365584","0.0-147.0-0.0","CAN_138","138","","","","","","2366","<button class=""jspsych-btn""><img src=""stimuli/neonyellow.png"" style=""width: 200px;height: 200px;""></button>","1","neonyellow","lightred","[""neonyellow"",""lightred"",""low nameability""]","right-left","[""lightred"",""neonyellow""]","4","low nameability","40","right","response","1"
"html-audio-button-response","191","365792","0.0-147.0-1.0","CAN_138","138","","","","","","null","stimuli/bleep.m4a","null","neonyellow","lightred","[""neonyellow"",""lightred"",""low nameability""]","right-left","[""lightred"",""neonyellow""]","4","low nameability","40","right","audio_feedback","1"
"html-button-response","192","366311","0.0-148.0","CAN_138","138","","","","","","null","<button class=""jspsych-btn""><img src=""stimuli/white_square.png"" style=""width: 200px;height: 200px;""></button>","null","neonyellow","lightred","[""neonyellow"",""lightred"",""low nameability""]","right-left","[""lightred"",""neonyellow""]","4","low nameability","40","right","iti",""
"pavlovia","193","366394","0.0-149.0","CAN_138","138","","","","","","","","","","","","","","","","","","",""
"pavlovia","194","366409","0.0-150.0","CAN_138","138","","","","","","","","","","","","","","","","","","",""
"html-audio-button-response","195","368481","0.0-151.0","CAN_138","138","","","","","","2168","stimuli/tada.m4a","0","","","","","","","","","","",""
"html-button-response","196","369271","0.0-152.0","CAN_138","138","","","","","","785","","0","","","","","","","","","","",""
"html-button-response","197","369914","0.0-153.0","CAN_138","138","","","","","","635","","0","darkgreenblue","mustard","[""darkgreenblue"",""mustard"",""low nameability""]","left-right","[""darkgreenblue"",""mustard"",""low nameability""]","5","low nameability","41","left","trigger",""
"html-button-response","198","370638","0.0-154.0-0.0","CAN_138","138","","","","","","715","<button class=""jspsych-btn""><img src=""stimuli/darkgreenblue.png"" style=""width: 200px;height: 200px;""></button>","0","darkgreenblue","mustard","[""darkgreenblue"",""mustard"",""low nameability""]","left-right","[""darkgreenblue"",""mustard"",""low nameability""]","5","low nameability","41","left","response","1"
"html-audio-button-response","199","370843","0.0-154.0-1.0","CAN_138","138","","","","","","null","stimuli/bleep.m4a","null","darkgreenblue","mustard","[""darkgreenblue"",""mustard"",""low nameability""]","left-right","[""darkgreenblue"",""mustard"",""low nameability""]","5","low nameability","41","left","audio_feedback","1"
"html-button-response","200","371355","0.0-155.0","CAN_138","138","","","","","","null","<button class=""jspsych-btn""><img src=""stimuli/white_square.png"" style=""width: 200px;height: 200px;""></button>","null","darkgreenblue","mustard","[""darkgreenblue"",""mustard"",""low nameability""]","left-right","[""darkgreenblue"",""mustard"",""low nameability""]","5","low nameability","41","left","iti",""
"html-button-response","201","372005","0.0-156.0","CAN_138","138","","","","","","621","","0","mustard","pink","[""mustard"",""pink"",""low nameability""]","left-right","[""mustard"",""pink"",""low nameability""]","5","low nameability","42","left","trigger",""
"html-button-response","202","372642","0.0-157.0-0.0","CAN_138","138","","","","","","626","<button class=""jspsych-btn""><img src=""stimuli/mustard.png"" style=""width: 200px;height: 200px;""></button>","0","mustard","pink","[""mustard"",""pink"",""low nameability""]","left-right","[""mustard"",""pink"",""low nameability""]","5","low nameability","42","left","response","1"
"html-audio-button-response","203","372857","0.0-157.0-1.0","CAN_138","138","","","","","","null","stimuli/bleep.m4a","null","mustard","pink","[""mustard"",""pink"",""low nameability""]","left-right","[""mustard"",""pink"",""low nameability""]","5","low nameability","42","left","audio_feedback","1"
"html-button-response","204","373380","0.0-158.0","CAN_138","138","","","","","","null","<button class=""jspsych-btn""><img src=""stimuli/white_square.png"" style=""width: 200px;height: 200px;""></button>","null","mustard","pink","[""mustard"",""pink"",""low nameability""]","left-right","[""mustard"",""pink"",""low nameability""]","5","low nameability","42","left","iti",""
"html-button-response","205","374045","0.0-159.0","CAN_138","138","","","","","","650","","0","orange","yellow","[""orange"",""yellow"",""high nameability""]","left-right","[""orange"",""yellow"",""high nameability""]","5","high nameability","43","left","trigger",""
"html-button-response","206","374678","0.0-160.0-0.0","CAN_138","138","","","","","","625","<button class=""jspsych-btn""><img src=""stimuli/orange.png"" style=""width: 200px;height: 200px;""></button>","0","orange","yellow","[""orange"",""yellow"",""high nameability""]","left-right","[""orange"",""yellow"",""high nameability""]","5","high nameability","43","left","response","1"
"html-audio-button-response","207","374883","0.0-160.0-1.0","CAN_138","138","","","","","","null","stimuli/bleep.m4a","null","orange","yellow","[""orange"",""yellow"",""high nameability""]","left-right","[""orange"",""yellow"",""high nameability""]","5","high nameability","43","left","audio_feedback","1"
"html-button-response","208","375403","0.0-161.0","CAN_138","138","","","","","","null","<button class=""jspsych-btn""><img src=""stimuli/white_square.png"" style=""width: 200px;height: 200px;""></button>","null","orange","yellow","[""orange"",""yellow"",""high nameability""]","left-right","[""orange"",""yellow"",""high nameability""]","5","high nameability","43","left","iti",""
"html-button-response","209","376025","0.0-162.0","CAN_138","138","","","","","","603","","0","pink","turquoise","[""pink"",""turquoise"",""low nameability""]","left-right","[""pink"",""turquoise"",""low nameability""]","5","low nameability","44","left","trigger",""
"html-button-response","210","376614","0.0-163.0-0.0","CAN_138","138","","","","","","584","<button class=""jspsych-btn""><img src=""stimuli/pink.png"" style=""width: 200px;height: 200px;""></button>","0","pink","turquoise","[""pink"",""turquoise"",""low nameability""]","left-right","[""pink"",""turquoise"",""low nameability""]","5","low nameability","44","left","response","1"
"html-audio-button-response","211","376816","0.0-163.0-1.0","CAN_138","138","","","","","","null","stimuli/bleep.m4a","null","pink","turquoise","[""pink"",""turquoise"",""low nameability""]","left-right","[""pink"",""turquoise"",""low nameability""]","5","low nameability","44","left","audio_feedback","1"
"html-button-response","212","377336","0.0-164.0","CAN_138","138","","","","","","null","<button class=""jspsych-btn""><img src=""stimuli/white_square.png"" style=""width: 200px;height: 200px;""></button>","null","pink","turquoise","[""pink"",""turquoise"",""low nameability""]","left-right","[""pink"",""turquoise"",""low nameability""]","5","low nameability","44","left","iti",""
"html-button-response","213","377808","0.0-165.0","CAN_138","138","","","","","","454","","0","darkgreenblue","pink","[""darkgreenblue"",""pink"",""low nameability""]","left-right","[""darkgreenblue"",""pink"",""low nameability""]","5","low nameability","45","left","trigger",""
"html-button-response","214","378398","0.0-166.0-0.0","CAN_138","138","","","","","","583","<button class=""jspsych-btn""><img src=""stimuli/darkgreenblue.png"" style=""width: 200px;height: 200px;""></button>","0","darkgreenblue","pink","[""darkgreenblue"",""pink"",""low nameability""]","left-right","[""darkgreenblue"",""pink"",""low nameability""]","5","low nameability","45","left","response","1"
"html-audio-button-response","215","378602","0.0-166.0-1.0","CAN_138","138","","","","","","null","stimuli/bleep.m4a","null","darkgreenblue","pink","[""darkgreenblue"",""pink"",""low nameability""]","left-right","[""darkgreenblue"",""pink"",""low nameability""]","5","low nameability","45","left","audio_feedback","1"
"html-button-response","216","379119","0.0-167.0","CAN_138","138","","","","","","null","<button class=""jspsych-btn""><img src=""stimuli/white_square.png"" style=""width: 200px;height: 200px;""></button>","null","darkgreenblue","pink","[""darkgreenblue"",""pink"",""low nameability""]","left-right","[""darkgreenblue"",""pink"",""low nameability""]","5","low nameability","45","left","iti",""
"html-button-response","217","379792","0.0-168.0","CAN_138","138","","","","","","658","","0","blue","purple","[""blue"",""purple"",""high nameability""]","left-right","[""blue"",""purple"",""high nameability""]","5","high nameability","46","left","trigger",""
"html-button-response","218","380405","0.0-169.0-0.0","CAN_138","138","","","","","","602","<button class=""jspsych-btn""><img src=""stimuli/blue.png"" style=""width: 200px;height: 200px;""></button>","0","blue","purple","[""blue"",""purple"",""high nameability""]","left-right","[""blue"",""purple"",""high nameability""]","5","high nameability","46","left","response","1"
"html-audio-button-response","219","380607","0.0-169.0-1.0","CAN_138","138","","","","","","null","stimuli/bleep.m4a","null","blue","purple","[""blue"",""purple"",""high nameability""]","left-right","[""blue"",""purple"",""high nameability""]","5","high nameability","46","left","audio_feedback","1"
"html-button-response","220","381128","0.0-170.0","CAN_138","138","","","","","","null","<button class=""jspsych-btn""><img src=""stimuli/white_square.png"" style=""width: 200px;height: 200px;""></button>","null","blue","purple","[""blue"",""purple"",""high nameability""]","left-right","[""blue"",""purple"",""high nameability""]","5","high nameability","46","left","iti",""
"html-button-response","221","381676","0.0-171.0","CAN_138","138","","","","","","527","","0","brown","red","[""brown"",""red"",""high nameability""]","right-left","[""red"",""brown""]","5","high nameability","47","right","trigger",""
"html-button-response","222","382546","0.0-172.0-0.0","CAN_138","138","","","","","","863","<button class=""jspsych-btn""><img src=""stimuli/brown.png"" style=""width: 200px;height: 200px;""></button>","1","brown","red","[""brown"",""red"",""high nameability""]","right-left","[""red"",""brown""]","5","high nameability","47","right","response","1"
"html-audio-button-response","223","382751","0.0-172.0-1.0","CAN_138","138","","","","","","null","stimuli/bleep.m4a","null","brown","red","[""brown"",""red"",""high nameability""]","right-left","[""red"",""brown""]","5","high nameability","47","right","audio_feedback","1"
"html-button-response","224","383277","0.0-173.0","CAN_138","138","","","","","","null","<button class=""jspsych-btn""><img src=""stimuli/white_square.png"" style=""width: 200px;height: 200px;""></button>","null","brown","red","[""brown"",""red"",""high nameability""]","right-left","[""red"",""brown""]","5","high nameability","47","right","iti",""
"html-button-response","225","383792","0.0-174.0","CAN_138","138","","","","","","491","","0","orange","purple","[""orange"",""purple"",""high nameability""]","right-left","[""purple"",""orange""]","5","high nameability","48","right","trigger",""
"html-button-response","226","384441","0.0-175.0-0.0","CAN_138","138","","","","","","642","<button class=""jspsych-btn""><img src=""stimuli/orange.png"" style=""width: 200px;height: 200px;""></button>","1","orange","purple","[""orange"",""purple"",""high nameability""]","right-left","[""purple"",""orange""]","5","high nameability","48","right","response","1"
"html-audio-button-response","227","384644","0.0-175.0-1.0","CAN_138","138","","","","","","null","stimuli/bleep.m4a","null","orange","purple","[""orange"",""purple"",""high nameability""]","right-left","[""purple"",""orange""]","5","high nameability","48","right","audio_feedback","1"
"html-button-response","228","385167","0.0-176.0","CAN_138","138","","","","","","null","<button class=""jspsych-btn""><img src=""stimuli/white_square.png"" style=""width: 200px;height: 200px;""></button>","null","orange","purple","[""orange"",""purple"",""high nameability""]","right-left","[""purple"",""orange""]","5","high nameability","48","right","iti",""
"html-button-response","229","385687","0.0-177.0","CAN_138","138","","","","","","501","","0","orange","red","[""orange"",""red"",""high nameability""]","left-right","[""orange"",""red"",""high nameability""]","5","high nameability","49","left","trigger",""
"html-button-response","230","386401","0.0-178.0-0.0","CAN_138","138","","","","","","708","<button class=""jspsych-btn""><img src=""stimuli/orange.png"" style=""width: 200px;height: 200px;""></button>","0","orange","red","[""orange"",""red"",""high nameability""]","left-right","[""orange"",""red"",""high nameability""]","5","high nameability","49","left","response","1"
"html-audio-button-response","231","386603","0.0-178.0-1.0","CAN_138","138","","","","","","null","stimuli/bleep.m4a","null","orange","red","[""orange"",""red"",""high nameability""]","left-right","[""orange"",""red"",""high nameability""]","5","high nameability","49","left","audio_feedback","1"
"html-button-response","232","387119","0.0-179.0","CAN_138","138","","","","","","null","<button class=""jspsych-btn""><img src=""stimuli/white_square.png"" style=""width: 200px;height: 200px;""></button>","null","orange","red","[""orange"",""red"",""high nameability""]","left-right","[""orange"",""red"",""high nameability""]","5","high nameability","49","left","iti",""
"html-button-response","233","387696","0.0-180.0","CAN_138","138","","","","","","554","","0","neonyellow","mustard","[""neonyellow"",""mustard"",""low nameability""]","left-right","[""neonyellow"",""mustard"",""low nameability""]","5","low nameability","50","left","trigger",""
"html-button-response","234","388363","0.0-181.0-0.0","CAN_138","138","","","","","","661","<button class=""jspsych-btn""><img src=""stimuli/neonyellow.png"" style=""width: 200px;height: 200px;""></button>","0","neonyellow","mustard","[""neonyellow"",""mustard"",""low nameability""]","left-right","[""neonyellow"",""mustard"",""low nameability""]","5","low nameability","50","left","response","1"
"html-audio-button-response","235","388567","0.0-181.0-1.0","CAN_138","138","","","","","","null","stimuli/bleep.m4a","null","neonyellow","mustard","[""neonyellow"",""mustard"",""low nameability""]","left-right","[""neonyellow"",""mustard"",""low nameability""]","5","low nameability","50","left","audio_feedback","1"
"html-button-response","236","389089","0.0-182.0","CAN_138","138","","","","","","null","<button class=""jspsych-btn""><img src=""stimuli/white_square.png"" style=""width: 200px;height: 200px;""></button>","null","neonyellow","mustard","[""neonyellow"",""mustard"",""low nameability""]","left-right","[""neonyellow"",""mustard"",""low nameability""]","5","low nameability","50","left","iti",""
"pavlovia","237","389157","0.0-183.0","CAN_138","138","","","","","","","","","","","","","","","","","","",""
"pavlovia","238","389166","0.0-184.0","CAN_138","138","","","","","","","","","","","","","","","","","","",""
"html-audio-button-response","239","391152","0.0-185.0","CAN_138","138","","","","","","2059","stimuli/tada.m4a","0","","","","","","","","","","",""
"html-button-response","240","391853","0.0-186.0","CAN_138","138","","","","","","694","","0","","","","","","","","","","",""
"html-button-response","241","392465","0.0-187.0","CAN_138","138","","","","","","606","","0","mustard","lightred","[""mustard"",""lightred"",""low nameability""]","left-right","[""mustard"",""lightred"",""low nameability""]","6","low nameability","51","left","trigger",""
"html-button-response","242","393144","0.0-188.0-0.0","CAN_138","138","","","","","","669","<button class=""jspsych-btn""><img src=""stimuli/mustard.png"" style=""width: 200px;height: 200px;""></button>","0","mustard","lightred","[""mustard"",""lightred"",""low nameability""]","left-right","[""mustard"",""lightred"",""low nameability""]","6","low nameability","51","left","response","1"
"html-audio-button-response","243","393348","0.0-188.0-1.0","CAN_138","138","","","","","","null","stimuli/bleep.m4a","null","mustard","lightred","[""mustard"",""lightred"",""low nameability""]","left-right","[""mustard"",""lightred"",""low nameability""]","6","low nameability","51","left","audio_feedback","1"
"html-button-response","244","393865","0.0-189.0","CAN_138","138","","","","","","null","<button class=""jspsych-btn""><img src=""stimuli/white_square.png"" style=""width: 200px;height: 200px;""></button>","null","mustard","lightred","[""mustard"",""lightred"",""low nameability""]","left-right","[""mustard"",""lightred"",""low nameability""]","6","low nameability","51","left","iti",""
"html-button-response","245","394587","0.0-190.0","CAN_138","138","","","","","","702","","0","yellow","purple","[""yellow"",""purple"",""high nameability""]","right-left","[""purple"",""yellow""]","6","high nameability","52","right","trigger",""
"html-button-response","246","395899","0.0-191.0-0.0","CAN_138","138","","","","","","1304","<button class=""jspsych-btn""><img src=""stimuli/yellow.png"" style=""width: 200px;height: 200px;""></button>","1","yellow","purple","[""yellow"",""purple"",""high nameability""]","right-left","[""purple"",""yellow""]","6","high nameability","52","right","response","1"
"html-audio-button-response","247","396104","0.0-191.0-1.0","CAN_138","138","","","","","","null","stimuli/bleep.m4a","null","yellow","purple","[""yellow"",""purple"",""high nameability""]","right-left","[""purple"",""yellow""]","6","high nameability","52","right","audio_feedback","1"
"html-button-response","248","396624","0.0-192.0","CAN_138","138","","","","","","null","<button class=""jspsych-btn""><img src=""stimuli/white_square.png"" style=""width: 200px;height: 200px;""></button>","null","yellow","purple","[""yellow"",""purple"",""high nameability""]","right-left","[""purple"",""yellow""]","6","high nameability","52","right","iti",""
"html-button-response","249","397326","0.0-193.0","CAN_138","138","","","","","","684","","0","orange","blue","[""orange"",""blue"",""high nameability""]","left-right","[""orange"",""blue"",""high nameability""]","6","high nameability","53","left","trigger",""
"html-button-response","250","398028","0.0-194.0-0.0","CAN_138","138","","","","","","696","<button class=""jspsych-btn""><img src=""stimuli/orange.png"" style=""width: 200px;height: 200px;""></button>","0","orange","blue","[""orange"",""blue"",""high nameability""]","left-right","[""orange"",""blue"",""high nameability""]","6","high nameability","53","left","response","1"
"html-audio-button-response","251","398237","0.0-194.0-1.0","CAN_138","138","","","","","","null","stimuli/bleep.m4a","null","orange","blue","[""orange"",""blue"",""high nameability""]","left-right","[""orange"",""blue"",""high nameability""]","6","high nameability","53","left","audio_feedback","1"
"html-button-response","252","398758","0.0-195.0","CAN_138","138","","","","","","null","<button class=""jspsych-btn""><img src=""stimuli/white_square.png"" style=""width: 200px;height: 200px;""></button>","null","orange","blue","[""orange"",""blue"",""high nameability""]","left-right","[""orange"",""blue"",""high nameability""]","6","high nameability","53","left","iti",""
"html-button-response","253","399442","0.0-196.0","CAN_138","138","","","","","","661","","0","turquoise","darkgreenblue","[""turquoise"",""darkgreenblue"",""low nameability""]","right-left","[""darkgreenblue"",""turquoise""]","6","low nameability","54","right","trigger",""
"html-button-response","254","400373","0.0-197.0-0.0","CAN_138","138","","","","","","925","<button class=""jspsych-btn""><img src=""stimuli/turquoise.png"" style=""width: 200px;height: 200px;""></button>","1","turquoise","darkgreenblue","[""turquoise"",""darkgreenblue"",""low nameability""]","right-left","[""darkgreenblue"",""turquoise""]","6","low nameability","54","right","response","1"
"html-audio-button-response","255","400579","0.0-197.0-1.0","CAN_138","138","","","","","","null","stimuli/bleep.m4a","null","turquoise","darkgreenblue","[""turquoise"",""darkgreenblue"",""low nameability""]","right-left","[""darkgreenblue"",""turquoise""]","6","low nameability","54","right","audio_feedback","1"
"html-button-response","256","401094","0.0-198.0","CAN_138","138","","","","","","null","<button class=""jspsych-btn""><img src=""stimuli/white_square.png"" style=""width: 200px;height: 200px;""></button>","null","turquoise","darkgreenblue","[""turquoise"",""darkgreenblue"",""low nameability""]","right-left","[""darkgreenblue"",""turquoise""]","6","low nameability","54","right","iti",""
"html-button-response","257","402245","0.0-199.0","CAN_138","138","","","","","","1131","","0","pink","darkgreenblue","[""pink"",""darkgreenblue"",""low nameability""]","left-right","[""pink"",""darkgreenblue"",""low nameability""]","6","low nameability","55","left","trigger",""
"html-button-response","258","403004","0.0-200.0-0.0","CAN_138","138","","","","","","751","<button class=""jspsych-btn""><img src=""stimuli/pink.png"" style=""width: 200px;height: 200px;""></button>","0","pink","darkgreenblue","[""pink"",""darkgreenblue"",""low nameability""]","left-right","[""pink"",""darkgreenblue"",""low nameability""]","6","low nameability","55","left","response","1"
"html-audio-button-response","259","403208","0.0-200.0-1.0","CAN_138","138","","","","","","null","stimuli/bleep.m4a","null","pink","darkgreenblue","[""pink"",""darkgreenblue"",""low nameability""]","left-right","[""pink"",""darkgreenblue"",""low nameability""]","6","low nameability","55","left","audio_feedback","1"
"html-button-response","260","403729","0.0-201.0","CAN_138","138","","","","","","null","<button class=""jspsych-btn""><img src=""stimuli/white_square.png"" style=""width: 200px;height: 200px;""></button>","null","pink","darkgreenblue","[""pink"",""darkgreenblue"",""low nameability""]","left-right","[""pink"",""darkgreenblue"",""low nameability""]","6","low nameability","55","left","iti",""
"html-button-response","261","404425","0.0-202.0","CAN_138","138","","","","","","676","","0","blue","yellow","[""blue"",""yellow"",""high nameability""]","right-left","[""yellow"",""blue""]","6","high nameability","56","right","trigger",""
"html-button-response","262","405158","0.0-203.0-0.0","CAN_138","138","","","","","","726","<button class=""jspsych-btn""><img src=""stimuli/blue.png"" style=""width: 200px;height: 200px;""></button>","1","blue","yellow","[""blue"",""yellow"",""high nameability""]","right-left","[""yellow"",""blue""]","6","high nameability","56","right","response","1"
"html-audio-button-response","263","405359","0.0-203.0-1.0","CAN_138","138","","","","","","null","stimuli/bleep.m4a","null","blue","yellow","[""blue"",""yellow"",""high nameability""]","right-left","[""yellow"",""blue""]","6","high nameability","56","right","audio_feedback","1"
"html-button-response","264","405880","0.0-204.0","CAN_138","138","","","","","","null","<button class=""jspsych-btn""><img src=""stimuli/white_square.png"" style=""width: 200px;height: 200px;""></button>","null","blue","yellow","[""blue"",""yellow"",""high nameability""]","right-left","[""yellow"",""blue""]","6","high nameability","56","right","iti",""
"html-button-response","265","406573","0.0-205.0","CAN_138","138","","","","","","672","","0","yellow","orange","[""yellow"",""orange"",""high nameability""]","right-left","[""orange"",""yellow""]","6","high nameability","57","right","trigger",""
"html-button-response","266","407334","0.0-206.0-0.0","CAN_138","138","","","","","","753","<button class=""jspsych-btn""><img src=""stimuli/yellow.png"" style=""width: 200px;height: 200px;""></button>","1","yellow","orange","[""yellow"",""orange"",""high nameability""]","right-left","[""orange"",""yellow""]","6","high nameability","57","right","response","1"
"html-audio-button-response","267","407539","0.0-206.0-1.0","CAN_138","138","","","","","","null","stimuli/bleep.m4a","null","yellow","orange","[""yellow"",""orange"",""high nameability""]","right-left","[""orange"",""yellow""]","6","high nameability","57","right","audio_feedback","1"
"html-button-response","268","408058","0.0-207.0","CAN_138","138","","","","","","null","<button class=""jspsych-btn""><img src=""stimuli/white_square.png"" style=""width: 200px;height: 200px;""></button>","null","yellow","orange","[""yellow"",""orange"",""high nameability""]","right-left","[""orange"",""yellow""]","6","high nameability","57","right","iti",""
"html-button-response","269","408792","0.0-208.0","CAN_138","138","","","","","","717","","0","blue","red","[""blue"",""red"",""high nameability""]","left-right","[""blue"",""red"",""high nameability""]","6","high nameability","58","left","trigger",""
"html-button-response","270","409398","0.0-209.0-0.0","CAN_138","138","","","","","","598","<button class=""jspsych-btn""><img src=""stimuli/blue.png"" style=""width: 200px;height: 200px;""></button>","0","blue","red","[""blue"",""red"",""high nameability""]","left-right","[""blue"",""red"",""high nameability""]","6","high nameability","58","left","response","1"
"html-audio-button-response","271","409603","0.0-209.0-1.0","CAN_138","138","","","","","","null","stimuli/bleep.m4a","null","blue","red","[""blue"",""red"",""high nameability""]","left-right","[""blue"",""red"",""high nameability""]","6","high nameability","58","left","audio_feedback","1"
"html-button-response","272","410124","0.0-210.0","CAN_138","138","","","","","","null","<button class=""jspsych-btn""><img src=""stimuli/white_square.png"" style=""width: 200px;height: 200px;""></button>","null","blue","red","[""blue"",""red"",""high nameability""]","left-right","[""blue"",""red"",""high nameability""]","6","high nameability","58","left","iti",""
"html-button-response","273","410902","0.0-211.0","CAN_138","138","","","","","","759","","0","pink","lightred","[""pink"",""lightred"",""low nameability""]","right-left","[""lightred"",""pink""]","6","low nameability","59","right","trigger",""
"html-button-response","274","412350","0.0-212.0-0.0","CAN_138","138","","","","","","1441","<button class=""jspsych-btn""><img src=""stimuli/pink.png"" style=""width: 200px;height: 200px;""></button>","1","pink","lightred","[""pink"",""lightred"",""low nameability""]","right-left","[""lightred"",""pink""]","6","low nameability","59","right","response","1"
"html-audio-button-response","275","412555","0.0-212.0-1.0","CAN_138","138","","","","","","null","stimuli/bleep.m4a","null","pink","lightred","[""pink"",""lightred"",""low nameability""]","right-left","[""lightred"",""pink""]","6","low nameability","59","right","audio_feedback","1"
"html-button-response","276","413075","0.0-213.0","CAN_138","138","","","","","","null","<button class=""jspsych-btn""><img src=""stimuli/white_square.png"" style=""width: 200px;height: 200px;""></button>","null","pink","lightred","[""pink"",""lightred"",""low nameability""]","right-left","[""lightred"",""pink""]","6","low nameability","59","right","iti",""
"html-button-response","277","413778","0.0-214.0","CAN_138","138","","","","","","684","","0","mustard","neonyellow","[""mustard"",""neonyellow"",""low nameability""]","left-right","[""mustard"",""neonyellow"",""low nameability""]","6","low nameability","60","left","trigger",""
"html-button-response","278","414444","0.0-215.0-0.0","CAN_138","138","","","","","","658","<button class=""jspsych-btn""><img src=""stimuli/mustard.png"" style=""width: 200px;height: 200px;""></button>","0","mustard","neonyellow","[""mustard"",""neonyellow"",""low nameability""]","left-right","[""mustard"",""neonyellow"",""low nameability""]","6","low nameability","60","left","response","1"
"html-audio-button-response","279","414658","0.0-215.0-1.0","CAN_138","138","","","","","","null","stimuli/bleep.m4a","null","mustard","neonyellow","[""mustard"",""neonyellow"",""low nameability""]","left-right","[""mustard"",""neonyellow"",""low nameability""]","6","low nameability","60","left","audio_feedback","1"
"html-button-response","280","415188","0.0-216.0","CAN_138","138","","","","","","null","<button class=""jspsych-btn""><img src=""stimuli/white_square.png"" style=""width: 200px;height: 200px;""></button>","null","mustard","neonyellow","[""mustard"",""neonyellow"",""low nameability""]","left-right","[""mustard"",""neonyellow"",""low nameability""]","6","low nameability","60","left","iti",""
