"trial_type","trial_index","time_elapsed","internal_node_id","subject_id","seed","success","timeout","failed_images","failed_audio","failed_video","rt","stimulus","response","target","foil","choices","combination_order","choices_in_order","round","condition","trial_counter","target_location","trial_kind","correct"
"pavlovia","0","29","0.0-0.0","CAN_116","116","","","","","","","","","","","","","","","","","","",""
"preload","1","736","0.0-1.0","CAN_116","116","true","false","[]","[]","[]","","","","","","","","","","","","","",""
"fullscreen","2","6788","0.0-2.0","CAN_116","116","true","","","","","","","","","","","","","","","","","",""
"html-button-response","3","26405","0.0-3.0","CAN_116","116","","","","","","19596","","0","","","","","","","","","","",""
"html-button-response","4","28856","0.0-4.0","CAN_116","116","","","","","","2437","","0","star","square","[""square"",""star""]","left-right","[""square"",""star""]","1","practice","1","right","trigger",""
"html-button-response","5","30974","0.0-5.0-0.0","CAN_116","116","","","","","","2108","<button class=""jspsych-btn""><img src=""stimuli/star.png"" style=""width: 200px;height: 200px;""></button>","1","star","square","[""square"",""star""]","left-right","[""square"",""star""]","1","practice","1","right","response","1"
"html-audio-button-response","6","31186","0.0-5.0-1.0","CAN_116","116","","","","","","null","stimuli/bleep.m4a","null","star","square","[""square"",""star""]","left-right","[""square"",""star""]","1","practice","1","right","audio_feedback","1"
"html-button-response","7","31714","0.0-6.0","CAN_116","116","","","","","","null","<button class=""jspsych-btn""><img src=""stimuli/white_square.png"" style=""width: 200px;height: 200px;""></button>","null","star","square","[""square"",""star""]","left-right","[""square"",""star""]","1","practice","1","right","iti",""
"html-button-response","8","32460","0.0-7.0","CAN_116","116","","","","","","721","","0","triangle","pentagram","[""triangle"",""pentagram""]","left-right","[""triangle"",""pentagram""]","1","practice","1","left","trigger",""
"html-button-response","9","33198","0.0-8.0-0.0","CAN_116","116","","","","","","726","<button class=""jspsych-btn""><img src=""stimuli/triangle.png"" style=""width: 200px;height: 200px;""></button>","0","triangle","pentagram","[""triangle"",""pentagram""]","left-right","[""triangle"",""pentagram""]","1","practice","1","left","response","1"
"html-audio-button-response","10","33407","0.0-8.0-1.0","CAN_116","116","","","","","","null","stimuli/bleep.m4a","null","triangle","pentagram","[""triangle"",""pentagram""]","left-right","[""triangle"",""pentagram""]","1","practice","1","left","audio_feedback","1"
"html-button-response","11","33927","0.0-9.0","CAN_116","116","","","","","","null","<button class=""jspsych-btn""><img src=""stimuli/white_square.png"" style=""width: 200px;height: 200px;""></button>","null","triangle","pentagram","[""triangle"",""pentagram""]","left-right","[""triangle"",""pentagram""]","1","practice","1","left","iti",""
"html-button-response","12","34646","0.0-10.0","CAN_116","116","","","","","","696","","0","diamond","rectangle","[""rectangle"",""diamond""]","left-right","[""rectangle"",""diamond""]","1","practice","1","right","trigger",""
"html-button-response","13","35433","0.0-11.0-0.0","CAN_116","116","","","","","","777","<button class=""jspsych-btn""><img src=""stimuli/diamond.png"" style=""width: 200px;height: 200px;""></button>","1","diamond","rectangle","[""rectangle"",""diamond""]","left-right","[""rectangle"",""diamond""]","1","practice","1","right","response","1"
"html-audio-button-response","14","35638","0.0-11.0-1.0","CAN_116","116","","","","","","null","stimuli/bleep.m4a","null","diamond","rectangle","[""rectangle"",""diamond""]","left-right","[""rectangle"",""diamond""]","1","practice","1","right","audio_feedback","1"
"html-button-response","15","36157","0.0-12.0","CAN_116","116","","","","","","null","<button class=""jspsych-btn""><img src=""stimuli/white_square.png"" style=""width: 200px;height: 200px;""></button>","null","diamond","rectangle","[""rectangle"",""diamond""]","left-right","[""rectangle"",""diamond""]","1","practice","1","right","iti",""
"html-button-response","16","37064","0.0-13.0","CAN_116","116","","","","","","881","","0","pentagram","star","[""pentagram"",""star""]","left-right","[""pentagram"",""star""]","1","practice","1","left","trigger",""
"html-button-response","17","37891","0.0-14.0-0.0","CAN_116","116","","","","","","819","<button class=""jspsych-btn""><img src=""stimuli/pentagram.png"" style=""width: 200px;height: 200px;""></button>","0","pentagram","star","[""pentagram"",""star""]","left-right","[""pentagram"",""star""]","1","practice","1","left","response","1"
"html-audio-button-response","18","38101","0.0-14.0-1.0","CAN_116","116","","","","","","null","stimuli/bleep.m4a","null","pentagram","star","[""pentagram"",""star""]","left-right","[""pentagram"",""star""]","1","practice","1","left","audio_feedback","1"
"html-button-response","19","38620","0.0-15.0","CAN_116","116","","","","","","null","<button class=""jspsych-btn""><img src=""stimuli/white_square.png"" style=""width: 200px;height: 200px;""></button>","null","pentagram","star","[""pentagram"",""star""]","left-right","[""pentagram"",""star""]","1","practice","1","left","iti",""
"html-button-response","20","45111","0.0-16.0","CAN_116","116","","","","","","6477","","0","","","","","","","","","","",""
"html-button-response","21","45876","0.0-17.0","CAN_116","116","","","","","","756","","0","orange","purple","[""orange"",""purple"",""high nameability""]","left-right","[""orange"",""purple"",""high nameability""]","1","high nameability","1","left","trigger",""
"html-button-response","22","46584","0.0-18.0-0.0","CAN_116","116","","","","","","694","<button class=""jspsych-btn""><img src=""stimuli/orange.png"" style=""width: 200px;height: 200px;""></button>","0","orange","purple","[""orange"",""purple"",""high nameability""]","left-right","[""orange"",""purple"",""high nameability""]","1","high nameability","1","left","response","1"
"html-audio-button-response","23","46788","0.0-18.0-1.0","CAN_116","116","","","","","","null","stimuli/bleep.m4a","null","orange","purple","[""orange"",""purple"",""high nameability""]","left-right","[""orange"",""purple"",""high nameability""]","1","high nameability","1","left","audio_feedback","1"
"html-button-response","24","47308","0.0-19.0","CAN_116","116","","","","","","null","<button class=""jspsych-btn""><img src=""stimuli/white_square.png"" style=""width: 200px;height: 200px;""></button>","null","orange","purple","[""orange"",""purple"",""high nameability""]","left-right","[""orange"",""purple"",""high nameability""]","1","high nameability","1","left","iti",""
"html-button-response","25","48052","0.0-20.0","CAN_116","116","","","","","","719","","0","red","brown","[""red"",""brown"",""high nameability""]","right-left","[""brown"",""red""]","1","high nameability","2","right","trigger",""
"html-button-response","26","48882","0.0-21.0-0.0","CAN_116","116","","","","","","819","<button class=""jspsych-btn""><img src=""stimuli/red.png"" style=""width: 200px;height: 200px;""></button>","1","red","brown","[""red"",""brown"",""high nameability""]","right-left","[""brown"",""red""]","1","high nameability","2","right","response","1"
"html-audio-button-response","27","49086","0.0-21.0-1.0","CAN_116","116","","","","","","null","stimuli/bleep.m4a","null","red","brown","[""red"",""brown"",""high nameability""]","right-left","[""brown"",""red""]","1","high nameability","2","right","audio_feedback","1"
"html-button-response","28","49610","0.0-22.0","CAN_116","116","","","","","","null","<button class=""jspsych-btn""><img src=""stimuli/white_square.png"" style=""width: 200px;height: 200px;""></button>","null","red","brown","[""red"",""brown"",""high nameability""]","right-left","[""brown"",""red""]","1","high nameability","2","right","iti",""
"html-button-response","29","50227","0.0-23.0","CAN_116","116","","","","","","595","","0","darkgreenblue","pink","[""darkgreenblue"",""pink"",""low nameability""]","right-left","[""pink"",""darkgreenblue""]","1","low nameability","3","right","trigger",""
"html-button-response","30","50784","0.0-24.0-0.0","CAN_116","116","","","","","","548","<button class=""jspsych-btn""><img src=""stimuli/darkgreenblue.png"" style=""width: 200px;height: 200px;""></button>","1","darkgreenblue","pink","[""darkgreenblue"",""pink"",""low nameability""]","right-left","[""pink"",""darkgreenblue""]","1","low nameability","3","right","response","1"
"html-audio-button-response","31","50990","0.0-24.0-1.0","CAN_116","116","","","","","","null","stimuli/bleep.m4a","null","darkgreenblue","pink","[""darkgreenblue"",""pink"",""low nameability""]","right-left","[""pink"",""darkgreenblue""]","1","low nameability","3","right","audio_feedback","1"
"html-button-response","32","51516","0.0-25.0","CAN_116","116","","","","","","null","<button class=""jspsych-btn""><img src=""stimuli/white_square.png"" style=""width: 200px;height: 200px;""></button>","null","darkgreenblue","pink","[""darkgreenblue"",""pink"",""low nameability""]","right-left","[""pink"",""darkgreenblue""]","1","low nameability","3","right","iti",""
"html-button-response","33","52124","0.0-26.0","CAN_116","116","","","","","","588","","0","purple","brown","[""purple"",""brown"",""high nameability""]","right-left","[""brown"",""purple""]","1","high nameability","4","right","trigger",""
"html-button-response","34","52673","0.0-27.0-0.0","CAN_116","116","","","","","","541","<button class=""jspsych-btn""><img src=""stimuli/purple.png"" style=""width: 200px;height: 200px;""></button>","1","purple","brown","[""purple"",""brown"",""high nameability""]","right-left","[""brown"",""purple""]","1","high nameability","4","right","response","1"
"html-audio-button-response","35","52876","0.0-27.0-1.0","CAN_116","116","","","","","","null","stimuli/bleep.m4a","null","purple","brown","[""purple"",""brown"",""high nameability""]","right-left","[""brown"",""purple""]","1","high nameability","4","right","audio_feedback","1"
"html-button-response","36","53390","0.0-28.0","CAN_116","116","","","","","","null","<button class=""jspsych-btn""><img src=""stimuli/white_square.png"" style=""width: 200px;height: 200px;""></button>","null","purple","brown","[""purple"",""brown"",""high nameability""]","right-left","[""brown"",""purple""]","1","high nameability","4","right","iti",""
"html-button-response","37","53946","0.0-29.0","CAN_116","116","","","","","","537","","0","red","purple","[""red"",""purple"",""high nameability""]","left-right","[""red"",""purple"",""high nameability""]","1","high nameability","5","left","trigger",""
"html-button-response","38","54585","0.0-30.0-0.0","CAN_116","116","","","","","","630","<button class=""jspsych-btn""><img src=""stimuli/red.png"" style=""width: 200px;height: 200px;""></button>","0","red","purple","[""red"",""purple"",""high nameability""]","left-right","[""red"",""purple"",""high nameability""]","1","high nameability","5","left","response","1"
"html-audio-button-response","39","54789","0.0-30.0-1.0","CAN_116","116","","","","","","null","stimuli/bleep.m4a","null","red","purple","[""red"",""purple"",""high nameability""]","left-right","[""red"",""purple"",""high nameability""]","1","high nameability","5","left","audio_feedback","1"
"html-button-response","40","55308","0.0-31.0","CAN_116","116","","","","","","null","<button class=""jspsych-btn""><img src=""stimuli/white_square.png"" style=""width: 200px;height: 200px;""></button>","null","red","purple","[""red"",""purple"",""high nameability""]","left-right","[""red"",""purple"",""high nameability""]","1","high nameability","5","left","iti",""
"html-button-response","41","55941","0.0-32.0","CAN_116","116","","","","","","618","","0","brown","red","[""brown"",""red"",""high nameability""]","right-left","[""red"",""brown""]","1","high nameability","6","right","trigger",""
"html-button-response","42","56553","0.0-33.0-0.0","CAN_116","116","","","","","","603","<button class=""jspsych-btn""><img src=""stimuli/brown.png"" style=""width: 200px;height: 200px;""></button>","1","brown","red","[""brown"",""red"",""high nameability""]","right-left","[""red"",""brown""]","1","high nameability","6","right","response","1"
"html-audio-button-response","43","56757","0.0-33.0-1.0","CAN_116","116","","","","","","null","stimuli/bleep.m4a","null","brown","red","[""brown"",""red"",""high nameability""]","right-left","[""red"",""brown""]","1","high nameability","6","right","audio_feedback","1"
"html-button-response","44","57278","0.0-34.0","CAN_116","116","","","","","","null","<button class=""jspsych-btn""><img src=""stimuli/white_square.png"" style=""width: 200px;height: 200px;""></button>","null","brown","red","[""brown"",""red"",""high nameability""]","right-left","[""red"",""brown""]","1","high nameability","6","right","iti",""
"html-button-response","45","57879","0.0-35.0","CAN_116","116","","","","","","580","","0","pink","darkgreenblue","[""pink"",""darkgreenblue"",""low nameability""]","left-right","[""pink"",""darkgreenblue"",""low nameability""]","1","low nameability","7","left","trigger",""
"html-button-response","46","58482","0.0-36.0-0.0","CAN_116","116","","","","","","596","<button class=""jspsych-btn""><img src=""stimuli/pink.png"" style=""width: 200px;height: 200px;""></button>","0","pink","darkgreenblue","[""pink"",""darkgreenblue"",""low nameability""]","left-right","[""pink"",""darkgreenblue"",""low nameability""]","1","low nameability","7","left","response","1"
"html-audio-button-response","47","58693","0.0-36.0-1.0","CAN_116","116","","","","","","null","stimuli/bleep.m4a","null","pink","darkgreenblue","[""pink"",""darkgreenblue"",""low nameability""]","left-right","[""pink"",""darkgreenblue"",""low nameability""]","1","low nameability","7","left","audio_feedback","1"
"html-button-response","48","59220","0.0-37.0","CAN_116","116","","","","","","null","<button class=""jspsych-btn""><img src=""stimuli/white_square.png"" style=""width: 200px;height: 200px;""></button>","null","pink","darkgreenblue","[""pink"",""darkgreenblue"",""low nameability""]","left-right","[""pink"",""darkgreenblue"",""low nameability""]","1","low nameability","7","left","iti",""
"html-button-response","49","59730","0.0-38.0","CAN_116","116","","","","","","493","","0","red","orange","[""red"",""orange"",""high nameability""]","right-left","[""orange"",""red""]","1","high nameability","8","right","trigger",""
"html-button-response","50","60225","0.0-39.0-0.0","CAN_116","116","","","","","","487","<button class=""jspsych-btn""><img src=""stimuli/red.png"" style=""width: 200px;height: 200px;""></button>","1","red","orange","[""red"",""orange"",""high nameability""]","right-left","[""orange"",""red""]","1","high nameability","8","right","response","1"
"html-audio-button-response","51","60445","0.0-39.0-1.0","CAN_116","116","","","","","","null","stimuli/bleep.m4a","null","red","orange","[""red"",""orange"",""high nameability""]","right-left","[""orange"",""red""]","1","high nameability","8","right","audio_feedback","1"
"html-button-response","52","60972","0.0-40.0","CAN_116","116","","","","","","null","<button class=""jspsych-btn""><img src=""stimuli/white_square.png"" style=""width: 200px;height: 200px;""></button>","null","red","orange","[""red"",""orange"",""high nameability""]","right-left","[""orange"",""red""]","1","high nameability","8","right","iti",""
"html-button-response","53","61394","0.0-41.0","CAN_116","116","","","","","","392","","0","turquoise","pink","[""turquoise"",""pink"",""low nameability""]","left-right","[""turquoise"",""pink"",""low nameability""]","1","low nameability","9","left","trigger",""
"html-button-response","54","61975","0.0-42.0-0.0","CAN_116","116","","","","","","562","<button class=""jspsych-btn""><img src=""stimuli/turquoise.png"" style=""width: 200px;height: 200px;""></button>","0","turquoise","pink","[""turquoise"",""pink"",""low nameability""]","left-right","[""turquoise"",""pink"",""low nameability""]","1","low nameability","9","left","response","1"
"html-audio-button-response","55","62185","0.0-42.0-1.0","CAN_116","116","","","","","","null","stimuli/bleep.m4a","null","turquoise","pink","[""turquoise"",""pink"",""low nameability""]","left-right","[""turquoise"",""pink"",""low nameability""]","1","low nameability","9","left","audio_feedback","1"
"html-button-response","56","62719","0.0-43.0","CAN_116","116","","","","","","null","<button class=""jspsych-btn""><img src=""stimuli/white_square.png"" style=""width: 200px;height: 200px;""></button>","null","turquoise","pink","[""turquoise"",""pink"",""low nameability""]","left-right","[""turquoise"",""pink"",""low nameability""]","1","low nameability","9","left","iti",""
"html-button-response","57","63249","0.0-44.0","CAN_116","116","","","","","","507","","0","orange","yellow","[""orange"",""yellow"",""high nameability""]","right-left","[""yellow"",""orange""]","1","high nameability","10","right","trigger",""
"html-button-response","58","63744","0.0-45.0-0.0","CAN_116","116","","","","","","482","<button class=""jspsych-btn""><img src=""stimuli/orange.png"" style=""width: 200px;height: 200px;""></button>","1","orange","yellow","[""orange"",""yellow"",""high nameability""]","right-left","[""yellow"",""orange""]","1","high nameability","10","right","response","1"
"html-audio-button-response","59","63953","0.0-45.0-1.0","CAN_116","116","","","","","","null","stimuli/bleep.m4a","null","orange","yellow","[""orange"",""yellow"",""high nameability""]","right-left","[""yellow"",""orange""]","1","high nameability","10","right","audio_feedback","1"
"html-button-response","60","64471","0.0-46.0","CAN_116","116","","","","","","null","<button class=""jspsych-btn""><img src=""stimuli/white_square.png"" style=""width: 200px;height: 200px;""></button>","null","orange","yellow","[""orange"",""yellow"",""high nameability""]","right-left","[""yellow"",""orange""]","1","high nameability","10","right","iti",""
"pavlovia","61","64597","0.0-47.0","CAN_116","116","","","","","","","","","","","","","","","","","","",""
"pavlovia","62","64625","0.0-48.0","CAN_116","116","","","","","","","","","","","","","","","","","","",""
"html-audio-button-response","63","66500","0.0-49.0","CAN_116","116","","","","","","2016","stimuli/tada.m4a","0","","","","","","","","","","",""
"html-button-response","64","67292","0.0-50.0","CAN_116","116","","","","","","778","","0","","","","","","","","","","",""
"html-button-response","65","68369","0.0-51.0","CAN_116","116","","","","","","1055","","0","blue","yellow","[""blue"",""yellow"",""high nameability""]","left-right","[""blue"",""yellow"",""high nameability""]","2","high nameability","11","left","trigger",""
"html-button-response","66","69022","0.0-52.0-0.0","CAN_116","116","","","","","","641","<button class=""jspsych-btn""><img src=""stimuli/blue.png"" style=""width: 200px;height: 200px;""></button>","0","blue","yellow","[""blue"",""yellow"",""high nameability""]","left-right","[""blue"",""yellow"",""high nameability""]","2","high nameability","11","left","response","1"
"html-audio-button-response","67","69230","0.0-52.0-1.0","CAN_116","116","","","","","","null","stimuli/bleep.m4a","null","blue","yellow","[""blue"",""yellow"",""high nameability""]","left-right","[""blue"",""yellow"",""high nameability""]","2","high nameability","11","left","audio_feedback","1"
"html-button-response","68","69764","0.0-53.0","CAN_116","116","","","","","","null","<button class=""jspsych-btn""><img src=""stimuli/white_square.png"" style=""width: 200px;height: 200px;""></button>","null","blue","yellow","[""blue"",""yellow"",""high nameability""]","left-right","[""blue"",""yellow"",""high nameability""]","2","high nameability","11","left","iti",""
"html-button-response","69","70384","0.0-54.0","CAN_116","116","","","","","","595","","0","pink","mustard","[""pink"",""mustard"",""low nameability""]","left-right","[""pink"",""mustard"",""low nameability""]","2","low nameability","12","left","trigger",""
"html-button-response","70","70955","0.0-55.0-0.0","CAN_116","116","","","","","","561","<button class=""jspsych-btn""><img src=""stimuli/pink.png"" style=""width: 200px;height: 200px;""></button>","0","pink","mustard","[""pink"",""mustard"",""low nameability""]","left-right","[""pink"",""mustard"",""low nameability""]","2","low nameability","12","left","response","1"
"html-audio-button-response","71","71161","0.0-55.0-1.0","CAN_116","116","","","","","","null","stimuli/bleep.m4a","null","pink","mustard","[""pink"",""mustard"",""low nameability""]","left-right","[""pink"",""mustard"",""low nameability""]","2","low nameability","12","left","audio_feedback","1"
"html-button-response","72","71689","0.0-56.0","CAN_116","116","","","","","","null","<button class=""jspsych-btn""><img src=""stimuli/white_square.png"" style=""width: 200px;height: 200px;""></button>","null","pink","mustard","[""pink"",""mustard"",""low nameability""]","left-right","[""pink"",""mustard"",""low nameability""]","2","low nameability","12","left","iti",""
"html-button-response","73","72249","0.0-57.0","CAN_116","116","","","","","","542","","0","neonyellow","mustard","[""neonyellow"",""mustard"",""low nameability""]","left-right","[""neonyellow"",""mustard"",""low nameability""]","2","low nameability","13","left","trigger",""
"html-button-response","74","73002","0.0-58.0-0.0","CAN_116","116","","","","","","743","<button class=""jspsych-btn""><img src=""stimuli/neonyellow.png"" style=""width: 200px;height: 200px;""></button>","0","neonyellow","mustard","[""neonyellow"",""mustard"",""low nameability""]","left-right","[""neonyellow"",""mustard"",""low nameability""]","2","low nameability","13","left","response","1"
"html-audio-button-response","75","73210","0.0-58.0-1.0","CAN_116","116","","","","","","null","stimuli/bleep.m4a","null","neonyellow","mustard","[""neonyellow"",""mustard"",""low nameability""]","left-right","[""neonyellow"",""mustard"",""low nameability""]","2","low nameability","13","left","audio_feedback","1"
"html-button-response","76","73729","0.0-59.0","CAN_116","116","","","","","","null","<button class=""jspsych-btn""><img src=""stimuli/white_square.png"" style=""width: 200px;height: 200px;""></button>","null","neonyellow","mustard","[""neonyellow"",""mustard"",""low nameability""]","left-right","[""neonyellow"",""mustard"",""low nameability""]","2","low nameability","13","left","iti",""
"html-button-response","77","74279","0.0-60.0","CAN_116","116","","","","","","537","","0","darkgreenblue","lightred","[""darkgreenblue"",""lightred"",""low nameability""]","left-right","[""darkgreenblue"",""lightred"",""low nameability""]","2","low nameability","14","left","trigger",""
"html-button-response","78","74938","0.0-61.0-0.0","CAN_116","116","","","","","","652","<button class=""jspsych-btn""><img src=""stimuli/darkgreenblue.png"" style=""width: 200px;height: 200px;""></button>","0","darkgreenblue","lightred","[""darkgreenblue"",""lightred"",""low nameability""]","left-right","[""darkgreenblue"",""lightred"",""low nameability""]","2","low nameability","14","left","response","1"
"html-audio-button-response","79","75146","0.0-61.0-1.0","CAN_116","116","","","","","","null","stimuli/bleep.m4a","null","darkgreenblue","lightred","[""darkgreenblue"",""lightred"",""low nameability""]","left-right","[""darkgreenblue"",""lightred"",""low nameability""]","2","low nameability","14","left","audio_feedback","1"
"html-button-response","80","75677","0.0-62.0","CAN_116","116","","","","","","null","<button class=""jspsych-btn""><img src=""stimuli/white_square.png"" style=""width: 200px;height: 200px;""></button>","null","darkgreenblue","lightred","[""darkgreenblue"",""lightred"",""low nameability""]","left-right","[""darkgreenblue"",""lightred"",""low nameability""]","2","low nameability","14","left","iti",""
"html-button-response","81","76248","0.0-63.0","CAN_116","116","","","","","","552","","0","blue","brown","[""blue"",""brown"",""high nameability""]","left-right","[""blue"",""brown"",""high nameability""]","2","high nameability","15","left","trigger",""
"html-button-response","82","76812","0.0-64.0-0.0","CAN_116","116","","","","","","558","<button class=""jspsych-btn""><img src=""stimuli/blue.png"" style=""width: 200px;height: 200px;""></button>","0","blue","brown","[""blue"",""brown"",""high nameability""]","left-right","[""blue"",""brown"",""high nameability""]","2","high nameability","15","left","response","1"
"html-audio-button-response","83","77016","0.0-64.0-1.0","CAN_116","116","","","","","","null","stimuli/bleep.m4a","null","blue","brown","[""blue"",""brown"",""high nameability""]","left-right","[""blue"",""brown"",""high nameability""]","2","high nameability","15","left","audio_feedback","1"
"html-button-response","84","77534","0.0-65.0","CAN_116","116","","","","","","null","<button class=""jspsych-btn""><img src=""stimuli/white_square.png"" style=""width: 200px;height: 200px;""></button>","null","blue","brown","[""blue"",""brown"",""high nameability""]","left-right","[""blue"",""brown"",""high nameability""]","2","high nameability","15","left","iti",""
"html-button-response","85","78084","0.0-66.0","CAN_116","116","","","","","","526","","0","purple","yellow","[""purple"",""yellow"",""high nameability""]","right-left","[""yellow"",""purple""]","2","high nameability","16","right","trigger",""
"html-button-response","86","78619","0.0-67.0-0.0","CAN_116","116","","","","","","520","<button class=""jspsych-btn""><img src=""stimuli/purple.png"" style=""width: 200px;height: 200px;""></button>","1","purple","yellow","[""purple"",""yellow"",""high nameability""]","right-left","[""yellow"",""purple""]","2","high nameability","16","right","response","1"
"html-audio-button-response","87","78825","0.0-67.0-1.0","CAN_116","116","","","","","","null","stimuli/bleep.m4a","null","purple","yellow","[""purple"",""yellow"",""high nameability""]","right-left","[""yellow"",""purple""]","2","high nameability","16","right","audio_feedback","1"
"html-button-response","88","79350","0.0-68.0","CAN_116","116","","","","","","null","<button class=""jspsych-btn""><img src=""stimuli/white_square.png"" style=""width: 200px;height: 200px;""></button>","null","purple","yellow","[""purple"",""yellow"",""high nameability""]","right-left","[""yellow"",""purple""]","2","high nameability","16","right","iti",""
"html-button-response","89","79874","0.0-69.0","CAN_116","116","","","","","","504","","0","turquoise","darkgreenblue","[""turquoise"",""darkgreenblue"",""low nameability""]","left-right","[""turquoise"",""darkgreenblue"",""low nameability""]","2","low nameability","17","left","trigger",""
"html-button-response","90","80485","0.0-70.0-0.0","CAN_116","116","","","","","","603","<button class=""jspsych-btn""><img src=""stimuli/turquoise.png"" style=""width: 200px;height: 200px;""></button>","0","turquoise","darkgreenblue","[""turquoise"",""darkgreenblue"",""low nameability""]","left-right","[""turquoise"",""darkgreenblue"",""low nameability""]","2","low nameability","17","left","response","1"
"html-audio-button-response","91","80692","0.0-70.0-1.0","CAN_116","116","","","","","","null","stimuli/bleep.m4a","null","turquoise","darkgreenblue","[""turquoise"",""darkgreenblue"",""low nameability""]","left-right","[""turquoise"",""darkgreenblue"",""low nameability""]","2","low nameability","17","left","audio_feedback","1"
"html-button-response","92","81215","0.0-71.0","CAN_116","116","","","","","","null","<button class=""jspsych-btn""><img src=""stimuli/white_square.png"" style=""width: 200px;height: 200px;""></button>","null","turquoise","darkgreenblue","[""turquoise"",""darkgreenblue"",""low nameability""]","left-right","[""turquoise"",""darkgreenblue"",""low nameability""]","2","low nameability","17","left","iti",""
"html-button-response","93","81748","0.0-72.0","CAN_116","116","","","","","","512","","0","mustard","pink","[""mustard"",""pink"",""low nameability""]","left-right","[""mustard"",""pink"",""low nameability""]","2","low nameability","18","left","trigger",""
"html-button-response","94","82323","0.0-73.0-0.0","CAN_116","116","","","","","","569","<button class=""jspsych-btn""><img src=""stimuli/mustard.png"" style=""width: 200px;height: 200px;""></button>","0","mustard","pink","[""mustard"",""pink"",""low nameability""]","left-right","[""mustard"",""pink"",""low nameability""]","2","low nameability","18","left","response","1"
"html-audio-button-response","95","82529","0.0-73.0-1.0","CAN_116","116","","","","","","null","stimuli/bleep.m4a","null","mustard","pink","[""mustard"",""pink"",""low nameability""]","left-right","[""mustard"",""pink"",""low nameability""]","2","low nameability","18","left","audio_feedback","1"
"html-button-response","96","83049","0.0-74.0","CAN_116","116","","","","","","null","<button class=""jspsych-btn""><img src=""stimuli/white_square.png"" style=""width: 200px;height: 200px;""></button>","null","mustard","pink","[""mustard"",""pink"",""low nameability""]","left-right","[""mustard"",""pink"",""low nameability""]","2","low nameability","18","left","iti",""
"html-button-response","97","83482","0.0-75.0","CAN_116","116","","","","","","421","","0","pink","lightred","[""pink"",""lightred"",""low nameability""]","right-left","[""lightred"",""pink""]","2","low nameability","19","right","trigger",""
"html-button-response","98","84132","0.0-76.0-0.0","CAN_116","116","","","","","","640","<button class=""jspsych-btn""><img src=""stimuli/pink.png"" style=""width: 200px;height: 200px;""></button>","1","pink","lightred","[""pink"",""lightred"",""low nameability""]","right-left","[""lightred"",""pink""]","2","low nameability","19","right","response","1"
"html-audio-button-response","99","84338","0.0-76.0-1.0","CAN_116","116","","","","","","null","stimuli/bleep.m4a","null","pink","lightred","[""pink"",""lightred"",""low nameability""]","right-left","[""lightred"",""pink""]","2","low nameability","19","right","audio_feedback","1"
"html-button-response","100","84854","0.0-77.0","CAN_116","116","","","","","","null","<button class=""jspsych-btn""><img src=""stimuli/white_square.png"" style=""width: 200px;height: 200px;""></button>","null","pink","lightred","[""pink"",""lightred"",""low nameability""]","right-left","[""lightred"",""pink""]","2","low nameability","19","right","iti",""
"html-button-response","101","85327","0.0-78.0","CAN_116","116","","","","","","460","","0","neonyellow","lightred","[""neonyellow"",""lightred"",""low nameability""]","right-left","[""lightred"",""neonyellow""]","2","low nameability","20","right","trigger",""
"html-button-response","102","85892","0.0-79.0-0.0","CAN_116","116","","","","","","555","<button class=""jspsych-btn""><img src=""stimuli/neonyellow.png"" style=""width: 200px;height: 200px;""></button>","1","neonyellow","lightred","[""neonyellow"",""lightred"",""low nameability""]","right-left","[""lightred"",""neonyellow""]","2","low nameability","20","right","response","1"
"html-audio-button-response","103","86097","0.0-79.0-1.0","CAN_116","116","","","","","","null","stimuli/bleep.m4a","null","neonyellow","lightred","[""neonyellow"",""lightred"",""low nameability""]","right-left","[""lightred"",""neonyellow""]","2","low nameability","20","right","audio_feedback","1"
"html-button-response","104","86617","0.0-80.0","CAN_116","116","","","","","","null","<button class=""jspsych-btn""><img src=""stimuli/white_square.png"" style=""width: 200px;height: 200px;""></button>","null","neonyellow","lightred","[""neonyellow"",""lightred"",""low nameability""]","right-left","[""lightred"",""neonyellow""]","2","low nameability","20","right","iti",""
"pavlovia","105","86720","0.0-81.0","CAN_116","116","","","","","","","","","","","","","","","","","","",""
"pavlovia","106","86734","0.0-82.0","CAN_116","116","","","","","","","","","","","","","","","","","","",""
"html-audio-button-response","107","88192","0.0-83.0","CAN_116","116","","","","","","1576","stimuli/tada.m4a","0","","","","","","","","","","",""
"html-button-response","108","88890","0.0-84.0","CAN_116","116","","","","","","691","","0","","","","","","","","","","",""
"html-button-response","109","89832","0.0-85.0","CAN_116","116","","","","","","935","","0","neonyellow","darkgreenblue","[""neonyellow"",""darkgreenblue"",""low nameability""]","left-right","[""neonyellow"",""darkgreenblue"",""low nameability""]","3","low nameability","21","left","trigger",""
"html-button-response","110","90508","0.0-86.0-0.0","CAN_116","116","","","","","","668","<button class=""jspsych-btn""><img src=""stimuli/neonyellow.png"" style=""width: 200px;height: 200px;""></button>","0","neonyellow","darkgreenblue","[""neonyellow"",""darkgreenblue"",""low nameability""]","left-right","[""neonyellow"",""darkgreenblue"",""low nameability""]","3","low nameability","21","left","response","1"
"html-audio-button-response","111","90714","0.0-86.0-1.0","CAN_116","116","","","","","","null","stimuli/bleep.m4a","null","neonyellow","darkgreenblue","[""neonyellow"",""darkgreenblue"",""low nameability""]","left-right","[""neonyellow"",""darkgreenblue"",""low nameability""]","3","low nameability","21","left","audio_feedback","1"
"html-button-response","112","91237","0.0-87.0","CAN_116","116","","","","","","null","<button class=""jspsych-btn""><img src=""stimuli/white_square.png"" style=""width: 200px;height: 200px;""></button>","null","neonyellow","darkgreenblue","[""neonyellow"",""darkgreenblue"",""low nameability""]","left-right","[""neonyellow"",""darkgreenblue"",""low nameability""]","3","low nameability","21","left","iti",""
"html-button-response","113","91794","0.0-88.0","CAN_116","116","","","","","","536","","0","lightred","darkgreenblue","[""lightred"",""darkgreenblue"",""low nameability""]","left-right","[""lightred"",""darkgreenblue"",""low nameability""]","3","low nameability","22","left","trigger",""
"html-button-response","114","92388","0.0-89.0-0.0","CAN_116","116","","","","","","589","<button class=""jspsych-btn""><img src=""stimuli/lightred.png"" style=""width: 200px;height: 200px;""></button>","0","lightred","darkgreenblue","[""lightred"",""darkgreenblue"",""low nameability""]","left-right","[""lightred"",""darkgreenblue"",""low nameability""]","3","low nameability","22","left","response","1"
"html-audio-button-response","115","92592","0.0-89.0-1.0","CAN_116","116","","","","","","null","stimuli/bleep.m4a","null","lightred","darkgreenblue","[""lightred"",""darkgreenblue"",""low nameability""]","left-right","[""lightred"",""darkgreenblue"",""low nameability""]","3","low nameability","22","left","audio_feedback","1"
"html-button-response","116","93111","0.0-90.0","CAN_116","116","","","","","","null","<button class=""jspsych-btn""><img src=""stimuli/white_square.png"" style=""width: 200px;height: 200px;""></button>","null","lightred","darkgreenblue","[""lightred"",""darkgreenblue"",""low nameability""]","left-right","[""lightred"",""darkgreenblue"",""low nameability""]","3","low nameability","22","left","iti",""
"html-button-response","117","93702","0.0-91.0","CAN_116","116","","","","","","573","","0","red","blue","[""red"",""blue"",""high nameability""]","left-right","[""red"",""blue"",""high nameability""]","3","high nameability","23","left","trigger",""
"html-button-response","118","94277","0.0-92.0-0.0","CAN_116","116","","","","","","567","<button class=""jspsych-btn""><img src=""stimuli/red.png"" style=""width: 200px;height: 200px;""></button>","0","red","blue","[""red"",""blue"",""high nameability""]","left-right","[""red"",""blue"",""high nameability""]","3","high nameability","23","left","response","1"
"html-audio-button-response","119","94485","0.0-92.0-1.0","CAN_116","116","","","","","","null","stimuli/bleep.m4a","null","red","blue","[""red"",""blue"",""high nameability""]","left-right","[""red"",""blue"",""high nameability""]","3","high nameability","23","left","audio_feedback","1"
"html-button-response","120","95006","0.0-93.0","CAN_116","116","","","","","","null","<button class=""jspsych-btn""><img src=""stimuli/white_square.png"" style=""width: 200px;height: 200px;""></button>","null","red","blue","[""red"",""blue"",""high nameability""]","left-right","[""red"",""blue"",""high nameability""]","3","high nameability","23","left","iti",""
"html-button-response","121","95608","0.0-94.0","CAN_116","116","","","","","","584","","0","purple","red","[""purple"",""red"",""high nameability""]","left-right","[""purple"",""red"",""high nameability""]","3","high nameability","24","left","trigger",""
"html-button-response","122","96397","0.0-95.0-0.0","CAN_116","116","","","","","","778","<button class=""jspsych-btn""><img src=""stimuli/purple.png"" style=""width: 200px;height: 200px;""></button>","0","purple","red","[""purple"",""red"",""high nameability""]","left-right","[""purple"",""red"",""high nameability""]","3","high nameability","24","left","response","1"
"html-audio-button-response","123","96600","0.0-95.0-1.0","CAN_116","116","","","","","","null","stimuli/bleep.m4a","null","purple","red","[""purple"",""red"",""high nameability""]","left-right","[""purple"",""red"",""high nameability""]","3","high nameability","24","left","audio_feedback","1"
"html-button-response","124","97117","0.0-96.0","CAN_116","116","","","","","","null","<button class=""jspsych-btn""><img src=""stimuli/white_square.png"" style=""width: 200px;height: 200px;""></button>","null","purple","red","[""purple"",""red"",""high nameability""]","left-right","[""purple"",""red"",""high nameability""]","3","high nameability","24","left","iti",""
"html-button-response","125","97714","0.0-97.0","CAN_116","116","","","","","","580","","0","lightred","mustard","[""lightred"",""mustard"",""low nameability""]","left-right","[""lightred"",""mustard"",""low nameability""]","3","low nameability","25","left","trigger",""
"html-button-response","126","98322","0.0-98.0-0.0","CAN_116","116","","","","","","601","<button class=""jspsych-btn""><img src=""stimuli/lightred.png"" style=""width: 200px;height: 200px;""></button>","0","lightred","mustard","[""lightred"",""mustard"",""low nameability""]","left-right","[""lightred"",""mustard"",""low nameability""]","3","low nameability","25","left","response","1"
"html-audio-button-response","127","98525","0.0-98.0-1.0","CAN_116","116","","","","","","null","stimuli/bleep.m4a","null","lightred","mustard","[""lightred"",""mustard"",""low nameability""]","left-right","[""lightred"",""mustard"",""low nameability""]","3","low nameability","25","left","audio_feedback","1"
"html-button-response","128","99052","0.0-99.0","CAN_116","116","","","","","","null","<button class=""jspsych-btn""><img src=""stimuli/white_square.png"" style=""width: 200px;height: 200px;""></button>","null","lightred","mustard","[""lightred"",""mustard"",""low nameability""]","left-right","[""lightred"",""mustard"",""low nameability""]","3","low nameability","25","left","iti",""
"html-button-response","129","99510","0.0-100.0","CAN_116","116","","","","","","438","","0","mustard","darkgreenblue","[""mustard"",""darkgreenblue"",""low nameability""]","left-right","[""mustard"",""darkgreenblue"",""low nameability""]","3","low nameability","26","left","trigger",""
"html-button-response","130","100102","0.0-101.0-0.0","CAN_116","116","","","","","","582","<button class=""jspsych-btn""><img src=""stimuli/mustard.png"" style=""width: 200px;height: 200px;""></button>","0","mustard","darkgreenblue","[""mustard"",""darkgreenblue"",""low nameability""]","left-right","[""mustard"",""darkgreenblue"",""low nameability""]","3","low nameability","26","left","response","1"
"html-audio-button-response","131","100304","0.0-101.0-1.0","CAN_116","116","","","","","","null","stimuli/bleep.m4a","null","mustard","darkgreenblue","[""mustard"",""darkgreenblue"",""low nameability""]","left-right","[""mustard"",""darkgreenblue"",""low nameability""]","3","low nameability","26","left","audio_feedback","1"
"html-button-response","132","100822","0.0-102.0","CAN_116","116","","","","","","null","<button class=""jspsych-btn""><img src=""stimuli/white_square.png"" style=""width: 200px;height: 200px;""></button>","null","mustard","darkgreenblue","[""mustard"",""darkgreenblue"",""low nameability""]","left-right","[""mustard"",""darkgreenblue"",""low nameability""]","3","low nameability","26","left","iti",""
"html-button-response","133","101448","0.0-103.0","CAN_116","116","","","","","","607","","0","yellow","brown","[""yellow"",""brown"",""high nameability""]","right-left","[""brown"",""yellow""]","3","high nameability","27","right","trigger",""
"html-button-response","134","102004","0.0-104.0-0.0","CAN_116","116","","","","","","549","<button class=""jspsych-btn""><img src=""stimuli/yellow.png"" style=""width: 200px;height: 200px;""></button>","1","yellow","brown","[""yellow"",""brown"",""high nameability""]","right-left","[""brown"",""yellow""]","3","high nameability","27","right","response","1"
"html-audio-button-response","135","102209","0.0-104.0-1.0","CAN_116","116","","","","","","null","stimuli/bleep.m4a","null","yellow","brown","[""yellow"",""brown"",""high nameability""]","right-left","[""brown"",""yellow""]","3","high nameability","27","right","audio_feedback","1"
"html-button-response","136","102733","0.0-105.0","CAN_116","116","","","","","","null","<button class=""jspsych-btn""><img src=""stimuli/white_square.png"" style=""width: 200px;height: 200px;""></button>","null","yellow","brown","[""yellow"",""brown"",""high nameability""]","right-left","[""brown"",""yellow""]","3","high nameability","27","right","iti",""
"html-button-response","137","103308","0.0-106.0","CAN_116","116","","","","","","563","","0","yellow","purple","[""yellow"",""purple"",""high nameability""]","left-right","[""yellow"",""purple"",""high nameability""]","3","high nameability","28","left","trigger",""
"html-button-response","138","103884","0.0-107.0-0.0","CAN_116","116","","","","","","566","<button class=""jspsych-btn""><img src=""stimuli/yellow.png"" style=""width: 200px;height: 200px;""></button>","0","yellow","purple","[""yellow"",""purple"",""high nameability""]","left-right","[""yellow"",""purple"",""high nameability""]","3","high nameability","28","left","response","1"
"html-audio-button-response","139","104088","0.0-107.0-1.0","CAN_116","116","","","","","","null","stimuli/bleep.m4a","null","yellow","purple","[""yellow"",""purple"",""high nameability""]","left-right","[""yellow"",""purple"",""high nameability""]","3","high nameability","28","left","audio_feedback","1"
"html-button-response","140","104608","0.0-108.0","CAN_116","116","","","","","","null","<button class=""jspsych-btn""><img src=""stimuli/white_square.png"" style=""width: 200px;height: 200px;""></button>","null","yellow","purple","[""yellow"",""purple"",""high nameability""]","left-right","[""yellow"",""purple"",""high nameability""]","3","high nameability","28","left","iti",""
"html-button-response","141","105144","0.0-109.0","CAN_116","116","","","","","","519","","0","brown","yellow","[""brown"",""yellow"",""high nameability""]","right-left","[""yellow"",""brown""]","3","high nameability","29","right","trigger",""
"html-button-response","142","106030","0.0-110.0-0.0","CAN_116","116","","","","","","878","<button class=""jspsych-btn""><img src=""stimuli/brown.png"" style=""width: 200px;height: 200px;""></button>","1","brown","yellow","[""brown"",""yellow"",""high nameability""]","right-left","[""yellow"",""brown""]","3","high nameability","29","right","response","1"
"html-audio-button-response","143","106235","0.0-110.0-1.0","CAN_116","116","","","","","","null","stimuli/bleep.m4a","null","brown","yellow","[""brown"",""yellow"",""high nameability""]","right-left","[""yellow"",""brown""]","3","high nameability","29","right","audio_feedback","1"
"html-button-response","144","106751","0.0-111.0","CAN_116","116","","","","","","null","<button class=""jspsych-btn""><img src=""stimuli/white_square.png"" style=""width: 200px;height: 200px;""></button>","null","brown","yellow","[""brown"",""yellow"",""high nameability""]","right-left","[""yellow"",""brown""]","3","high nameability","29","right","iti",""
"html-button-response","145","107281","0.0-112.0","CAN_116","116","","","","","","513","","0","turquoise","mustard","[""turquoise"",""mustard"",""low nameability""]","left-right","[""turquoise"",""mustard"",""low nameability""]","3","low nameability","30","left","trigger",""
"html-button-response","146","107817","0.0-113.0-0.0","CAN_116","116","","","","","","528","<button class=""jspsych-btn""><img src=""stimuli/turquoise.png"" style=""width: 200px;height: 200px;""></button>","0","turquoise","mustard","[""turquoise"",""mustard"",""low nameability""]","left-right","[""turquoise"",""mustard"",""low nameability""]","3","low nameability","30","left","response","1"
"html-audio-button-response","147","108021","0.0-113.0-1.0","CAN_116","116","","","","","","null","stimuli/bleep.m4a","null","turquoise","mustard","[""turquoise"",""mustard"",""low nameability""]","left-right","[""turquoise"",""mustard"",""low nameability""]","3","low nameability","30","left","audio_feedback","1"
"html-button-response","148","108541","0.0-114.0","CAN_116","116","","","","","","null","<button class=""jspsych-btn""><img src=""stimuli/white_square.png"" style=""width: 200px;height: 200px;""></button>","null","turquoise","mustard","[""turquoise"",""mustard"",""low nameability""]","left-right","[""turquoise"",""mustard"",""low nameability""]","3","low nameability","30","left","iti",""
"pavlovia","149","108609","0.0-115.0","CAN_116","116","","","","","","","","","","","","","","","","","","",""
"pavlovia","150","108615","0.0-116.0","CAN_116","116","","","","","","","","","","","","","","","","","","",""
"html-audio-button-response","151","110483","0.0-117.0","CAN_116","116","","","","","","1939","stimuli/tada.m4a","0","","","","","","","","","","",""
"html-button-response","152","111012","0.0-118.0","CAN_116","116","","","","","","522","","0","","","","","","","","","","",""
"html-button-response","153","111832","0.0-119.0","CAN_116","116","","","","","","810","","0","orange","red","[""orange"",""red"",""high nameability""]","left-right","[""orange"",""red"",""high nameability""]","4","high nameability","31","left","trigger",""
"html-button-response","154","112521","0.0-120.0-0.0","CAN_116","116","","","","","","680","<button class=""jspsych-btn""><img src=""stimuli/orange.png"" style=""width: 200px;height: 200px;""></button>","0","orange","red","[""orange"",""red"",""high nameability""]","left-right","[""orange"",""red"",""high nameability""]","4","high nameability","31","left","response","1"
"html-audio-button-response","155","112729","0.0-120.0-1.0","CAN_116","116","","","","","","null","stimuli/bleep.m4a","null","orange","red","[""orange"",""red"",""high nameability""]","left-right","[""orange"",""red"",""high nameability""]","4","high nameability","31","left","audio_feedback","1"
"html-button-response","156","113248","0.0-121.0","CAN_116","116","","","","","","null","<button class=""jspsych-btn""><img src=""stimuli/white_square.png"" style=""width: 200px;height: 200px;""></button>","null","orange","red","[""orange"",""red"",""high nameability""]","left-right","[""orange"",""red"",""high nameability""]","4","high nameability","31","left","iti",""
"html-button-response","157","113806","0.0-122.0","CAN_116","116","","","","","","540","","0","pink","turquoise","[""pink"",""turquoise"",""low nameability""]","left-right","[""pink"",""turquoise"",""low nameability""]","4","low nameability","32","left","trigger",""
"html-button-response","158","114363","0.0-123.0-0.0","CAN_116","116","","","","","","552","<button class=""jspsych-btn""><img src=""stimuli/pink.png"" style=""width: 200px;height: 200px;""></button>","0","pink","turquoise","[""pink"",""turquoise"",""low nameability""]","left-right","[""pink"",""turquoise"",""low nameability""]","4","low nameability","32","left","response","1"
"html-audio-button-response","159","114569","0.0-123.0-1.0","CAN_116","116","","","","","","null","stimuli/bleep.m4a","null","pink","turquoise","[""pink"",""turquoise"",""low nameability""]","left-right","[""pink"",""turquoise"",""low nameability""]","4","low nameability","32","left","audio_feedback","1"
"html-button-response","160","115086","0.0-124.0","CAN_116","116","","","","","","null","<button class=""jspsych-btn""><img src=""stimuli/white_square.png"" style=""width: 200px;height: 200px;""></button>","null","pink","turquoise","[""pink"",""turquoise"",""low nameability""]","left-right","[""pink"",""turquoise"",""low nameability""]","4","low nameability","32","left","iti",""
"html-button-response","161","115612","0.0-125.0","CAN_116","116","","","","","","507","","0","brown","orange","[""brown"",""orange"",""high nameability""]","right-left","[""orange"",""brown""]","4","high nameability","33","right","trigger",""
"html-button-response","162","116202","0.0-126.0-0.0","CAN_116","116","","","","","","583","<button class=""jspsych-btn""><img src=""stimuli/brown.png"" style=""width: 200px;height: 200px;""></button>","1","brown","orange","[""brown"",""orange"",""high nameability""]","right-left","[""orange"",""brown""]","4","high nameability","33","right","response","1"
"html-audio-button-response","163","116404","0.0-126.0-1.0","CAN_116","116","","","","","","null","stimuli/bleep.m4a","null","brown","orange","[""brown"",""orange"",""high nameability""]","right-left","[""orange"",""brown""]","4","high nameability","33","right","audio_feedback","1"
"html-button-response","164","116920","0.0-127.0","CAN_116","116","","","","","","null","<button class=""jspsych-btn""><img src=""stimuli/white_square.png"" style=""width: 200px;height: 200px;""></button>","null","brown","orange","[""brown"",""orange"",""high nameability""]","right-left","[""orange"",""brown""]","4","high nameability","33","right","iti",""
"html-button-response","165","117480","0.0-128.0","CAN_116","116","","","","","","536","","0","turquoise","lightred","[""turquoise"",""lightred"",""low nameability""]","left-right","[""turquoise"",""lightred"",""low nameability""]","4","low nameability","34","left","trigger",""
"html-button-response","166","118070","0.0-129.0-0.0","CAN_116","116","","","","","","582","<button class=""jspsych-btn""><img src=""stimuli/turquoise.png"" style=""width: 200px;height: 200px;""></button>","0","turquoise","lightred","[""turquoise"",""lightred"",""low nameability""]","left-right","[""turquoise"",""lightred"",""low nameability""]","4","low nameability","34","left","response","1"
"html-audio-button-response","167","118272","0.0-129.0-1.0","CAN_116","116","","","","","","null","stimuli/bleep.m4a","null","turquoise","lightred","[""turquoise"",""lightred"",""low nameability""]","left-right","[""turquoise"",""lightred"",""low nameability""]","4","low nameability","34","left","audio_feedback","1"
"html-button-response","168","118790","0.0-130.0","CAN_116","116","","","","","","null","<button class=""jspsych-btn""><img src=""stimuli/white_square.png"" style=""width: 200px;height: 200px;""></button>","null","turquoise","lightred","[""turquoise"",""lightred"",""low nameability""]","left-right","[""turquoise"",""lightred"",""low nameability""]","4","low nameability","34","left","iti",""
"html-button-response","169","119352","0.0-131.0","CAN_116","116","","","","","","542","","0","purple","blue","[""purple"",""blue"",""high nameability""]","right-left","[""blue"",""purple""]","4","high nameability","35","right","trigger",""
"html-button-response","170","119937","0.0-132.0-0.0","CAN_116","116","","","","","","579","<button class=""jspsych-btn""><img src=""stimuli/purple.png"" style=""width: 200px;height: 200px;""></button>","1","purple","blue","[""purple"",""blue"",""high nameability""]","right-left","[""blue"",""purple""]","4","high nameability","35","right","response","1"
"html-audio-button-response","171","120145","0.0-132.0-1.0","CAN_116","116","","","","","","null","stimuli/bleep.m4a","null","purple","blue","[""purple"",""blue"",""high nameability""]","right-left","[""blue"",""purple""]","4","high nameability","35","right","audio_feedback","1"
"html-button-response","172","120661","0.0-133.0","CAN_116","116","","","","","","null","<button class=""jspsych-btn""><img src=""stimuli/white_square.png"" style=""width: 200px;height: 200px;""></button>","null","purple","blue","[""purple"",""blue"",""high nameability""]","right-left","[""blue"",""purple""]","4","high nameability","35","right","iti",""
"html-button-response","173","121220","0.0-134.0","CAN_116","116","","","","","","536","","0","brown","purple","[""brown"",""purple"",""high nameability""]","right-left","[""purple"",""brown""]","4","high nameability","36","right","trigger",""
"html-button-response","174","121790","0.0-135.0-0.0","CAN_116","116","","","","","","561","<button class=""jspsych-btn""><img src=""stimuli/brown.png"" style=""width: 200px;height: 200px;""></button>","1","brown","purple","[""brown"",""purple"",""high nameability""]","right-left","[""purple"",""brown""]","4","high nameability","36","right","response","1"
"html-audio-button-response","175","121991","0.0-135.0-1.0","CAN_116","116","","","","","","null","stimuli/bleep.m4a","null","brown","purple","[""brown"",""purple"",""high nameability""]","right-left","[""purple"",""brown""]","4","high nameability","36","right","audio_feedback","1"
"html-button-response","176","122502","0.0-136.0","CAN_116","116","","","","","","null","<button class=""jspsych-btn""><img src=""stimuli/white_square.png"" style=""width: 200px;height: 200px;""></button>","null","brown","purple","[""brown"",""purple"",""high nameability""]","right-left","[""purple"",""brown""]","4","high nameability","36","right","iti",""
"html-button-response","177","123141","0.0-137.0","CAN_116","116","","","","","","620","","0","darkgreenblue","neonyellow","[""darkgreenblue"",""neonyellow"",""low nameability""]","left-right","[""darkgreenblue"",""neonyellow"",""low nameability""]","4","low nameability","37","left","trigger",""
"html-button-response","178","123730","0.0-138.0-0.0","CAN_116","116","","","","","","581","<button class=""jspsych-btn""><img src=""stimuli/darkgreenblue.png"" style=""width: 200px;height: 200px;""></button>","0","darkgreenblue","neonyellow","[""darkgreenblue"",""neonyellow"",""low nameability""]","left-right","[""darkgreenblue"",""neonyellow"",""low nameability""]","4","low nameability","37","left","response","1"
"html-audio-button-response","179","123935","0.0-138.0-1.0","CAN_116","116","","","","","","null","stimuli/bleep.m4a","null","darkgreenblue","neonyellow","[""darkgreenblue"",""neonyellow"",""low nameability""]","left-right","[""darkgreenblue"",""neonyellow"",""low nameability""]","4","low nameability","37","left","audio_feedback","1"
"html-button-response","180","124451","0.0-139.0","CAN_116","116","","","","","","null","<button class=""jspsych-btn""><img src=""stimuli/white_square.png"" style=""width: 200px;height: 200px;""></button>","null","darkgreenblue","neonyellow","[""darkgreenblue"",""neonyellow"",""low nameability""]","left-right","[""darkgreenblue"",""neonyellow"",""low nameability""]","4","low nameability","37","left","iti",""
"html-button-response","181","124932","0.0-140.0","CAN_116","116","","","","","","461","","0","brown","blue","[""brown"",""blue"",""high nameability""]","right-left","[""blue"",""brown""]","4","high nameability","38","right","trigger",""
"html-button-response","182","125427","0.0-141.0-0.0","CAN_116","116","","","","","","482","<button class=""jspsych-btn""><img src=""stimuli/brown.png"" style=""width: 200px;height: 200px;""></button>","1","brown","blue","[""brown"",""blue"",""high nameability""]","right-left","[""blue"",""brown""]","4","high nameability","38","right","response","1"
"html-audio-button-response","183","125648","0.0-141.0-1.0","CAN_116","116","","","","","","null","stimuli/bleep.m4a","null","brown","blue","[""brown"",""blue"",""high nameability""]","right-left","[""blue"",""brown""]","4","high nameability","38","right","audio_feedback","1"
"html-button-response","184","126185","0.0-142.0","CAN_116","116","","","","","","null","<button class=""jspsych-btn""><img src=""stimuli/white_square.png"" style=""width: 200px;height: 200px;""></button>","null","brown","blue","[""brown"",""blue"",""high nameability""]","right-left","[""blue"",""brown""]","4","high nameability","38","right","iti",""
"html-button-response","185","126703","0.0-143.0","CAN_116","116","","","","","","483","","0","lightred","turquoise","[""lightred"",""turquoise"",""low nameability""]","right-left","[""turquoise"",""lightred""]","4","low nameability","39","right","trigger",""
"html-button-response","186","127135","0.0-144.0-0.0","CAN_116","116","","","","","","423","<button class=""jspsych-btn""><img src=""stimuli/lightred.png"" style=""width: 200px;height: 200px;""></button>","1","lightred","turquoise","[""lightred"",""turquoise"",""low nameability""]","right-left","[""turquoise"",""lightred""]","4","low nameability","39","right","response","1"
"html-audio-button-response","187","127350","0.0-144.0-1.0","CAN_116","116","","","","","","null","stimuli/bleep.m4a","null","lightred","turquoise","[""lightred"",""turquoise"",""low nameability""]","right-left","[""turquoise"",""lightred""]","4","low nameability","39","right","audio_feedback","1"
"html-button-response","188","127875","0.0-145.0","CAN_116","116","","","","","","null","<button class=""jspsych-btn""><img src=""stimuli/white_square.png"" style=""width: 200px;height: 200px;""></button>","null","lightred","turquoise","[""lightred"",""turquoise"",""low nameability""]","right-left","[""turquoise"",""lightred""]","4","low nameability","39","right","iti",""
"html-button-response","189","128390","0.0-146.0","CAN_116","116","","","","","","496","","0","red","yellow","[""red"",""yellow"",""high nameability""]","right-left","[""yellow"",""red""]","4","high nameability","40","right","trigger",""
"html-button-response","190","128868","0.0-147.0-0.0","CAN_116","116","","","","","","471","<button class=""jspsych-btn""><img src=""stimuli/red.png"" style=""width: 200px;height: 200px;""></button>","1","red","yellow","[""red"",""yellow"",""high nameability""]","right-left","[""yellow"",""red""]","4","high nameability","40","right","response","1"
"html-audio-button-response","191","129072","0.0-147.0-1.0","CAN_116","116","","","","","","null","stimuli/bleep.m4a","null","red","yellow","[""red"",""yellow"",""high nameability""]","right-left","[""yellow"",""red""]","4","high nameability","40","right","audio_feedback","1"
"html-button-response","192","129617","0.0-148.0","CAN_116","116","","","","","","null","<button class=""jspsych-btn""><img src=""stimuli/white_square.png"" style=""width: 200px;height: 200px;""></button>","null","red","yellow","[""red"",""yellow"",""high nameability""]","right-left","[""yellow"",""red""]","4","high nameability","40","right","iti",""
"pavlovia","193","129714","0.0-149.0","CAN_116","116","","","","","","","","","","","","","","","","","","",""
"pavlovia","194","129729","0.0-150.0","CAN_116","116","","","","","","","","","","","","","","","","","","",""
"html-audio-button-response","195","131161","0.0-151.0","CAN_116","116","","","","","","1565","stimuli/tada.m4a","0","","","","","","","","","","",""
"html-button-response","196","132273","0.0-152.0","CAN_116","116","","","","","","1099","","0","","","","","","","","","","",""
"html-button-response","197","133015","0.0-153.0","CAN_116","116","","","","","","728","","0","neonyellow","turquoise","[""neonyellow"",""turquoise"",""low nameability""]","left-right","[""neonyellow"",""turquoise"",""low nameability""]","5","low nameability","41","left","trigger",""
"html-button-response","198","133696","0.0-154.0-0.0","CAN_116","116","","","","","","670","<button class=""jspsych-btn""><img src=""stimuli/neonyellow.png"" style=""width: 200px;height: 200px;""></button>","0","neonyellow","turquoise","[""neonyellow"",""turquoise"",""low nameability""]","left-right","[""neonyellow"",""turquoise"",""low nameability""]","5","low nameability","41","left","response","1"
"html-audio-button-response","199","133901","0.0-154.0-1.0","CAN_116","116","","","","","","null","stimuli/bleep.m4a","null","neonyellow","turquoise","[""neonyellow"",""turquoise"",""low nameability""]","left-right","[""neonyellow"",""turquoise"",""low nameability""]","5","low nameability","41","left","audio_feedback","1"
"html-button-response","200","134438","0.0-155.0","CAN_116","116","","","","","","null","<button class=""jspsych-btn""><img src=""stimuli/white_square.png"" style=""width: 200px;height: 200px;""></button>","null","neonyellow","turquoise","[""neonyellow"",""turquoise"",""low nameability""]","left-right","[""neonyellow"",""turquoise"",""low nameability""]","5","low nameability","41","left","iti",""
"html-button-response","201","134860","0.0-156.0","CAN_116","116","","","","","","415","","0","neonyellow","pink","[""neonyellow"",""pink"",""low nameability""]","left-right","[""neonyellow"",""pink"",""low nameability""]","5","low nameability","42","left","trigger",""
"html-button-response","202","135433","0.0-157.0-0.0","CAN_116","116","","","","","","561","<button class=""jspsych-btn""><img src=""stimuli/neonyellow.png"" style=""width: 200px;height: 200px;""></button>","0","neonyellow","pink","[""neonyellow"",""pink"",""low nameability""]","left-right","[""neonyellow"",""pink"",""low nameability""]","5","low nameability","42","left","response","1"
"html-audio-button-response","203","135641","0.0-157.0-1.0","CAN_116","116","","","","","","null","stimuli/bleep.m4a","null","neonyellow","pink","[""neonyellow"",""pink"",""low nameability""]","left-right","[""neonyellow"",""pink"",""low nameability""]","5","low nameability","42","left","audio_feedback","1"
"html-button-response","204","136167","0.0-158.0","CAN_116","116","","","","","","null","<button class=""jspsych-btn""><img src=""stimuli/white_square.png"" style=""width: 200px;height: 200px;""></button>","null","neonyellow","pink","[""neonyellow"",""pink"",""low nameability""]","left-right","[""neonyellow"",""pink"",""low nameability""]","5","low nameability","42","left","iti",""
"html-button-response","205","136706","0.0-159.0","CAN_116","116","","","","","","520","","0","blue","purple","[""blue"",""purple"",""high nameability""]","right-left","[""purple"",""blue""]","5","high nameability","43","right","trigger",""
"html-button-response","206","137239","0.0-160.0-0.0","CAN_116","116","","","","","","528","<button class=""jspsych-btn""><img src=""stimuli/blue.png"" style=""width: 200px;height: 200px;""></button>","1","blue","purple","[""blue"",""purple"",""high nameability""]","right-left","[""purple"",""blue""]","5","high nameability","43","right","response","1"
"html-audio-button-response","207","137445","0.0-160.0-1.0","CAN_116","116","","","","","","null","stimuli/bleep.m4a","null","blue","purple","[""blue"",""purple"",""high nameability""]","right-left","[""purple"",""blue""]","5","high nameability","43","right","audio_feedback","1"
"html-button-response","208","137966","0.0-161.0","CAN_116","116","","","","","","null","<button class=""jspsych-btn""><img src=""stimuli/white_square.png"" style=""width: 200px;height: 200px;""></button>","null","blue","purple","[""blue"",""purple"",""high nameability""]","right-left","[""purple"",""blue""]","5","high nameability","43","right","iti",""
"html-button-response","209","138502","0.0-162.0","CAN_116","116","","","","","","515","","0","turquoise","neonyellow","[""turquoise"",""neonyellow"",""low nameability""]","right-left","[""neonyellow"",""turquoise""]","5","low nameability","44","right","trigger",""
"html-button-response","210","138929","0.0-163.0-0.0","CAN_116","116","","","","","","420","<button class=""jspsych-btn""><img src=""stimuli/turquoise.png"" style=""width: 200px;height: 200px;""></button>","1","turquoise","neonyellow","[""turquoise"",""neonyellow"",""low nameability""]","right-left","[""neonyellow"",""turquoise""]","5","low nameability","44","right","response","1"
"html-audio-button-response","211","139141","0.0-163.0-1.0","CAN_116","116","","","","","","null","stimuli/bleep.m4a","null","turquoise","neonyellow","[""turquoise"",""neonyellow"",""low nameability""]","right-left","[""neonyellow"",""turquoise""]","5","low nameability","44","right","audio_feedback","1"
"html-button-response","212","139664","0.0-164.0","CAN_116","116","","","","","","null","<button class=""jspsych-btn""><img src=""stimuli/white_square.png"" style=""width: 200px;height: 200px;""></button>","null","turquoise","neonyellow","[""turquoise"",""neonyellow"",""low nameability""]","right-left","[""neonyellow"",""turquoise""]","5","low nameability","44","right","iti",""
"html-button-response","213","140108","0.0-165.0","CAN_116","116","","","","","","425","","0","orange","blue","[""orange"",""blue"",""high nameability""]","right-left","[""blue"",""orange""]","5","high nameability","45","right","trigger",""
"html-button-response","214","140601","0.0-166.0-0.0","CAN_116","116","","","","","","484","<button class=""jspsych-btn""><img src=""stimuli/orange.png"" style=""width: 200px;height: 200px;""></button>","1","orange","blue","[""orange"",""blue"",""high nameability""]","right-left","[""blue"",""orange""]","5","high nameability","45","right","response","1"
"html-audio-button-response","215","140806","0.0-166.0-1.0","CAN_116","116","","","","","","null","stimuli/bleep.m4a","null","orange","blue","[""orange"",""blue"",""high nameability""]","right-left","[""blue"",""orange""]","5","high nameability","45","right","audio_feedback","1"
"html-button-response","216","141330","0.0-167.0","CAN_116","116","","","","","","null","<button class=""jspsych-btn""><img src=""stimuli/white_square.png"" style=""width: 200px;height: 200px;""></button>","null","orange","blue","[""orange"",""blue"",""high nameability""]","right-left","[""blue"",""orange""]","5","high nameability","45","right","iti",""
"html-button-response","217","141886","0.0-168.0","CAN_116","116","","","","","","538","","0","darkgreenblue","turquoise","[""darkgreenblue"",""turquoise"",""low nameability""]","right-left","[""turquoise"",""darkgreenblue""]","5","low nameability","46","right","trigger",""
"html-button-response","218","142383","0.0-169.0-0.0","CAN_116","116","","","","","","490","<button class=""jspsych-btn""><img src=""stimuli/darkgreenblue.png"" style=""width: 200px;height: 200px;""></button>","1","darkgreenblue","turquoise","[""darkgreenblue"",""turquoise"",""low nameability""]","right-left","[""turquoise"",""darkgreenblue""]","5","low nameability","46","right","response","1"
"html-audio-button-response","219","142587","0.0-169.0-1.0","CAN_116","116","","","","","","null","stimuli/bleep.m4a","null","darkgreenblue","turquoise","[""darkgreenblue"",""turquoise"",""low nameability""]","right-left","[""turquoise"",""darkgreenblue""]","5","low nameability","46","right","audio_feedback","1"
"html-button-response","220","143108","0.0-170.0","CAN_116","116","","","","","","null","<button class=""jspsych-btn""><img src=""stimuli/white_square.png"" style=""width: 200px;height: 200px;""></button>","null","darkgreenblue","turquoise","[""darkgreenblue"",""turquoise"",""low nameability""]","right-left","[""turquoise"",""darkgreenblue""]","5","low nameability","46","right","iti",""
"html-button-response","221","143536","0.0-171.0","CAN_116","116","","","","","","407","","0","yellow","orange","[""yellow"",""orange"",""high nameability""]","right-left","[""orange"",""yellow""]","5","high nameability","47","right","trigger",""
"html-button-response","222","144044","0.0-172.0-0.0","CAN_116","116","","","","","","499","<button class=""jspsych-btn""><img src=""stimuli/yellow.png"" style=""width: 200px;height: 200px;""></button>","1","yellow","orange","[""yellow"",""orange"",""high nameability""]","right-left","[""orange"",""yellow""]","5","high nameability","47","right","response","1"
"html-audio-button-response","223","144249","0.0-172.0-1.0","CAN_116","116","","","","","","null","stimuli/bleep.m4a","null","yellow","orange","[""yellow"",""orange"",""high nameability""]","right-left","[""orange"",""yellow""]","5","high nameability","47","right","audio_feedback","1"
"html-button-response","224","144773","0.0-173.0","CAN_116","116","","","","","","null","<button class=""jspsych-btn""><img src=""stimuli/white_square.png"" style=""width: 200px;height: 200px;""></button>","null","yellow","orange","[""yellow"",""orange"",""high nameability""]","right-left","[""orange"",""yellow""]","5","high nameability","47","right","iti",""
"html-button-response","225","145222","0.0-174.0","CAN_116","116","","","","","","427","","0","pink","neonyellow","[""pink"",""neonyellow"",""low nameability""]","right-left","[""neonyellow"",""pink""]","5","low nameability","48","right","trigger",""
"html-button-response","226","145764","0.0-175.0-0.0","CAN_116","116","","","","","","533","<button class=""jspsych-btn""><img src=""stimuli/pink.png"" style=""width: 200px;height: 200px;""></button>","1","pink","neonyellow","[""pink"",""neonyellow"",""low nameability""]","right-left","[""neonyellow"",""pink""]","5","low nameability","48","right","response","1"
"html-audio-button-response","227","145975","0.0-175.0-1.0","CAN_116","116","","","","","","null","stimuli/bleep.m4a","null","pink","neonyellow","[""pink"",""neonyellow"",""low nameability""]","right-left","[""neonyellow"",""pink""]","5","low nameability","48","right","audio_feedback","1"
"html-button-response","228","146492","0.0-176.0","CAN_116","116","","","","","","null","<button class=""jspsych-btn""><img src=""stimuli/white_square.png"" style=""width: 200px;height: 200px;""></button>","null","pink","neonyellow","[""pink"",""neonyellow"",""low nameability""]","right-left","[""neonyellow"",""pink""]","5","low nameability","48","right","iti",""
"html-button-response","229","146988","0.0-177.0","CAN_116","116","","","","","","476","","0","blue","red","[""blue"",""red"",""high nameability""]","right-left","[""red"",""blue""]","5","high nameability","49","right","trigger",""
"html-button-response","230","147511","0.0-178.0-0.0","CAN_116","116","","","","","","511","<button class=""jspsych-btn""><img src=""stimuli/blue.png"" style=""width: 200px;height: 200px;""></button>","1","blue","red","[""blue"",""red"",""high nameability""]","right-left","[""red"",""blue""]","5","high nameability","49","right","response","1"
"html-audio-button-response","231","147718","0.0-178.0-1.0","CAN_116","116","","","","","","null","stimuli/bleep.m4a","null","blue","red","[""blue"",""red"",""high nameability""]","right-left","[""red"",""blue""]","5","high nameability","49","right","audio_feedback","1"
"html-button-response","232","148235","0.0-179.0","CAN_116","116","","","","","","null","<button class=""jspsych-btn""><img src=""stimuli/white_square.png"" style=""width: 200px;height: 200px;""></button>","null","blue","red","[""blue"",""red"",""high nameability""]","right-left","[""red"",""blue""]","5","high nameability","49","right","iti",""
"html-button-response","233","148679","0.0-180.0","CAN_116","116","","","","","","426","","0","mustard","neonyellow","[""mustard"",""neonyellow"",""low nameability""]","left-right","[""mustard"",""neonyellow"",""low nameability""]","5","low nameability","50","left","trigger",""
"html-button-response","234","149337","0.0-181.0-0.0","CAN_116","116","","","","","","649","<button class=""jspsych-btn""><img src=""stimuli/mustard.png"" style=""width: 200px;height: 200px;""></button>","0","mustard","neonyellow","[""mustard"",""neonyellow"",""low nameability""]","left-right","[""mustard"",""neonyellow"",""low nameability""]","5","low nameability","50","left","response","1"
"html-audio-button-response","235","149542","0.0-181.0-1.0","CAN_116","116","","","","","","null","stimuli/bleep.m4a","null","mustard","neonyellow","[""mustard"",""neonyellow"",""low nameability""]","left-right","[""mustard"",""neonyellow"",""low nameability""]","5","low nameability","50","left","audio_feedback","1"
"html-button-response","236","150067","0.0-182.0","CAN_116","116","","","","","","null","<button class=""jspsych-btn""><img src=""stimuli/white_square.png"" style=""width: 200px;height: 200px;""></button>","null","mustard","neonyellow","[""mustard"",""neonyellow"",""low nameability""]","left-right","[""mustard"",""neonyellow"",""low nameability""]","5","low nameability","50","left","iti",""
"pavlovia","237","150138","0.0-183.0","CAN_116","116","","","","","","","","","","","","","","","","","","",""
"pavlovia","238","150146","0.0-184.0","CAN_116","116","","","","","","","","","","","","","","","","","","",""
"html-audio-button-response","239","151901","0.0-185.0","CAN_116","116","","","","","","1832","stimuli/tada.m4a","0","","","","","","","","","","",""
"html-button-response","240","152661","0.0-186.0","CAN_116","116","","","","","","750","","0","","","","","","","","","","",""
"html-button-response","241","153304","0.0-187.0","CAN_116","116","","","","","","634","","0","yellow","blue","[""yellow"",""blue"",""high nameability""]","right-left","[""blue"",""yellow""]","6","high nameability","51","right","trigger",""
"html-button-response","242","153941","0.0-188.0-0.0","CAN_116","116","","","","","","629","<button class=""jspsych-btn""><img src=""stimuli/yellow.png"" style=""width: 200px;height: 200px;""></button>","1","yellow","blue","[""yellow"",""blue"",""high nameability""]","right-left","[""blue"",""yellow""]","6","high nameability","51","right","response","1"
"html-audio-button-response","243","154145","0.0-188.0-1.0","CAN_116","116","","","","","","null","stimuli/bleep.m4a","null","yellow","blue","[""yellow"",""blue"",""high nameability""]","right-left","[""blue"",""yellow""]","6","high nameability","51","right","audio_feedback","1"
"html-button-response","244","154670","0.0-189.0","CAN_116","116","","","","","","null","<button class=""jspsych-btn""><img src=""stimuli/white_square.png"" style=""width: 200px;height: 200px;""></button>","null","yellow","blue","[""yellow"",""blue"",""high nameability""]","right-left","[""blue"",""yellow""]","6","high nameability","51","right","iti",""
"html-button-response","245","155264","0.0-190.0","CAN_116","116","","","","","","572","","0","lightred","pink","[""lightred"",""pink"",""low nameability""]","right-left","[""pink"",""lightred""]","6","low nameability","52","right","trigger",""
"html-button-response","246","155747","0.0-191.0-0.0","CAN_116","116","","","","","","476","<button class=""jspsych-btn""><img src=""stimuli/lightred.png"" style=""width: 200px;height: 200px;""></button>","1","lightred","pink","[""lightred"",""pink"",""low nameability""]","right-left","[""pink"",""lightred""]","6","low nameability","52","right","response","1"
"html-audio-button-response","247","155965","0.0-191.0-1.0","CAN_116","116","","","","","","null","stimuli/bleep.m4a","null","lightred","pink","[""lightred"",""pink"",""low nameability""]","right-left","[""pink"",""lightred""]","6","low nameability","52","right","audio_feedback","1"
"html-button-response","248","156484","0.0-192.0","CAN_116","116","","","","","","null","<button class=""jspsych-btn""><img src=""stimuli/white_square.png"" style=""width: 200px;height: 200px;""></button>","null","lightred","pink","[""lightred"",""pink"",""low nameability""]","right-left","[""pink"",""lightred""]","6","low nameability","52","right","iti",""
"html-button-response","249","156926","0.0-193.0","CAN_116","116","","","","","","417","","0","mustard","lightred","[""mustard"",""lightred"",""low nameability""]","right-left","[""lightred"",""mustard""]","6","low nameability","53","right","trigger",""
"html-button-response","250","157418","0.0-194.0-0.0","CAN_116","116","","","","","","481","<button class=""jspsych-btn""><img src=""stimuli/mustard.png"" style=""width: 200px;height: 200px;""></button>","1","mustard","lightred","[""mustard"",""lightred"",""low nameability""]","right-left","[""lightred"",""mustard""]","6","low nameability","53","right","response","1"
"html-audio-button-response","251","157620","0.0-194.0-1.0","CAN_116","116","","","","","","null","stimuli/bleep.m4a","null","mustard","lightred","[""mustard"",""lightred"",""low nameability""]","right-left","[""lightred"",""mustard""]","6","low nameability","53","right","audio_feedback","1"
"html-button-response","252","158139","0.0-195.0","CAN_116","116","","","","","","null","<button class=""jspsych-btn""><img src=""stimuli/white_square.png"" style=""width: 200px;height: 200px;""></button>","null","mustard","lightred","[""mustard"",""lightred"",""low nameability""]","right-left","[""lightred"",""mustard""]","6","low nameability","53","right","iti",""
"html-button-response","253","158663","0.0-196.0","CAN_116","116","","","","","","510","","0","mustard","turquoise","[""mustard"",""turquoise"",""low nameability""]","left-right","[""mustard"",""turquoise"",""low nameability""]","6","low nameability","54","left","trigger",""
"html-button-response","254","159277","0.0-197.0-0.0","CAN_116","116","","","","","","607","<button class=""jspsych-btn""><img src=""stimuli/mustard.png"" style=""width: 200px;height: 200px;""></button>","0","mustard","turquoise","[""mustard"",""turquoise"",""low nameability""]","left-right","[""mustard"",""turquoise"",""low nameability""]","6","low nameability","54","left","response","1"
"html-audio-button-response","255","159480","0.0-197.0-1.0","CAN_116","116","","","","","","null","stimuli/bleep.m4a","null","mustard","turquoise","[""mustard"",""turquoise"",""low nameability""]","left-right","[""mustard"",""turquoise"",""low nameability""]","6","low nameability","54","left","audio_feedback","1"
"html-button-response","256","159997","0.0-198.0","CAN_116","116","","","","","","null","<button class=""jspsych-btn""><img src=""stimuli/white_square.png"" style=""width: 200px;height: 200px;""></button>","null","mustard","turquoise","[""mustard"",""turquoise"",""low nameability""]","left-right","[""mustard"",""turquoise"",""low nameability""]","6","low nameability","54","left","iti",""
"html-button-response","257","160457","0.0-199.0","CAN_116","116","","","","","","441","","0","lightred","neonyellow","[""lightred"",""neonyellow"",""low nameability""]","left-right","[""lightred"",""neonyellow"",""low nameability""]","6","low nameability","55","left","trigger",""
"html-button-response","258","161568","0.0-200.0-0.0","CAN_116","116","","","","","","1102","<button class=""jspsych-btn""><img src=""stimuli/lightred.png"" style=""width: 200px;height: 200px;""></button>","0","lightred","neonyellow","[""lightred"",""neonyellow"",""low nameability""]","left-right","[""lightred"",""neonyellow"",""low nameability""]","6","low nameability","55","left","response","1"
"html-audio-button-response","259","161774","0.0-200.0-1.0","CAN_116","116","","","","","","null","stimuli/bleep.m4a","null","lightred","neonyellow","[""lightred"",""neonyellow"",""low nameability""]","left-right","[""lightred"",""neonyellow"",""low nameability""]","6","low nameability","55","left","audio_feedback","1"
"html-button-response","260","162297","0.0-201.0","CAN_116","116","","","","","","null","<button class=""jspsych-btn""><img src=""stimuli/white_square.png"" style=""width: 200px;height: 200px;""></button>","null","lightred","neonyellow","[""lightred"",""neonyellow"",""low nameability""]","left-right","[""lightred"",""neonyellow"",""low nameability""]","6","low nameability","55","left","iti",""
"html-button-response","261","162797","0.0-202.0","CAN_116","116","","","","","","480","","0","yellow","red","[""yellow"",""red"",""high nameability""]","left-right","[""yellow"",""red"",""high nameability""]","6","high nameability","56","left","trigger",""
"html-button-response","262","163375","0.0-203.0-0.0","CAN_116","116","","","","","","572","<button class=""jspsych-btn""><img src=""stimuli/yellow.png"" style=""width: 200px;height: 200px;""></button>","0","yellow","red","[""yellow"",""red"",""high nameability""]","left-right","[""yellow"",""red"",""high nameability""]","6","high nameability","56","left","response","1"
"html-audio-button-response","263","163580","0.0-203.0-1.0","CAN_116","116","","","","","","null","stimuli/bleep.m4a","null","yellow","red","[""yellow"",""red"",""high nameability""]","left-right","[""yellow"",""red"",""high nameability""]","6","high nameability","56","left","audio_feedback","1"
"html-button-response","264","164103","0.0-204.0","CAN_116","116","","","","","","null","<button class=""jspsych-btn""><img src=""stimuli/white_square.png"" style=""width: 200px;height: 200px;""></button>","null","yellow","red","[""yellow"",""red"",""high nameability""]","left-right","[""yellow"",""red"",""high nameability""]","6","high nameability","56","left","iti",""
"html-button-response","265","164506","0.0-205.0","CAN_116","116","","","","","","384","","0","darkgreenblue","mustard","[""darkgreenblue"",""mustard"",""low nameability""]","right-left","[""mustard"",""darkgreenblue""]","6","low nameability","57","right","trigger",""
"html-button-response","266","165070","0.0-206.0-0.0","CAN_116","116","","","","","","554","<button class=""jspsych-btn""><img src=""stimuli/darkgreenblue.png"" style=""width: 200px;height: 200px;""></button>","1","darkgreenblue","mustard","[""darkgreenblue"",""mustard"",""low nameability""]","right-left","[""mustard"",""darkgreenblue""]","6","low nameability","57","right","response","1"
"html-audio-button-response","267","165270","0.0-206.0-1.0","CAN_116","116","","","","","","null","stimuli/bleep.m4a","null","darkgreenblue","mustard","[""darkgreenblue"",""mustard"",""low nameability""]","right-left","[""mustard"",""darkgreenblue""]","6","low nameability","57","right","audio_feedback","1"
"html-button-response","268","165784","0.0-207.0","CAN_116","116","","","","","","null","<button class=""jspsych-btn""><img src=""stimuli/white_square.png"" style=""width: 200px;height: 200px;""></button>","null","darkgreenblue","mustard","[""darkgreenblue"",""mustard"",""low nameability""]","right-left","[""mustard"",""darkgreenblue""]","6","low nameability","57","right","iti",""
"html-button-response","269","166203","0.0-208.0","CAN_116","116","","","","","","397","","0","purple","orange","[""purple"",""orange"",""high nameability""]","right-left","[""orange"",""purple""]","6","high nameability","58","right","trigger",""
"html-button-response","270","166720","0.0-209.0-0.0","CAN_116","116","","","","","","509","<button class=""jspsych-btn""><img src=""stimuli/purple.png"" style=""width: 200px;height: 200px;""></button>","1","purple","orange","[""purple"",""orange"",""high nameability""]","right-left","[""orange"",""purple""]","6","high nameability","58","right","response","1"
"html-audio-button-response","271","166925","0.0-209.0-1.0","CAN_116","116","","","","","","null","stimuli/bleep.m4a","null","purple","orange","[""purple"",""orange"",""high nameability""]","right-left","[""orange"",""purple""]","6","high nameability","58","right","audio_feedback","1"
"html-button-response","272","167444","0.0-210.0","CAN_116","116","","","","","","null","<button class=""jspsych-btn""><img src=""stimuli/white_square.png"" style=""width: 200px;height: 200px;""></button>","null","purple","orange","[""purple"",""orange"",""high nameability""]","right-left","[""orange"",""purple""]","6","high nameability","58","right","iti",""
"html-button-response","273","167873","0.0-211.0","CAN_116","116","","","","","","403","","0","blue","orange","[""blue"",""orange"",""high nameability""]","left-right","[""blue"",""orange"",""high nameability""]","6","high nameability","59","left","trigger",""
"html-button-response","274","168407","0.0-212.0-0.0","CAN_116","116","","","","","","526","<button class=""jspsych-btn""><img src=""stimuli/blue.png"" style=""width: 200px;height: 200px;""></button>","0","blue","orange","[""blue"",""orange"",""high nameability""]","left-right","[""blue"",""orange"",""high nameability""]","6","high nameability","59","left","response","1"
"html-audio-button-response","275","168614","0.0-212.0-1.0","CAN_116","116","","","","","","null","stimuli/bleep.m4a","null","blue","orange","[""blue"",""orange"",""high nameability""]","left-right","[""blue"",""orange"",""high nameability""]","6","high nameability","59","left","audio_feedback","1"
"html-button-response","276","169133","0.0-213.0","CAN_116","116","","","","","","null","<button class=""jspsych-btn""><img src=""stimuli/white_square.png"" style=""width: 200px;height: 200px;""></button>","null","blue","orange","[""blue"",""orange"",""high nameability""]","left-right","[""blue"",""orange"",""high nameability""]","6","high nameability","59","left","iti",""
"html-button-response","277","169671","0.0-214.0","CAN_116","116","","","","","","516","","0","orange","brown","[""orange"",""brown"",""high nameability""]","right-left","[""brown"",""orange""]","6","high nameability","60","right","trigger",""
"html-button-response","278","170380","0.0-215.0-0.0","CAN_116","116","","","","","","703","<button class=""jspsych-btn""><img src=""stimuli/orange.png"" style=""width: 200px;height: 200px;""></button>","1","orange","brown","[""orange"",""brown"",""high nameability""]","right-left","[""brown"",""orange""]","6","high nameability","60","right","response","1"
"html-audio-button-response","279","170584","0.0-215.0-1.0","CAN_116","116","","","","","","null","stimuli/bleep.m4a","null","orange","brown","[""orange"",""brown"",""high nameability""]","right-left","[""brown"",""orange""]","6","high nameability","60","right","audio_feedback","1"
"html-button-response","280","171111","0.0-216.0","CAN_116","116","","","","","","null","<button class=""jspsych-btn""><img src=""stimuli/white_square.png"" style=""width: 200px;height: 200px;""></button>","null","orange","brown","[""orange"",""brown"",""high nameability""]","right-left","[""brown"",""orange""]","6","high nameability","60","right","iti",""
