"trial_type","trial_index","time_elapsed","internal_node_id","subject_id","seed","success","timeout","failed_images","failed_audio","failed_video","rt","stimulus","response","target","foil","choices","combination_order","choices_in_order","round","condition","trial_counter","target_location","trial_kind","correct"
"pavlovia","0","19","0.0-0.0","CAN_109","109","","","","","","","","","","","","","","","","","","",""
"preload","1","1405","0.0-1.0","CAN_109","109","true","false","[]","[]","[]","","","","","","","","","","","","","",""
"fullscreen","2","15935","0.0-2.0","CAN_109","109","true","","","","","","","","","","","","","","","","","",""
"html-button-response","3","1763739","0.0-3.0","CAN_109","109","","","","","","1747780","","0","","","","","","","","","","",""
"html-button-response","4","1767880","0.0-4.0","CAN_109","109","","","","","","4118","","0","star","square","[""square"",""star""]","left-right","[""square"",""star""]","1","practice","1","right","trigger",""
"html-button-response","5","1788782","0.0-5.0-0.0","CAN_109","109","","","","","","20870","<button class=""jspsych-btn""><img src=""stimuli/star.png"" style=""width: 200px;height: 200px;""></button>","1","star","square","[""square"",""star""]","left-right","[""square"",""star""]","1","practice","1","right","response","1"
"html-audio-button-response","6","1789007","0.0-5.0-1.0","CAN_109","109","","","","","","null","stimuli/bleep.m4a","null","star","square","[""square"",""star""]","left-right","[""square"",""star""]","1","practice","1","right","audio_feedback","1"
"html-button-response","7","1789530","0.0-6.0","CAN_109","109","","","","","","null","<button class=""jspsych-btn""><img src=""stimuli/white_square.png"" style=""width: 200px;height: 200px;""></button>","null","star","square","[""square"",""star""]","left-right","[""square"",""star""]","1","practice","1","right","iti",""
"html-button-response","8","1790993","0.0-7.0","CAN_109","109","","","","","","1454","","0","triangle","pentagram","[""triangle"",""pentagram""]","left-right","[""triangle"",""pentagram""]","1","practice","1","left","trigger",""
"html-button-response","9","1792276","0.0-8.0-0.0","CAN_109","109","","","","","","1268","<button class=""jspsych-btn""><img src=""stimuli/triangle.png"" style=""width: 200px;height: 200px;""></button>","0","triangle","pentagram","[""triangle"",""pentagram""]","left-right","[""triangle"",""pentagram""]","1","practice","1","left","response","1"
"html-audio-button-response","10","1792497","0.0-8.0-1.0","CAN_109","109","","","","","","null","stimuli/bleep.m4a","null","triangle","pentagram","[""triangle"",""pentagram""]","left-right","[""triangle"",""pentagram""]","1","practice","1","left","audio_feedback","1"
"html-button-response","11","1793035","0.0-9.0","CAN_109","109","","","","","","null","<button class=""jspsych-btn""><img src=""stimuli/white_square.png"" style=""width: 200px;height: 200px;""></button>","null","triangle","pentagram","[""triangle"",""pentagram""]","left-right","[""triangle"",""pentagram""]","1","practice","1","left","iti",""
"html-button-response","12","1794013","0.0-10.0","CAN_109","109","","","","","","960","","0","diamond","rectangle","[""rectangle"",""diamond""]","left-right","[""rectangle"",""diamond""]","1","practice","1","right","trigger",""
"html-button-response","13","1795002","0.0-11.0-0.0","CAN_109","109","","","","","","976","<button class=""jspsych-btn""><img src=""stimuli/diamond.png"" style=""width: 200px;height: 200px;""></button>","1","diamond","rectangle","[""rectangle"",""diamond""]","left-right","[""rectangle"",""diamond""]","1","practice","1","right","response","1"
"html-audio-button-response","14","1795220","0.0-11.0-1.0","CAN_109","109","","","","","","null","stimuli/bleep.m4a","null","diamond","rectangle","[""rectangle"",""diamond""]","left-right","[""rectangle"",""diamond""]","1","practice","1","right","audio_feedback","1"
"html-button-response","15","1795753","0.0-12.0","CAN_109","109","","","","","","null","<button class=""jspsych-btn""><img src=""stimuli/white_square.png"" style=""width: 200px;height: 200px;""></button>","null","diamond","rectangle","[""rectangle"",""diamond""]","left-right","[""rectangle"",""diamond""]","1","practice","1","right","iti",""
"html-button-response","16","1796896","0.0-13.0","CAN_109","109","","","","","","1126","","0","pentagram","star","[""pentagram"",""star""]","left-right","[""pentagram"",""star""]","1","practice","1","left","trigger",""
"html-button-response","17","1798091","0.0-14.0-0.0","CAN_109","109","","","","","","1183","<button class=""jspsych-btn""><img src=""stimuli/pentagram.png"" style=""width: 200px;height: 200px;""></button>","0","pentagram","star","[""pentagram"",""star""]","left-right","[""pentagram"",""star""]","1","practice","1","left","response","1"
"html-audio-button-response","18","1798302","0.0-14.0-1.0","CAN_109","109","","","","","","null","stimuli/bleep.m4a","null","pentagram","star","[""pentagram"",""star""]","left-right","[""pentagram"",""star""]","1","practice","1","left","audio_feedback","1"
"html-button-response","19","1798833","0.0-15.0","CAN_109","109","","","","","","null","<button class=""jspsych-btn""><img src=""stimuli/white_square.png"" style=""width: 200px;height: 200px;""></button>","null","pentagram","star","[""pentagram"",""star""]","left-right","[""pentagram"",""star""]","1","practice","1","left","iti",""
"html-button-response","20","1801362","0.0-16.0","CAN_109","109","","","","","","2510","","0","","","","","","","","","","",""
"html-button-response","21","1803474","0.0-17.0","CAN_109","109","","","","","","2092","","0","red","brown","[""red"",""brown"",""high nameability""]","right-left","[""brown"",""red""]","1","high nameability","1","right","trigger",""
"html-button-response","22","1804412","0.0-18.0-0.0","CAN_109","109","","","","","","925","<button class=""jspsych-btn""><img src=""stimuli/red.png"" style=""width: 200px;height: 200px;""></button>","1","red","brown","[""red"",""brown"",""high nameability""]","right-left","[""brown"",""red""]","1","high nameability","1","right","response","1"
"html-audio-button-response","23","1804627","0.0-18.0-1.0","CAN_109","109","","","","","","null","stimuli/bleep.m4a","null","red","brown","[""red"",""brown"",""high nameability""]","right-left","[""brown"",""red""]","1","high nameability","1","right","audio_feedback","1"
"html-button-response","24","1805156","0.0-19.0","CAN_109","109","","","","","","null","<button class=""jspsych-btn""><img src=""stimuli/white_square.png"" style=""width: 200px;height: 200px;""></button>","null","red","brown","[""red"",""brown"",""high nameability""]","right-left","[""brown"",""red""]","1","high nameability","1","right","iti",""
"html-button-response","25","1805977","0.0-20.0","CAN_109","109","","","","","","798","","0","mustard","lightred","[""mustard"",""lightred"",""low nameability""]","right-left","[""lightred"",""mustard""]","1","low nameability","2","right","trigger",""
"html-button-response","26","1806927","0.0-21.0-0.0","CAN_109","109","","","","","","941","<button class=""jspsych-btn""><img src=""stimuli/mustard.png"" style=""width: 200px;height: 200px;""></button>","1","mustard","lightred","[""mustard"",""lightred"",""low nameability""]","right-left","[""lightred"",""mustard""]","1","low nameability","2","right","response","1"
"html-audio-button-response","27","1807143","0.0-21.0-1.0","CAN_109","109","","","","","","null","stimuli/bleep.m4a","null","mustard","lightred","[""mustard"",""lightred"",""low nameability""]","right-left","[""lightred"",""mustard""]","1","low nameability","2","right","audio_feedback","1"
"html-button-response","28","1807689","0.0-22.0","CAN_109","109","","","","","","null","<button class=""jspsych-btn""><img src=""stimuli/white_square.png"" style=""width: 200px;height: 200px;""></button>","null","mustard","lightred","[""mustard"",""lightred"",""low nameability""]","right-left","[""lightred"",""mustard""]","1","low nameability","2","right","iti",""
"html-button-response","29","1808553","0.0-23.0","CAN_109","109","","","","","","841","","0","neonyellow","mustard","[""neonyellow"",""mustard"",""low nameability""]","left-right","[""neonyellow"",""mustard"",""low nameability""]","1","low nameability","3","left","trigger",""
"html-button-response","30","1809598","0.0-24.0-0.0","CAN_109","109","","","","","","1032","<button class=""jspsych-btn""><img src=""stimuli/neonyellow.png"" style=""width: 200px;height: 200px;""></button>","0","neonyellow","mustard","[""neonyellow"",""mustard"",""low nameability""]","left-right","[""neonyellow"",""mustard"",""low nameability""]","1","low nameability","3","left","response","1"
"html-audio-button-response","31","1809822","0.0-24.0-1.0","CAN_109","109","","","","","","null","stimuli/bleep.m4a","null","neonyellow","mustard","[""neonyellow"",""mustard"",""low nameability""]","left-right","[""neonyellow"",""mustard"",""low nameability""]","1","low nameability","3","left","audio_feedback","1"
"html-button-response","32","1810358","0.0-25.0","CAN_109","109","","","","","","null","<button class=""jspsych-btn""><img src=""stimuli/white_square.png"" style=""width: 200px;height: 200px;""></button>","null","neonyellow","mustard","[""neonyellow"",""mustard"",""low nameability""]","left-right","[""neonyellow"",""mustard"",""low nameability""]","1","low nameability","3","left","iti",""
"html-button-response","33","1811163","0.0-26.0","CAN_109","109","","","","","","785","","0","neonyellow","darkgreenblue","[""neonyellow"",""darkgreenblue"",""low nameability""]","left-right","[""neonyellow"",""darkgreenblue"",""low nameability""]","1","low nameability","4","left","trigger",""
"html-button-response","34","1812199","0.0-27.0-0.0","CAN_109","109","","","","","","1024","<button class=""jspsych-btn""><img src=""stimuli/neonyellow.png"" style=""width: 200px;height: 200px;""></button>","0","neonyellow","darkgreenblue","[""neonyellow"",""darkgreenblue"",""low nameability""]","left-right","[""neonyellow"",""darkgreenblue"",""low nameability""]","1","low nameability","4","left","response","1"
"html-audio-button-response","35","1812409","0.0-27.0-1.0","CAN_109","109","","","","","","null","stimuli/bleep.m4a","null","neonyellow","darkgreenblue","[""neonyellow"",""darkgreenblue"",""low nameability""]","left-right","[""neonyellow"",""darkgreenblue"",""low nameability""]","1","low nameability","4","left","audio_feedback","1"
"html-button-response","36","1812950","0.0-28.0","CAN_109","109","","","","","","null","<button class=""jspsych-btn""><img src=""stimuli/white_square.png"" style=""width: 200px;height: 200px;""></button>","null","neonyellow","darkgreenblue","[""neonyellow"",""darkgreenblue"",""low nameability""]","left-right","[""neonyellow"",""darkgreenblue"",""low nameability""]","1","low nameability","4","left","iti",""
"html-button-response","37","1813686","0.0-29.0","CAN_109","109","","","","","","719","","0","blue","red","[""blue"",""red"",""high nameability""]","left-right","[""blue"",""red"",""high nameability""]","1","high nameability","5","left","trigger",""
"html-button-response","38","1814652","0.0-30.0-0.0","CAN_109","109","","","","","","952","<button class=""jspsych-btn""><img src=""stimuli/blue.png"" style=""width: 200px;height: 200px;""></button>","0","blue","red","[""blue"",""red"",""high nameability""]","left-right","[""blue"",""red"",""high nameability""]","1","high nameability","5","left","response","1"
"html-audio-button-response","39","1814869","0.0-30.0-1.0","CAN_109","109","","","","","","null","stimuli/bleep.m4a","null","blue","red","[""blue"",""red"",""high nameability""]","left-right","[""blue"",""red"",""high nameability""]","1","high nameability","5","left","audio_feedback","1"
"html-button-response","40","1815397","0.0-31.0","CAN_109","109","","","","","","null","<button class=""jspsych-btn""><img src=""stimuli/white_square.png"" style=""width: 200px;height: 200px;""></button>","null","blue","red","[""blue"",""red"",""high nameability""]","left-right","[""blue"",""red"",""high nameability""]","1","high nameability","5","left","iti",""
"html-button-response","41","1816162","0.0-32.0","CAN_109","109","","","","","","747","","0","neonyellow","turquoise","[""neonyellow"",""turquoise"",""low nameability""]","left-right","[""neonyellow"",""turquoise"",""low nameability""]","1","low nameability","6","left","trigger",""
"html-button-response","42","1817203","0.0-33.0-0.0","CAN_109","109","","","","","","1032","<button class=""jspsych-btn""><img src=""stimuli/neonyellow.png"" style=""width: 200px;height: 200px;""></button>","0","neonyellow","turquoise","[""neonyellow"",""turquoise"",""low nameability""]","left-right","[""neonyellow"",""turquoise"",""low nameability""]","1","low nameability","6","left","response","1"
"html-audio-button-response","43","1817417","0.0-33.0-1.0","CAN_109","109","","","","","","null","stimuli/bleep.m4a","null","neonyellow","turquoise","[""neonyellow"",""turquoise"",""low nameability""]","left-right","[""neonyellow"",""turquoise"",""low nameability""]","1","low nameability","6","left","audio_feedback","1"
"html-button-response","44","1817944","0.0-34.0","CAN_109","109","","","","","","null","<button class=""jspsych-btn""><img src=""stimuli/white_square.png"" style=""width: 200px;height: 200px;""></button>","null","neonyellow","turquoise","[""neonyellow"",""turquoise"",""low nameability""]","left-right","[""neonyellow"",""turquoise"",""low nameability""]","1","low nameability","6","left","iti",""
"html-button-response","45","1818730","0.0-35.0","CAN_109","109","","","","","","770","","0","lightred","neonyellow","[""lightred"",""neonyellow"",""low nameability""]","left-right","[""lightred"",""neonyellow"",""low nameability""]","1","low nameability","7","left","trigger",""
"html-button-response","46","1819706","0.0-36.0-0.0","CAN_109","109","","","","","","967","<button class=""jspsych-btn""><img src=""stimuli/lightred.png"" style=""width: 200px;height: 200px;""></button>","0","lightred","neonyellow","[""lightred"",""neonyellow"",""low nameability""]","left-right","[""lightred"",""neonyellow"",""low nameability""]","1","low nameability","7","left","response","1"
"html-audio-button-response","47","1819933","0.0-36.0-1.0","CAN_109","109","","","","","","null","stimuli/bleep.m4a","null","lightred","neonyellow","[""lightred"",""neonyellow"",""low nameability""]","left-right","[""lightred"",""neonyellow"",""low nameability""]","1","low nameability","7","left","audio_feedback","1"
"html-button-response","48","1820471","0.0-37.0","CAN_109","109","","","","","","null","<button class=""jspsych-btn""><img src=""stimuli/white_square.png"" style=""width: 200px;height: 200px;""></button>","null","lightred","neonyellow","[""lightred"",""neonyellow"",""low nameability""]","left-right","[""lightred"",""neonyellow"",""low nameability""]","1","low nameability","7","left","iti",""
"html-button-response","49","1821228","0.0-38.0","CAN_109","109","","","","","","739","","0","blue","purple","[""blue"",""purple"",""high nameability""]","right-left","[""purple"",""blue""]","1","high nameability","8","right","trigger",""
"html-button-response","50","1822371","0.0-39.0-0.0","CAN_109","109","","","","","","1130","<button class=""jspsych-btn""><img src=""stimuli/blue.png"" style=""width: 200px;height: 200px;""></button>","1","blue","purple","[""blue"",""purple"",""high nameability""]","right-left","[""purple"",""blue""]","1","high nameability","8","right","response","1"
"html-audio-button-response","51","1822580","0.0-39.0-1.0","CAN_109","109","","","","","","null","stimuli/bleep.m4a","null","blue","purple","[""blue"",""purple"",""high nameability""]","right-left","[""purple"",""blue""]","1","high nameability","8","right","audio_feedback","1"
"html-button-response","52","1823107","0.0-40.0","CAN_109","109","","","","","","null","<button class=""jspsych-btn""><img src=""stimuli/white_square.png"" style=""width: 200px;height: 200px;""></button>","null","blue","purple","[""blue"",""purple"",""high nameability""]","right-left","[""purple"",""blue""]","1","high nameability","8","right","iti",""
"html-button-response","53","1823897","0.0-41.0","CAN_109","109","","","","","","771","","0","purple","yellow","[""purple"",""yellow"",""high nameability""]","left-right","[""purple"",""yellow"",""high nameability""]","1","high nameability","9","left","trigger",""
"html-button-response","54","1824936","0.0-42.0-0.0","CAN_109","109","","","","","","1026","<button class=""jspsych-btn""><img src=""stimuli/purple.png"" style=""width: 200px;height: 200px;""></button>","0","purple","yellow","[""purple"",""yellow"",""high nameability""]","left-right","[""purple"",""yellow"",""high nameability""]","1","high nameability","9","left","response","1"
"html-audio-button-response","55","1825145","0.0-42.0-1.0","CAN_109","109","","","","","","null","stimuli/bleep.m4a","null","purple","yellow","[""purple"",""yellow"",""high nameability""]","left-right","[""purple"",""yellow"",""high nameability""]","1","high nameability","9","left","audio_feedback","1"
"html-button-response","56","1825682","0.0-43.0","CAN_109","109","","","","","","null","<button class=""jspsych-btn""><img src=""stimuli/white_square.png"" style=""width: 200px;height: 200px;""></button>","null","purple","yellow","[""purple"",""yellow"",""high nameability""]","left-right","[""purple"",""yellow"",""high nameability""]","1","high nameability","9","left","iti",""
"html-button-response","57","1826390","0.0-44.0","CAN_109","109","","","","","","688","","0","neonyellow","pink","[""neonyellow"",""pink"",""low nameability""]","right-left","[""pink"",""neonyellow""]","1","low nameability","10","right","trigger",""
"html-button-response","58","1827484","0.0-45.0-0.0","CAN_109","109","","","","","","1084","<button class=""jspsych-btn""><img src=""stimuli/neonyellow.png"" style=""width: 200px;height: 200px;""></button>","1","neonyellow","pink","[""neonyellow"",""pink"",""low nameability""]","right-left","[""pink"",""neonyellow""]","1","low nameability","10","right","response","1"
"html-audio-button-response","59","1827693","0.0-45.0-1.0","CAN_109","109","","","","","","null","stimuli/bleep.m4a","null","neonyellow","pink","[""neonyellow"",""pink"",""low nameability""]","right-left","[""pink"",""neonyellow""]","1","low nameability","10","right","audio_feedback","1"
"html-button-response","60","1828221","0.0-46.0","CAN_109","109","","","","","","null","<button class=""jspsych-btn""><img src=""stimuli/white_square.png"" style=""width: 200px;height: 200px;""></button>","null","neonyellow","pink","[""neonyellow"",""pink"",""low nameability""]","right-left","[""pink"",""neonyellow""]","1","low nameability","10","right","iti",""
"pavlovia","61","1828333","0.0-47.0","CAN_109","109","","","","","","","","","","","","","","","","","","",""
"pavlovia","62","1828348","0.0-48.0","CAN_109","109","","","","","","","","","","","","","","","","","","",""
"html-audio-button-response","63","1838182","0.0-49.0","CAN_109","109","","","","","","9952","stimuli/tada.m4a","0","","","","","","","","","","",""
"html-button-response","64","1839653","0.0-50.0","CAN_109","109","","","","","","1459","","0","","","","","","","","","","",""
"html-button-response","65","1840615","0.0-51.0","CAN_109","109","","","","","","946","","0","red","yellow","[""red"",""yellow"",""high nameability""]","right-left","[""yellow"",""red""]","2","high nameability","11","right","trigger",""
"html-button-response","66","1841482","0.0-52.0-0.0","CAN_109","109","","","","","","859","<button class=""jspsych-btn""><img src=""stimuli/red.png"" style=""width: 200px;height: 200px;""></button>","1","red","yellow","[""red"",""yellow"",""high nameability""]","right-left","[""yellow"",""red""]","2","high nameability","11","right","response","1"
"html-audio-button-response","67","1841691","0.0-52.0-1.0","CAN_109","109","","","","","","null","stimuli/bleep.m4a","null","red","yellow","[""red"",""yellow"",""high nameability""]","right-left","[""yellow"",""red""]","2","high nameability","11","right","audio_feedback","1"
"html-button-response","68","1842219","0.0-53.0","CAN_109","109","","","","","","null","<button class=""jspsych-btn""><img src=""stimuli/white_square.png"" style=""width: 200px;height: 200px;""></button>","null","red","yellow","[""red"",""yellow"",""high nameability""]","right-left","[""yellow"",""red""]","2","high nameability","11","right","iti",""
"html-button-response","69","1843078","0.0-54.0","CAN_109","109","","","","","","843","","0","red","orange","[""red"",""orange"",""high nameability""]","left-right","[""red"",""orange"",""high nameability""]","2","high nameability","12","left","trigger",""
"html-button-response","70","1843978","0.0-55.0-0.0","CAN_109","109","","","","","","887","<button class=""jspsych-btn""><img src=""stimuli/red.png"" style=""width: 200px;height: 200px;""></button>","0","red","orange","[""red"",""orange"",""high nameability""]","left-right","[""red"",""orange"",""high nameability""]","2","high nameability","12","left","response","1"
"html-audio-button-response","71","1844193","0.0-55.0-1.0","CAN_109","109","","","","","","null","stimuli/bleep.m4a","null","red","orange","[""red"",""orange"",""high nameability""]","left-right","[""red"",""orange"",""high nameability""]","2","high nameability","12","left","audio_feedback","1"
"html-button-response","72","1844725","0.0-56.0","CAN_109","109","","","","","","null","<button class=""jspsych-btn""><img src=""stimuli/white_square.png"" style=""width: 200px;height: 200px;""></button>","null","red","orange","[""red"",""orange"",""high nameability""]","left-right","[""red"",""orange"",""high nameability""]","2","high nameability","12","left","iti",""
"html-button-response","73","1845543","0.0-57.0","CAN_109","109","","","","","","800","","0","orange","red","[""orange"",""red"",""high nameability""]","right-left","[""red"",""orange""]","2","high nameability","13","right","trigger",""
"html-button-response","74","1846434","0.0-58.0-0.0","CAN_109","109","","","","","","880","<button class=""jspsych-btn""><img src=""stimuli/orange.png"" style=""width: 200px;height: 200px;""></button>","1","orange","red","[""orange"",""red"",""high nameability""]","right-left","[""red"",""orange""]","2","high nameability","13","right","response","1"
"html-audio-button-response","75","1846646","0.0-58.0-1.0","CAN_109","109","","","","","","null","stimuli/bleep.m4a","null","orange","red","[""orange"",""red"",""high nameability""]","right-left","[""red"",""orange""]","2","high nameability","13","right","audio_feedback","1"
"html-button-response","76","1847163","0.0-59.0","CAN_109","109","","","","","","null","<button class=""jspsych-btn""><img src=""stimuli/white_square.png"" style=""width: 200px;height: 200px;""></button>","null","orange","red","[""orange"",""red"",""high nameability""]","right-left","[""red"",""orange""]","2","high nameability","13","right","iti",""
"html-button-response","77","1847915","0.0-60.0","CAN_109","109","","","","","","739","","0","purple","brown","[""purple"",""brown"",""high nameability""]","left-right","[""purple"",""brown"",""high nameability""]","2","high nameability","14","left","trigger",""
"html-button-response","78","1848887","0.0-61.0-0.0","CAN_109","109","","","","","","964","<button class=""jspsych-btn""><img src=""stimuli/purple.png"" style=""width: 200px;height: 200px;""></button>","0","purple","brown","[""purple"",""brown"",""high nameability""]","left-right","[""purple"",""brown"",""high nameability""]","2","high nameability","14","left","response","1"
"html-audio-button-response","79","1849106","0.0-61.0-1.0","CAN_109","109","","","","","","null","stimuli/bleep.m4a","null","purple","brown","[""purple"",""brown"",""high nameability""]","left-right","[""purple"",""brown"",""high nameability""]","2","high nameability","14","left","audio_feedback","1"
"html-button-response","80","1849632","0.0-62.0","CAN_109","109","","","","","","null","<button class=""jspsych-btn""><img src=""stimuli/white_square.png"" style=""width: 200px;height: 200px;""></button>","null","purple","brown","[""purple"",""brown"",""high nameability""]","left-right","[""purple"",""brown"",""high nameability""]","2","high nameability","14","left","iti",""
"html-button-response","81","1850369","0.0-63.0","CAN_109","109","","","","","","720","","0","darkgreenblue","neonyellow","[""darkgreenblue"",""neonyellow"",""low nameability""]","right-left","[""neonyellow"",""darkgreenblue""]","2","low nameability","15","right","trigger",""
"html-button-response","82","1851213","0.0-64.0-0.0","CAN_109","109","","","","","","828","<button class=""jspsych-btn""><img src=""stimuli/darkgreenblue.png"" style=""width: 200px;height: 200px;""></button>","1","darkgreenblue","neonyellow","[""darkgreenblue"",""neonyellow"",""low nameability""]","right-left","[""neonyellow"",""darkgreenblue""]","2","low nameability","15","right","response","1"
"html-audio-button-response","83","1851421","0.0-64.0-1.0","CAN_109","109","","","","","","null","stimuli/bleep.m4a","null","darkgreenblue","neonyellow","[""darkgreenblue"",""neonyellow"",""low nameability""]","right-left","[""neonyellow"",""darkgreenblue""]","2","low nameability","15","right","audio_feedback","1"
"html-button-response","84","1851959","0.0-65.0","CAN_109","109","","","","","","null","<button class=""jspsych-btn""><img src=""stimuli/white_square.png"" style=""width: 200px;height: 200px;""></button>","null","darkgreenblue","neonyellow","[""darkgreenblue"",""neonyellow"",""low nameability""]","right-left","[""neonyellow"",""darkgreenblue""]","2","low nameability","15","right","iti",""
"html-button-response","85","1852726","0.0-66.0","CAN_109","109","","","","","","750","","0","mustard","darkgreenblue","[""mustard"",""darkgreenblue"",""low nameability""]","left-right","[""mustard"",""darkgreenblue"",""low nameability""]","2","low nameability","16","left","trigger",""
"html-button-response","86","1853758","0.0-67.0-0.0","CAN_109","109","","","","","","1020","<button class=""jspsych-btn""><img src=""stimuli/mustard.png"" style=""width: 200px;height: 200px;""></button>","0","mustard","darkgreenblue","[""mustard"",""darkgreenblue"",""low nameability""]","left-right","[""mustard"",""darkgreenblue"",""low nameability""]","2","low nameability","16","left","response","1"
"html-audio-button-response","87","1853974","0.0-67.0-1.0","CAN_109","109","","","","","","null","stimuli/bleep.m4a","null","mustard","darkgreenblue","[""mustard"",""darkgreenblue"",""low nameability""]","left-right","[""mustard"",""darkgreenblue"",""low nameability""]","2","low nameability","16","left","audio_feedback","1"
"html-button-response","88","1854508","0.0-68.0","CAN_109","109","","","","","","null","<button class=""jspsych-btn""><img src=""stimuli/white_square.png"" style=""width: 200px;height: 200px;""></button>","null","mustard","darkgreenblue","[""mustard"",""darkgreenblue"",""low nameability""]","left-right","[""mustard"",""darkgreenblue"",""low nameability""]","2","low nameability","16","left","iti",""
"html-button-response","89","1855247","0.0-69.0","CAN_109","109","","","","","","724","","0","yellow","orange","[""yellow"",""orange"",""high nameability""]","right-left","[""orange"",""yellow""]","2","high nameability","17","right","trigger",""
"html-button-response","90","1856303","0.0-70.0-0.0","CAN_109","109","","","","","","1046","<button class=""jspsych-btn""><img src=""stimuli/yellow.png"" style=""width: 200px;height: 200px;""></button>","1","yellow","orange","[""yellow"",""orange"",""high nameability""]","right-left","[""orange"",""yellow""]","2","high nameability","17","right","response","1"
"html-audio-button-response","91","1856511","0.0-70.0-1.0","CAN_109","109","","","","","","null","stimuli/bleep.m4a","null","yellow","orange","[""yellow"",""orange"",""high nameability""]","right-left","[""orange"",""yellow""]","2","high nameability","17","right","audio_feedback","1"
"html-button-response","92","1857057","0.0-71.0","CAN_109","109","","","","","","null","<button class=""jspsych-btn""><img src=""stimuli/white_square.png"" style=""width: 200px;height: 200px;""></button>","null","yellow","orange","[""yellow"",""orange"",""high nameability""]","right-left","[""orange"",""yellow""]","2","high nameability","17","right","iti",""
"html-button-response","93","1857851","0.0-72.0","CAN_109","109","","","","","","764","","0","mustard","turquoise","[""mustard"",""turquoise"",""low nameability""]","left-right","[""mustard"",""turquoise"",""low nameability""]","2","low nameability","18","left","trigger",""
"html-button-response","94","1858839","0.0-73.0-0.0","CAN_109","109","","","","","","979","<button class=""jspsych-btn""><img src=""stimuli/mustard.png"" style=""width: 200px;height: 200px;""></button>","0","mustard","turquoise","[""mustard"",""turquoise"",""low nameability""]","left-right","[""mustard"",""turquoise"",""low nameability""]","2","low nameability","18","left","response","1"
"html-audio-button-response","95","1859058","0.0-73.0-1.0","CAN_109","109","","","","","","null","stimuli/bleep.m4a","null","mustard","turquoise","[""mustard"",""turquoise"",""low nameability""]","left-right","[""mustard"",""turquoise"",""low nameability""]","2","low nameability","18","left","audio_feedback","1"
"html-button-response","96","1859590","0.0-74.0","CAN_109","109","","","","","","null","<button class=""jspsych-btn""><img src=""stimuli/white_square.png"" style=""width: 200px;height: 200px;""></button>","null","mustard","turquoise","[""mustard"",""turquoise"",""low nameability""]","left-right","[""mustard"",""turquoise"",""low nameability""]","2","low nameability","18","left","iti",""
"html-button-response","97","1860350","0.0-75.0","CAN_109","109","","","","","","744","","0","turquoise","neonyellow","[""turquoise"",""neonyellow"",""low nameability""]","right-left","[""neonyellow"",""turquoise""]","2","low nameability","19","right","trigger",""
"html-button-response","98","1861239","0.0-76.0-0.0","CAN_109","109","","","","","","880","<button class=""jspsych-btn""><img src=""stimuli/turquoise.png"" style=""width: 200px;height: 200px;""></button>","1","turquoise","neonyellow","[""turquoise"",""neonyellow"",""low nameability""]","right-left","[""neonyellow"",""turquoise""]","2","low nameability","19","right","response","1"
"html-audio-button-response","99","1861443","0.0-76.0-1.0","CAN_109","109","","","","","","null","stimuli/bleep.m4a","null","turquoise","neonyellow","[""turquoise"",""neonyellow"",""low nameability""]","right-left","[""neonyellow"",""turquoise""]","2","low nameability","19","right","audio_feedback","1"
"html-button-response","100","1861969","0.0-77.0","CAN_109","109","","","","","","null","<button class=""jspsych-btn""><img src=""stimuli/white_square.png"" style=""width: 200px;height: 200px;""></button>","null","turquoise","neonyellow","[""turquoise"",""neonyellow"",""low nameability""]","right-left","[""neonyellow"",""turquoise""]","2","low nameability","19","right","iti",""
"html-button-response","101","1862733","0.0-78.0","CAN_109","109","","","","","","747","","0","lightred","darkgreenblue","[""lightred"",""darkgreenblue"",""low nameability""]","right-left","[""darkgreenblue"",""lightred""]","2","low nameability","20","right","trigger",""
"html-button-response","102","1863632","0.0-79.0-0.0","CAN_109","109","","","","","","889","<button class=""jspsych-btn""><img src=""stimuli/lightred.png"" style=""width: 200px;height: 200px;""></button>","1","lightred","darkgreenblue","[""lightred"",""darkgreenblue"",""low nameability""]","right-left","[""darkgreenblue"",""lightred""]","2","low nameability","20","right","response","1"
"html-audio-button-response","103","1863851","0.0-79.0-1.0","CAN_109","109","","","","","","null","stimuli/bleep.m4a","null","lightred","darkgreenblue","[""lightred"",""darkgreenblue"",""low nameability""]","right-left","[""darkgreenblue"",""lightred""]","2","low nameability","20","right","audio_feedback","1"
"html-button-response","104","1864374","0.0-80.0","CAN_109","109","","","","","","null","<button class=""jspsych-btn""><img src=""stimuli/white_square.png"" style=""width: 200px;height: 200px;""></button>","null","lightred","darkgreenblue","[""lightred"",""darkgreenblue"",""low nameability""]","right-left","[""darkgreenblue"",""lightred""]","2","low nameability","20","right","iti",""
"pavlovia","105","1864442","0.0-81.0","CAN_109","109","","","","","","","","","","","","","","","","","","",""
"pavlovia","106","1864451","0.0-82.0","CAN_109","109","","","","","","","","","","","","","","","","","","",""
"html-audio-button-response","107","1866397","0.0-83.0","CAN_109","109","","","","","","2016","stimuli/tada.m4a","0","","","","","","","","","","",""
"html-button-response","108","1867586","0.0-84.0","CAN_109","109","","","","","","1181","","0","","","","","","","","","","",""
"html-button-response","109","1868612","0.0-85.0","CAN_109","109","","","","","","1013","","0","yellow","brown","[""yellow"",""brown"",""high nameability""]","left-right","[""yellow"",""brown"",""high nameability""]","3","high nameability","21","left","trigger",""
"html-button-response","110","1869587","0.0-86.0-0.0","CAN_109","109","","","","","","964","<button class=""jspsych-btn""><img src=""stimuli/yellow.png"" style=""width: 200px;height: 200px;""></button>","0","yellow","brown","[""yellow"",""brown"",""high nameability""]","left-right","[""yellow"",""brown"",""high nameability""]","3","high nameability","21","left","response","1"
"html-audio-button-response","111","1869800","0.0-86.0-1.0","CAN_109","109","","","","","","null","stimuli/bleep.m4a","null","yellow","brown","[""yellow"",""brown"",""high nameability""]","left-right","[""yellow"",""brown"",""high nameability""]","3","high nameability","21","left","audio_feedback","1"
"html-button-response","112","1870331","0.0-87.0","CAN_109","109","","","","","","null","<button class=""jspsych-btn""><img src=""stimuli/white_square.png"" style=""width: 200px;height: 200px;""></button>","null","yellow","brown","[""yellow"",""brown"",""high nameability""]","left-right","[""yellow"",""brown"",""high nameability""]","3","high nameability","21","left","iti",""
"html-button-response","113","1871112","0.0-88.0","CAN_109","109","","","","","","764","","0","yellow","blue","[""yellow"",""blue"",""high nameability""]","right-left","[""blue"",""yellow""]","3","high nameability","22","right","trigger",""
"html-button-response","114","1871891","0.0-89.0-0.0","CAN_109","109","","","","","","765","<button class=""jspsych-btn""><img src=""stimuli/yellow.png"" style=""width: 200px;height: 200px;""></button>","1","yellow","blue","[""yellow"",""blue"",""high nameability""]","right-left","[""blue"",""yellow""]","3","high nameability","22","right","response","1"
"html-audio-button-response","115","1872110","0.0-89.0-1.0","CAN_109","109","","","","","","null","stimuli/bleep.m4a","null","yellow","blue","[""yellow"",""blue"",""high nameability""]","right-left","[""blue"",""yellow""]","3","high nameability","22","right","audio_feedback","1"
"html-button-response","116","1872639","0.0-90.0","CAN_109","109","","","","","","null","<button class=""jspsych-btn""><img src=""stimuli/white_square.png"" style=""width: 200px;height: 200px;""></button>","null","yellow","blue","[""yellow"",""blue"",""high nameability""]","right-left","[""blue"",""yellow""]","3","high nameability","22","right","iti",""
"html-button-response","117","1873419","0.0-91.0","CAN_109","109","","","","","","762","","0","pink","lightred","[""pink"",""lightred"",""low nameability""]","left-right","[""pink"",""lightred"",""low nameability""]","3","low nameability","23","left","trigger",""
"html-button-response","118","1874411","0.0-92.0-0.0","CAN_109","109","","","","","","977","<button class=""jspsych-btn""><img src=""stimuli/pink.png"" style=""width: 200px;height: 200px;""></button>","0","pink","lightred","[""pink"",""lightred"",""low nameability""]","left-right","[""pink"",""lightred"",""low nameability""]","3","low nameability","23","left","response","1"
"html-audio-button-response","119","1874620","0.0-92.0-1.0","CAN_109","109","","","","","","null","stimuli/bleep.m4a","null","pink","lightred","[""pink"",""lightred"",""low nameability""]","left-right","[""pink"",""lightred"",""low nameability""]","3","low nameability","23","left","audio_feedback","1"
"html-button-response","120","1875150","0.0-93.0","CAN_109","109","","","","","","null","<button class=""jspsych-btn""><img src=""stimuli/white_square.png"" style=""width: 200px;height: 200px;""></button>","null","pink","lightred","[""pink"",""lightred"",""low nameability""]","left-right","[""pink"",""lightred"",""low nameability""]","3","low nameability","23","left","iti",""
"html-button-response","121","1875915","0.0-94.0","CAN_109","109","","","","","","745","","0","purple","orange","[""purple"",""orange"",""high nameability""]","left-right","[""purple"",""orange"",""high nameability""]","3","high nameability","24","left","trigger",""
"html-button-response","122","1876874","0.0-95.0-0.0","CAN_109","109","","","","","","951","<button class=""jspsych-btn""><img src=""stimuli/purple.png"" style=""width: 200px;height: 200px;""></button>","0","purple","orange","[""purple"",""orange"",""high nameability""]","left-right","[""purple"",""orange"",""high nameability""]","3","high nameability","24","left","response","1"
"html-audio-button-response","123","1877093","0.0-95.0-1.0","CAN_109","109","","","","","","null","stimuli/bleep.m4a","null","purple","orange","[""purple"",""orange"",""high nameability""]","left-right","[""purple"",""orange"",""high nameability""]","3","high nameability","24","left","audio_feedback","1"
"html-button-response","124","1877630","0.0-96.0","CAN_109","109","","","","","","null","<button class=""jspsych-btn""><img src=""stimuli/white_square.png"" style=""width: 200px;height: 200px;""></button>","null","purple","orange","[""purple"",""orange"",""high nameability""]","left-right","[""purple"",""orange"",""high nameability""]","3","high nameability","24","left","iti",""
"html-button-response","125","1878341","0.0-97.0","CAN_109","109","","","","","","694","","0","orange","yellow","[""orange"",""yellow"",""high nameability""]","right-left","[""yellow"",""orange""]","3","high nameability","25","right","trigger",""
"html-button-response","126","1879158","0.0-98.0-0.0","CAN_109","109","","","","","","805","<button class=""jspsych-btn""><img src=""stimuli/orange.png"" style=""width: 200px;height: 200px;""></button>","1","orange","yellow","[""orange"",""yellow"",""high nameability""]","right-left","[""yellow"",""orange""]","3","high nameability","25","right","response","1"
"html-audio-button-response","127","1879364","0.0-98.0-1.0","CAN_109","109","","","","","","null","stimuli/bleep.m4a","null","orange","yellow","[""orange"",""yellow"",""high nameability""]","right-left","[""yellow"",""orange""]","3","high nameability","25","right","audio_feedback","1"
"html-button-response","128","1879897","0.0-99.0","CAN_109","109","","","","","","null","<button class=""jspsych-btn""><img src=""stimuli/white_square.png"" style=""width: 200px;height: 200px;""></button>","null","orange","yellow","[""orange"",""yellow"",""high nameability""]","right-left","[""yellow"",""orange""]","3","high nameability","25","right","iti",""
"html-button-response","129","1880657","0.0-100.0","CAN_109","109","","","","","","744","","0","lightred","pink","[""lightred"",""pink"",""low nameability""]","right-left","[""pink"",""lightred""]","3","low nameability","26","right","trigger",""
"html-button-response","130","1881551","0.0-101.0-0.0","CAN_109","109","","","","","","884","<button class=""jspsych-btn""><img src=""stimuli/lightred.png"" style=""width: 200px;height: 200px;""></button>","1","lightred","pink","[""lightred"",""pink"",""low nameability""]","right-left","[""pink"",""lightred""]","3","low nameability","26","right","response","1"
"html-audio-button-response","131","1881766","0.0-101.0-1.0","CAN_109","109","","","","","","null","stimuli/bleep.m4a","null","lightred","pink","[""lightred"",""pink"",""low nameability""]","right-left","[""pink"",""lightred""]","3","low nameability","26","right","audio_feedback","1"
"html-button-response","132","1882301","0.0-102.0","CAN_109","109","","","","","","null","<button class=""jspsych-btn""><img src=""stimuli/white_square.png"" style=""width: 200px;height: 200px;""></button>","null","lightred","pink","[""lightred"",""pink"",""low nameability""]","right-left","[""pink"",""lightred""]","3","low nameability","26","right","iti",""
"html-button-response","133","1883048","0.0-103.0","CAN_109","109","","","","","","728","","0","turquoise","pink","[""turquoise"",""pink"",""low nameability""]","right-left","[""pink"",""turquoise""]","3","low nameability","27","right","trigger",""
"html-button-response","134","1883897","0.0-104.0-0.0","CAN_109","109","","","","","","838","<button class=""jspsych-btn""><img src=""stimuli/turquoise.png"" style=""width: 200px;height: 200px;""></button>","1","turquoise","pink","[""turquoise"",""pink"",""low nameability""]","right-left","[""pink"",""turquoise""]","3","low nameability","27","right","response","1"
"html-audio-button-response","135","1884110","0.0-104.0-1.0","CAN_109","109","","","","","","null","stimuli/bleep.m4a","null","turquoise","pink","[""turquoise"",""pink"",""low nameability""]","right-left","[""pink"",""turquoise""]","3","low nameability","27","right","audio_feedback","1"
"html-button-response","136","1884640","0.0-105.0","CAN_109","109","","","","","","null","<button class=""jspsych-btn""><img src=""stimuli/white_square.png"" style=""width: 200px;height: 200px;""></button>","null","turquoise","pink","[""turquoise"",""pink"",""low nameability""]","right-left","[""pink"",""turquoise""]","3","low nameability","27","right","iti",""
"html-button-response","137","1885418","0.0-106.0","CAN_109","109","","","","","","761","","0","turquoise","mustard","[""turquoise"",""mustard"",""low nameability""]","left-right","[""turquoise"",""mustard"",""low nameability""]","3","low nameability","28","left","trigger",""
"html-button-response","138","1886346","0.0-107.0-0.0","CAN_109","109","","","","","","918","<button class=""jspsych-btn""><img src=""stimuli/turquoise.png"" style=""width: 200px;height: 200px;""></button>","0","turquoise","mustard","[""turquoise"",""mustard"",""low nameability""]","left-right","[""turquoise"",""mustard"",""low nameability""]","3","low nameability","28","left","response","1"
"html-audio-button-response","139","1886560","0.0-107.0-1.0","CAN_109","109","","","","","","null","stimuli/bleep.m4a","null","turquoise","mustard","[""turquoise"",""mustard"",""low nameability""]","left-right","[""turquoise"",""mustard"",""low nameability""]","3","low nameability","28","left","audio_feedback","1"
"html-button-response","140","1887089","0.0-108.0","CAN_109","109","","","","","","null","<button class=""jspsych-btn""><img src=""stimuli/white_square.png"" style=""width: 200px;height: 200px;""></button>","null","turquoise","mustard","[""turquoise"",""mustard"",""low nameability""]","left-right","[""turquoise"",""mustard"",""low nameability""]","3","low nameability","28","left","iti",""
"html-button-response","141","1887879","0.0-109.0","CAN_109","109","","","","","","770","","0","pink","darkgreenblue","[""pink"",""darkgreenblue"",""low nameability""]","right-left","[""darkgreenblue"",""pink""]","3","low nameability","29","right","trigger",""
"html-button-response","142","1888750","0.0-110.0-0.0","CAN_109","109","","","","","","856","<button class=""jspsych-btn""><img src=""stimuli/pink.png"" style=""width: 200px;height: 200px;""></button>","1","pink","darkgreenblue","[""pink"",""darkgreenblue"",""low nameability""]","right-left","[""darkgreenblue"",""pink""]","3","low nameability","29","right","response","1"
"html-audio-button-response","143","1888953","0.0-110.0-1.0","CAN_109","109","","","","","","null","stimuli/bleep.m4a","null","pink","darkgreenblue","[""pink"",""darkgreenblue"",""low nameability""]","right-left","[""darkgreenblue"",""pink""]","3","low nameability","29","right","audio_feedback","1"
"html-button-response","144","1889466","0.0-111.0","CAN_109","109","","","","","","null","<button class=""jspsych-btn""><img src=""stimuli/white_square.png"" style=""width: 200px;height: 200px;""></button>","null","pink","darkgreenblue","[""pink"",""darkgreenblue"",""low nameability""]","right-left","[""darkgreenblue"",""pink""]","3","low nameability","29","right","iti",""
"html-button-response","145","1890259","0.0-112.0","CAN_109","109","","","","","","776","","0","yellow","red","[""yellow"",""red"",""high nameability""]","right-left","[""red"",""yellow""]","3","high nameability","30","right","trigger",""
"html-button-response","146","1891067","0.0-113.0-0.0","CAN_109","109","","","","","","799","<button class=""jspsych-btn""><img src=""stimuli/yellow.png"" style=""width: 200px;height: 200px;""></button>","1","yellow","red","[""yellow"",""red"",""high nameability""]","right-left","[""red"",""yellow""]","3","high nameability","30","right","response","1"
"html-audio-button-response","147","1891279","0.0-113.0-1.0","CAN_109","109","","","","","","null","stimuli/bleep.m4a","null","yellow","red","[""yellow"",""red"",""high nameability""]","right-left","[""red"",""yellow""]","3","high nameability","30","right","audio_feedback","1"
"html-button-response","148","1891815","0.0-114.0","CAN_109","109","","","","","","null","<button class=""jspsych-btn""><img src=""stimuli/white_square.png"" style=""width: 200px;height: 200px;""></button>","null","yellow","red","[""yellow"",""red"",""high nameability""]","right-left","[""red"",""yellow""]","3","high nameability","30","right","iti",""
"pavlovia","149","1891856","0.0-115.0","CAN_109","109","","","","","","","","","","","","","","","","","","",""
"pavlovia","150","1891862","0.0-116.0","CAN_109","109","","","","","","","","","","","","","","","","","","",""
"html-audio-button-response","151","1893712","0.0-117.0","CAN_109","109","","","","","","1891","stimuli/tada.m4a","0","","","","","","","","","","",""
"html-button-response","152","1897227","0.0-118.0","CAN_109","109","","","","","","3507","","0","","","","","","","","","","",""
"html-button-response","153","1898213","0.0-119.0","CAN_109","109","","","","","","977","","0","brown","orange","[""brown"",""orange"",""high nameability""]","right-left","[""orange"",""brown""]","4","high nameability","31","right","trigger",""
"html-button-response","154","1899043","0.0-120.0-0.0","CAN_109","109","","","","","","814","<button class=""jspsych-btn""><img src=""stimuli/brown.png"" style=""width: 200px;height: 200px;""></button>","1","brown","orange","[""brown"",""orange"",""high nameability""]","right-left","[""orange"",""brown""]","4","high nameability","31","right","response","1"
"html-audio-button-response","155","1899253","0.0-120.0-1.0","CAN_109","109","","","","","","null","stimuli/bleep.m4a","null","brown","orange","[""brown"",""orange"",""high nameability""]","right-left","[""orange"",""brown""]","4","high nameability","31","right","audio_feedback","1"
"html-button-response","156","1899783","0.0-121.0","CAN_109","109","","","","","","null","<button class=""jspsych-btn""><img src=""stimuli/white_square.png"" style=""width: 200px;height: 200px;""></button>","null","brown","orange","[""brown"",""orange"",""high nameability""]","right-left","[""orange"",""brown""]","4","high nameability","31","right","iti",""
"html-button-response","157","1900555","0.0-122.0","CAN_109","109","","","","","","754","","0","yellow","purple","[""yellow"",""purple"",""high nameability""]","left-right","[""yellow"",""purple"",""high nameability""]","4","high nameability","32","left","trigger",""
"html-button-response","158","1901554","0.0-123.0-0.0","CAN_109","109","","","","","","989","<button class=""jspsych-btn""><img src=""stimuli/yellow.png"" style=""width: 200px;height: 200px;""></button>","0","yellow","purple","[""yellow"",""purple"",""high nameability""]","left-right","[""yellow"",""purple"",""high nameability""]","4","high nameability","32","left","response","1"
"html-audio-button-response","159","1901759","0.0-123.0-1.0","CAN_109","109","","","","","","null","stimuli/bleep.m4a","null","yellow","purple","[""yellow"",""purple"",""high nameability""]","left-right","[""yellow"",""purple"",""high nameability""]","4","high nameability","32","left","audio_feedback","1"
"html-button-response","160","1902281","0.0-124.0","CAN_109","109","","","","","","null","<button class=""jspsych-btn""><img src=""stimuli/white_square.png"" style=""width: 200px;height: 200px;""></button>","null","yellow","purple","[""yellow"",""purple"",""high nameability""]","left-right","[""yellow"",""purple"",""high nameability""]","4","high nameability","32","left","iti",""
"html-button-response","161","1903031","0.0-125.0","CAN_109","109","","","","","","732","","0","pink","mustard","[""pink"",""mustard"",""low nameability""]","left-right","[""pink"",""mustard"",""low nameability""]","4","low nameability","33","left","trigger",""
"html-button-response","162","1904003","0.0-126.0-0.0","CAN_109","109","","","","","","962","<button class=""jspsych-btn""><img src=""stimuli/pink.png"" style=""width: 200px;height: 200px;""></button>","0","pink","mustard","[""pink"",""mustard"",""low nameability""]","left-right","[""pink"",""mustard"",""low nameability""]","4","low nameability","33","left","response","1"
"html-audio-button-response","163","1904212","0.0-126.0-1.0","CAN_109","109","","","","","","null","stimuli/bleep.m4a","null","pink","mustard","[""pink"",""mustard"",""low nameability""]","left-right","[""pink"",""mustard"",""low nameability""]","4","low nameability","33","left","audio_feedback","1"
"html-button-response","164","1904741","0.0-127.0","CAN_109","109","","","","","","null","<button class=""jspsych-btn""><img src=""stimuli/white_square.png"" style=""width: 200px;height: 200px;""></button>","null","pink","mustard","[""pink"",""mustard"",""low nameability""]","left-right","[""pink"",""mustard"",""low nameability""]","4","low nameability","33","left","iti",""
"html-button-response","165","1905493","0.0-128.0","CAN_109","109","","","","","","736","","0","blue","brown","[""blue"",""brown"",""high nameability""]","right-left","[""brown"",""blue""]","4","high nameability","34","right","trigger",""
"html-button-response","166","1906352","0.0-129.0-0.0","CAN_109","109","","","","","","850","<button class=""jspsych-btn""><img src=""stimuli/blue.png"" style=""width: 200px;height: 200px;""></button>","1","blue","brown","[""blue"",""brown"",""high nameability""]","right-left","[""brown"",""blue""]","4","high nameability","34","right","response","1"
"html-audio-button-response","167","1906561","0.0-129.0-1.0","CAN_109","109","","","","","","null","stimuli/bleep.m4a","null","blue","brown","[""blue"",""brown"",""high nameability""]","right-left","[""brown"",""blue""]","4","high nameability","34","right","audio_feedback","1"
"html-button-response","168","1907093","0.0-130.0","CAN_109","109","","","","","","null","<button class=""jspsych-btn""><img src=""stimuli/white_square.png"" style=""width: 200px;height: 200px;""></button>","null","blue","brown","[""blue"",""brown"",""high nameability""]","right-left","[""brown"",""blue""]","4","high nameability","34","right","iti",""
"html-button-response","169","1907814","0.0-131.0","CAN_109","109","","","","","","704","","0","orange","brown","[""orange"",""brown"",""high nameability""]","left-right","[""orange"",""brown"",""high nameability""]","4","high nameability","35","left","trigger",""
"html-button-response","170","1908731","0.0-132.0-0.0","CAN_109","109","","","","","","906","<button class=""jspsych-btn""><img src=""stimuli/orange.png"" style=""width: 200px;height: 200px;""></button>","0","orange","brown","[""orange"",""brown"",""high nameability""]","left-right","[""orange"",""brown"",""high nameability""]","4","high nameability","35","left","response","1"
"html-audio-button-response","171","1908942","0.0-132.0-1.0","CAN_109","109","","","","","","null","stimuli/bleep.m4a","null","orange","brown","[""orange"",""brown"",""high nameability""]","left-right","[""orange"",""brown"",""high nameability""]","4","high nameability","35","left","audio_feedback","1"
"html-button-response","172","1909469","0.0-133.0","CAN_109","109","","","","","","null","<button class=""jspsych-btn""><img src=""stimuli/white_square.png"" style=""width: 200px;height: 200px;""></button>","null","orange","brown","[""orange"",""brown"",""high nameability""]","left-right","[""orange"",""brown"",""high nameability""]","4","high nameability","35","left","iti",""
"html-button-response","173","1910220","0.0-134.0","CAN_109","109","","","","","","732","","0","lightred","turquoise","[""lightred"",""turquoise"",""low nameability""]","right-left","[""turquoise"",""lightred""]","4","low nameability","36","right","trigger",""
"html-button-response","174","1911062","0.0-135.0-0.0","CAN_109","109","","","","","","831","<button class=""jspsych-btn""><img src=""stimuli/lightred.png"" style=""width: 200px;height: 200px;""></button>","1","lightred","turquoise","[""lightred"",""turquoise"",""low nameability""]","right-left","[""turquoise"",""lightred""]","4","low nameability","36","right","response","1"
"html-audio-button-response","175","1911282","0.0-135.0-1.0","CAN_109","109","","","","","","null","stimuli/bleep.m4a","null","lightred","turquoise","[""lightred"",""turquoise"",""low nameability""]","right-left","[""turquoise"",""lightred""]","4","low nameability","36","right","audio_feedback","1"
"html-button-response","176","1911813","0.0-136.0","CAN_109","109","","","","","","null","<button class=""jspsych-btn""><img src=""stimuli/white_square.png"" style=""width: 200px;height: 200px;""></button>","null","lightred","turquoise","[""lightred"",""turquoise"",""low nameability""]","right-left","[""turquoise"",""lightred""]","4","low nameability","36","right","iti",""
"html-button-response","177","1912561","0.0-137.0","CAN_109","109","","","","","","713","","0","blue","orange","[""blue"",""orange"",""high nameability""]","right-left","[""orange"",""blue""]","4","high nameability","37","right","trigger",""
"html-button-response","178","1913390","0.0-138.0-0.0","CAN_109","109","","","","","","809","<button class=""jspsych-btn""><img src=""stimuli/blue.png"" style=""width: 200px;height: 200px;""></button>","1","blue","orange","[""blue"",""orange"",""high nameability""]","right-left","[""orange"",""blue""]","4","high nameability","37","right","response","1"
"html-audio-button-response","179","1913604","0.0-138.0-1.0","CAN_109","109","","","","","","null","stimuli/bleep.m4a","null","blue","orange","[""blue"",""orange"",""high nameability""]","right-left","[""orange"",""blue""]","4","high nameability","37","right","audio_feedback","1"
"html-button-response","180","1914127","0.0-139.0","CAN_109","109","","","","","","null","<button class=""jspsych-btn""><img src=""stimuli/white_square.png"" style=""width: 200px;height: 200px;""></button>","null","blue","orange","[""blue"",""orange"",""high nameability""]","right-left","[""orange"",""blue""]","4","high nameability","37","right","iti",""
"html-button-response","181","1914880","0.0-140.0","CAN_109","109","","","","","","736","","0","pink","neonyellow","[""pink"",""neonyellow"",""low nameability""]","right-left","[""neonyellow"",""pink""]","4","low nameability","38","right","trigger",""
"html-button-response","182","1915684","0.0-141.0-0.0","CAN_109","109","","","","","","795","<button class=""jspsych-btn""><img src=""stimuli/pink.png"" style=""width: 200px;height: 200px;""></button>","1","pink","neonyellow","[""pink"",""neonyellow"",""low nameability""]","right-left","[""neonyellow"",""pink""]","4","low nameability","38","right","response","1"
"html-audio-button-response","183","1915910","0.0-141.0-1.0","CAN_109","109","","","","","","null","stimuli/bleep.m4a","null","pink","neonyellow","[""pink"",""neonyellow"",""low nameability""]","right-left","[""neonyellow"",""pink""]","4","low nameability","38","right","audio_feedback","1"
"html-button-response","184","1916445","0.0-142.0","CAN_109","109","","","","","","null","<button class=""jspsych-btn""><img src=""stimuli/white_square.png"" style=""width: 200px;height: 200px;""></button>","null","pink","neonyellow","[""pink"",""neonyellow"",""low nameability""]","right-left","[""neonyellow"",""pink""]","4","low nameability","38","right","iti",""
"html-button-response","185","1917131","0.0-143.0","CAN_109","109","","","","","","662","","0","red","blue","[""red"",""blue"",""high nameability""]","left-right","[""red"",""blue"",""high nameability""]","4","high nameability","39","left","trigger",""
"html-button-response","186","1918071","0.0-144.0-0.0","CAN_109","109","","","","","","929","<button class=""jspsych-btn""><img src=""stimuli/red.png"" style=""width: 200px;height: 200px;""></button>","0","red","blue","[""red"",""blue"",""high nameability""]","left-right","[""red"",""blue"",""high nameability""]","4","high nameability","39","left","response","1"
"html-audio-button-response","187","1918278","0.0-144.0-1.0","CAN_109","109","","","","","","null","stimuli/bleep.m4a","null","red","blue","[""red"",""blue"",""high nameability""]","left-right","[""red"",""blue"",""high nameability""]","4","high nameability","39","left","audio_feedback","1"
"html-button-response","188","1918803","0.0-145.0","CAN_109","109","","","","","","null","<button class=""jspsych-btn""><img src=""stimuli/white_square.png"" style=""width: 200px;height: 200px;""></button>","null","red","blue","[""red"",""blue"",""high nameability""]","left-right","[""red"",""blue"",""high nameability""]","4","high nameability","39","left","iti",""
"html-button-response","189","1919534","0.0-146.0","CAN_109","109","","","","","","715","","0","pink","turquoise","[""pink"",""turquoise"",""low nameability""]","right-left","[""turquoise"",""pink""]","4","low nameability","40","right","trigger",""
"html-button-response","190","1920362","0.0-147.0-0.0","CAN_109","109","","","","","","816","<button class=""jspsych-btn""><img src=""stimuli/pink.png"" style=""width: 200px;height: 200px;""></button>","1","pink","turquoise","[""pink"",""turquoise"",""low nameability""]","right-left","[""turquoise"",""pink""]","4","low nameability","40","right","response","1"
"html-audio-button-response","191","1920572","0.0-147.0-1.0","CAN_109","109","","","","","","null","stimuli/bleep.m4a","null","pink","turquoise","[""pink"",""turquoise"",""low nameability""]","right-left","[""turquoise"",""pink""]","4","low nameability","40","right","audio_feedback","1"
"html-button-response","192","1921101","0.0-148.0","CAN_109","109","","","","","","null","<button class=""jspsych-btn""><img src=""stimuli/white_square.png"" style=""width: 200px;height: 200px;""></button>","null","pink","turquoise","[""pink"",""turquoise"",""low nameability""]","right-left","[""turquoise"",""pink""]","4","low nameability","40","right","iti",""
"pavlovia","193","1921154","0.0-149.0","CAN_109","109","","","","","","","","","","","","","","","","","","",""
"pavlovia","194","1921161","0.0-150.0","CAN_109","109","","","","","","","","","","","","","","","","","","",""
"html-audio-button-response","195","1922849","0.0-151.0","CAN_109","109","","","","","","1744","stimuli/tada.m4a","0","","","","","","","","","","",""
"html-button-response","196","1923869","0.0-152.0","CAN_109","109","","","","","","1011","","0","","","","","","","","","","",""
"html-button-response","197","1924642","0.0-153.0","CAN_109","109","","","","","","763","","0","purple","blue","[""purple"",""blue"",""high nameability""]","right-left","[""blue"",""purple""]","5","high nameability","41","right","trigger",""
"html-button-response","198","1925466","0.0-154.0-0.0","CAN_109","109","","","","","","816","<button class=""jspsych-btn""><img src=""stimuli/purple.png"" style=""width: 200px;height: 200px;""></button>","1","purple","blue","[""purple"",""blue"",""high nameability""]","right-left","[""blue"",""purple""]","5","high nameability","41","right","response","1"
"html-audio-button-response","199","1925680","0.0-154.0-1.0","CAN_109","109","","","","","","null","stimuli/bleep.m4a","null","purple","blue","[""purple"",""blue"",""high nameability""]","right-left","[""blue"",""purple""]","5","high nameability","41","right","audio_feedback","1"
"html-button-response","200","1926206","0.0-155.0","CAN_109","109","","","","","","null","<button class=""jspsych-btn""><img src=""stimuli/white_square.png"" style=""width: 200px;height: 200px;""></button>","null","purple","blue","[""purple"",""blue"",""high nameability""]","right-left","[""blue"",""purple""]","5","high nameability","41","right","iti",""
"html-button-response","201","1926974","0.0-156.0","CAN_109","109","","","","","","742","","0","mustard","neonyellow","[""mustard"",""neonyellow"",""low nameability""]","left-right","[""mustard"",""neonyellow"",""low nameability""]","5","low nameability","42","left","trigger",""
"html-button-response","202","1927722","0.0-157.0-0.0","CAN_109","109","","","","","","730","<button class=""jspsych-btn""><img src=""stimuli/mustard.png"" style=""width: 200px;height: 200px;""></button>","1","mustard","neonyellow","[""mustard"",""neonyellow"",""low nameability""]","left-right","[""mustard"",""neonyellow"",""low nameability""]","5","low nameability","42","left","response","0"
"html-audio-button-response","203","1928356","0.0-157.0-1.0","CAN_109","109","","","","","","null","stimuli/boing.m4a","null","mustard","neonyellow","[""mustard"",""neonyellow"",""low nameability""]","left-right","[""mustard"",""neonyellow"",""low nameability""]","5","low nameability","42","left","audio_feedback","0"
"html-button-response","204","1930253","0.0-157.1-0.1","CAN_109","109","","","","","","1883","<button class=""jspsych-btn""><img src=""stimuli/mustard.png"" style=""width: 200px;height: 200px;""></button>","0","mustard","neonyellow","[""mustard"",""neonyellow"",""low nameability""]","left-right","[""mustard"",""neonyellow"",""low nameability""]","5","low nameability","42","left","response","1"
"html-audio-button-response","205","1930459","0.0-157.1-1.1","CAN_109","109","","","","","","null","stimuli/bleep.m4a","null","mustard","neonyellow","[""mustard"",""neonyellow"",""low nameability""]","left-right","[""mustard"",""neonyellow"",""low nameability""]","5","low nameability","42","left","audio_feedback","1"
"html-button-response","206","1930984","0.0-158.0","CAN_109","109","","","","","","null","<button class=""jspsych-btn""><img src=""stimuli/white_square.png"" style=""width: 200px;height: 200px;""></button>","null","mustard","neonyellow","[""mustard"",""neonyellow"",""low nameability""]","left-right","[""mustard"",""neonyellow"",""low nameability""]","5","low nameability","42","left","iti",""
"html-button-response","207","1931746","0.0-159.0","CAN_109","109","","","","","","743","","0","neonyellow","lightred","[""neonyellow"",""lightred"",""low nameability""]","right-left","[""lightred"",""neonyellow""]","5","low nameability","43","right","trigger",""
"html-button-response","208","1932731","0.0-160.0-0.0","CAN_109","109","","","","","","972","<button class=""jspsych-btn""><img src=""stimuli/neonyellow.png"" style=""width: 200px;height: 200px;""></button>","1","neonyellow","lightred","[""neonyellow"",""lightred"",""low nameability""]","right-left","[""lightred"",""neonyellow""]","5","low nameability","43","right","response","1"
"html-audio-button-response","209","1932939","0.0-160.0-1.0","CAN_109","109","","","","","","null","stimuli/bleep.m4a","null","neonyellow","lightred","[""neonyellow"",""lightred"",""low nameability""]","right-left","[""lightred"",""neonyellow""]","5","low nameability","43","right","audio_feedback","1"
"html-button-response","210","1933466","0.0-161.0","CAN_109","109","","","","","","null","<button class=""jspsych-btn""><img src=""stimuli/white_square.png"" style=""width: 200px;height: 200px;""></button>","null","neonyellow","lightred","[""neonyellow"",""lightred"",""low nameability""]","right-left","[""lightred"",""neonyellow""]","5","low nameability","43","right","iti",""
"html-button-response","211","1934304","0.0-162.0","CAN_109","109","","","","","","820","","0","darkgreenblue","turquoise","[""darkgreenblue"",""turquoise"",""low nameability""]","left-right","[""darkgreenblue"",""turquoise"",""low nameability""]","5","low nameability","44","left","trigger",""
"html-button-response","212","1935287","0.0-163.0-0.0","CAN_109","109","","","","","","974","<button class=""jspsych-btn""><img src=""stimuli/darkgreenblue.png"" style=""width: 200px;height: 200px;""></button>","0","darkgreenblue","turquoise","[""darkgreenblue"",""turquoise"",""low nameability""]","left-right","[""darkgreenblue"",""turquoise"",""low nameability""]","5","low nameability","44","left","response","1"
"html-audio-button-response","213","1935492","0.0-163.0-1.0","CAN_109","109","","","","","","null","stimuli/bleep.m4a","null","darkgreenblue","turquoise","[""darkgreenblue"",""turquoise"",""low nameability""]","left-right","[""darkgreenblue"",""turquoise"",""low nameability""]","5","low nameability","44","left","audio_feedback","1"
"html-button-response","214","1936006","0.0-164.0","CAN_109","109","","","","","","null","<button class=""jspsych-btn""><img src=""stimuli/white_square.png"" style=""width: 200px;height: 200px;""></button>","null","darkgreenblue","turquoise","[""darkgreenblue"",""turquoise"",""low nameability""]","left-right","[""darkgreenblue"",""turquoise"",""low nameability""]","5","low nameability","44","left","iti",""
"html-button-response","215","1936807","0.0-165.0","CAN_109","109","","","","","","785","","0","red","purple","[""red"",""purple"",""high nameability""]","left-right","[""red"",""purple"",""high nameability""]","5","high nameability","45","left","trigger",""
"html-button-response","216","1937750","0.0-166.0-0.0","CAN_109","109","","","","","","933","<button class=""jspsych-btn""><img src=""stimuli/red.png"" style=""width: 200px;height: 200px;""></button>","0","red","purple","[""red"",""purple"",""high nameability""]","left-right","[""red"",""purple"",""high nameability""]","5","high nameability","45","left","response","1"
"html-audio-button-response","217","1937961","0.0-166.0-1.0","CAN_109","109","","","","","","null","stimuli/bleep.m4a","null","red","purple","[""red"",""purple"",""high nameability""]","left-right","[""red"",""purple"",""high nameability""]","5","high nameability","45","left","audio_feedback","1"
"html-button-response","218","1938490","0.0-167.0","CAN_109","109","","","","","","null","<button class=""jspsych-btn""><img src=""stimuli/white_square.png"" style=""width: 200px;height: 200px;""></button>","null","red","purple","[""red"",""purple"",""high nameability""]","left-right","[""red"",""purple"",""high nameability""]","5","high nameability","45","left","iti",""
"html-button-response","219","1939235","0.0-168.0","CAN_109","109","","","","","","729","","0","brown","blue","[""brown"",""blue"",""high nameability""]","left-right","[""brown"",""blue"",""high nameability""]","5","high nameability","46","left","trigger",""
"html-button-response","220","1940234","0.0-169.0-0.0","CAN_109","109","","","","","","987","<button class=""jspsych-btn""><img src=""stimuli/brown.png"" style=""width: 200px;height: 200px;""></button>","0","brown","blue","[""brown"",""blue"",""high nameability""]","left-right","[""brown"",""blue"",""high nameability""]","5","high nameability","46","left","response","1"
"html-audio-button-response","221","1940446","0.0-169.0-1.0","CAN_109","109","","","","","","null","stimuli/bleep.m4a","null","brown","blue","[""brown"",""blue"",""high nameability""]","left-right","[""brown"",""blue"",""high nameability""]","5","high nameability","46","left","audio_feedback","1"
"html-button-response","222","1940982","0.0-170.0","CAN_109","109","","","","","","null","<button class=""jspsych-btn""><img src=""stimuli/white_square.png"" style=""width: 200px;height: 200px;""></button>","null","brown","blue","[""brown"",""blue"",""high nameability""]","left-right","[""brown"",""blue"",""high nameability""]","5","high nameability","46","left","iti",""
"html-button-response","223","1941787","0.0-171.0","CAN_109","109","","","","","","787","","0","lightred","mustard","[""lightred"",""mustard"",""low nameability""]","left-right","[""lightred"",""mustard"",""low nameability""]","5","low nameability","47","left","trigger",""
"html-button-response","224","1942760","0.0-172.0-0.0","CAN_109","109","","","","","","963","<button class=""jspsych-btn""><img src=""stimuli/lightred.png"" style=""width: 200px;height: 200px;""></button>","0","lightred","mustard","[""lightred"",""mustard"",""low nameability""]","left-right","[""lightred"",""mustard"",""low nameability""]","5","low nameability","47","left","response","1"
"html-audio-button-response","225","1942969","0.0-172.0-1.0","CAN_109","109","","","","","","null","stimuli/bleep.m4a","null","lightred","mustard","[""lightred"",""mustard"",""low nameability""]","left-right","[""lightred"",""mustard"",""low nameability""]","5","low nameability","47","left","audio_feedback","1"
"html-button-response","226","1943497","0.0-173.0","CAN_109","109","","","","","","null","<button class=""jspsych-btn""><img src=""stimuli/white_square.png"" style=""width: 200px;height: 200px;""></button>","null","lightred","mustard","[""lightred"",""mustard"",""low nameability""]","left-right","[""lightred"",""mustard"",""low nameability""]","5","low nameability","47","left","iti",""
"html-button-response","227","1944273","0.0-174.0","CAN_109","109","","","","","","752","","0","turquoise","darkgreenblue","[""turquoise"",""darkgreenblue"",""low nameability""]","right-left","[""darkgreenblue"",""turquoise""]","5","low nameability","48","right","trigger",""
"html-button-response","228","1945140","0.0-175.0-0.0","CAN_109","109","","","","","","858","<button class=""jspsych-btn""><img src=""stimuli/turquoise.png"" style=""width: 200px;height: 200px;""></button>","1","turquoise","darkgreenblue","[""turquoise"",""darkgreenblue"",""low nameability""]","right-left","[""darkgreenblue"",""turquoise""]","5","low nameability","48","right","response","1"
"html-audio-button-response","229","1945349","0.0-175.0-1.0","CAN_109","109","","","","","","null","stimuli/bleep.m4a","null","turquoise","darkgreenblue","[""turquoise"",""darkgreenblue"",""low nameability""]","right-left","[""darkgreenblue"",""turquoise""]","5","low nameability","48","right","audio_feedback","1"
"html-button-response","230","1945888","0.0-176.0","CAN_109","109","","","","","","null","<button class=""jspsych-btn""><img src=""stimuli/white_square.png"" style=""width: 200px;height: 200px;""></button>","null","turquoise","darkgreenblue","[""turquoise"",""darkgreenblue"",""low nameability""]","right-left","[""darkgreenblue"",""turquoise""]","5","low nameability","48","right","iti",""
"html-button-response","231","1946640","0.0-177.0","CAN_109","109","","","","","","738","","0","orange","blue","[""orange"",""blue"",""high nameability""]","left-right","[""orange"",""blue"",""high nameability""]","5","high nameability","49","left","trigger",""
"html-button-response","232","1947565","0.0-178.0-0.0","CAN_109","109","","","","","","913","<button class=""jspsych-btn""><img src=""stimuli/orange.png"" style=""width: 200px;height: 200px;""></button>","0","orange","blue","[""orange"",""blue"",""high nameability""]","left-right","[""orange"",""blue"",""high nameability""]","5","high nameability","49","left","response","1"
"html-audio-button-response","233","1947778","0.0-178.0-1.0","CAN_109","109","","","","","","null","stimuli/bleep.m4a","null","orange","blue","[""orange"",""blue"",""high nameability""]","left-right","[""orange"",""blue"",""high nameability""]","5","high nameability","49","left","audio_feedback","1"
"html-button-response","234","1948304","0.0-179.0","CAN_109","109","","","","","","null","<button class=""jspsych-btn""><img src=""stimuli/white_square.png"" style=""width: 200px;height: 200px;""></button>","null","orange","blue","[""orange"",""blue"",""high nameability""]","left-right","[""orange"",""blue"",""high nameability""]","5","high nameability","49","left","iti",""
"html-button-response","235","1949161","0.0-180.0","CAN_109","109","","","","","","839","","0","darkgreenblue","mustard","[""darkgreenblue"",""mustard"",""low nameability""]","left-right","[""darkgreenblue"",""mustard"",""low nameability""]","5","low nameability","50","left","trigger",""
"html-button-response","236","1950141","0.0-181.0-0.0","CAN_109","109","","","","","","972","<button class=""jspsych-btn""><img src=""stimuli/darkgreenblue.png"" style=""width: 200px;height: 200px;""></button>","0","darkgreenblue","mustard","[""darkgreenblue"",""mustard"",""low nameability""]","left-right","[""darkgreenblue"",""mustard"",""low nameability""]","5","low nameability","50","left","response","1"
"html-audio-button-response","237","1950352","0.0-181.0-1.0","CAN_109","109","","","","","","null","stimuli/bleep.m4a","null","darkgreenblue","mustard","[""darkgreenblue"",""mustard"",""low nameability""]","left-right","[""darkgreenblue"",""mustard"",""low nameability""]","5","low nameability","50","left","audio_feedback","1"
"html-button-response","238","1950884","0.0-182.0","CAN_109","109","","","","","","null","<button class=""jspsych-btn""><img src=""stimuli/white_square.png"" style=""width: 200px;height: 200px;""></button>","null","darkgreenblue","mustard","[""darkgreenblue"",""mustard"",""low nameability""]","left-right","[""darkgreenblue"",""mustard"",""low nameability""]","5","low nameability","50","left","iti",""
"pavlovia","239","1950937","0.0-183.0","CAN_109","109","","","","","","","","","","","","","","","","","","",""
"pavlovia","240","1950949","0.0-184.0","CAN_109","109","","","","","","","","","","","","","","","","","","",""
"html-audio-button-response","241","1952623","0.0-185.0","CAN_109","109","","","","","","1736","stimuli/tada.m4a","0","","","","","","","","","","",""
"html-button-response","242","1953610","0.0-186.0","CAN_109","109","","","","","","979","","0","","","","","","","","","","",""
"html-button-response","243","1954507","0.0-187.0","CAN_109","109","","","","","","887","","0","purple","red","[""purple"",""red"",""high nameability""]","right-left","[""red"",""purple""]","6","high nameability","51","right","trigger",""
"html-button-response","244","1955386","0.0-188.0-0.0","CAN_109","109","","","","","","867","<button class=""jspsych-btn""><img src=""stimuli/purple.png"" style=""width: 200px;height: 200px;""></button>","1","purple","red","[""purple"",""red"",""high nameability""]","right-left","[""red"",""purple""]","6","high nameability","51","right","response","1"
"html-audio-button-response","245","1955600","0.0-188.0-1.0","CAN_109","109","","","","","","null","stimuli/bleep.m4a","null","purple","red","[""purple"",""red"",""high nameability""]","right-left","[""red"",""purple""]","6","high nameability","51","right","audio_feedback","1"
"html-button-response","246","1956135","0.0-189.0","CAN_109","109","","","","","","null","<button class=""jspsych-btn""><img src=""stimuli/white_square.png"" style=""width: 200px;height: 200px;""></button>","null","purple","red","[""purple"",""red"",""high nameability""]","right-left","[""red"",""purple""]","6","high nameability","51","right","iti",""
"html-button-response","247","1956882","0.0-190.0","CAN_109","109","","","","","","739","","0","darkgreenblue","lightred","[""darkgreenblue"",""lightred"",""low nameability""]","left-right","[""darkgreenblue"",""lightred"",""low nameability""]","6","low nameability","52","left","trigger",""
"html-button-response","248","1957849","0.0-191.0-0.0","CAN_109","109","","","","","","957","<button class=""jspsych-btn""><img src=""stimuli/darkgreenblue.png"" style=""width: 200px;height: 200px;""></button>","0","darkgreenblue","lightred","[""darkgreenblue"",""lightred"",""low nameability""]","left-right","[""darkgreenblue"",""lightred"",""low nameability""]","6","low nameability","52","left","response","1"
"html-audio-button-response","249","1958056","0.0-191.0-1.0","CAN_109","109","","","","","","null","stimuli/bleep.m4a","null","darkgreenblue","lightred","[""darkgreenblue"",""lightred"",""low nameability""]","left-right","[""darkgreenblue"",""lightred"",""low nameability""]","6","low nameability","52","left","audio_feedback","1"
"html-button-response","250","1958593","0.0-192.0","CAN_109","109","","","","","","null","<button class=""jspsych-btn""><img src=""stimuli/white_square.png"" style=""width: 200px;height: 200px;""></button>","null","darkgreenblue","lightred","[""darkgreenblue"",""lightred"",""low nameability""]","left-right","[""darkgreenblue"",""lightred"",""low nameability""]","6","low nameability","52","left","iti",""
"html-button-response","251","1959344","0.0-193.0","CAN_109","109","","","","","","739","","0","mustard","pink","[""mustard"",""pink"",""low nameability""]","right-left","[""pink"",""mustard""]","6","low nameability","53","right","trigger",""
"html-button-response","252","1960325","0.0-194.0-0.0","CAN_109","109","","","","","","971","<button class=""jspsych-btn""><img src=""stimuli/mustard.png"" style=""width: 200px;height: 200px;""></button>","1","mustard","pink","[""mustard"",""pink"",""low nameability""]","right-left","[""pink"",""mustard""]","6","low nameability","53","right","response","1"
"html-audio-button-response","253","1960540","0.0-194.0-1.0","CAN_109","109","","","","","","null","stimuli/bleep.m4a","null","mustard","pink","[""mustard"",""pink"",""low nameability""]","right-left","[""pink"",""mustard""]","6","low nameability","53","right","audio_feedback","1"
"html-button-response","254","1961069","0.0-195.0","CAN_109","109","","","","","","null","<button class=""jspsych-btn""><img src=""stimuli/white_square.png"" style=""width: 200px;height: 200px;""></button>","null","mustard","pink","[""mustard"",""pink"",""low nameability""]","right-left","[""pink"",""mustard""]","6","low nameability","53","right","iti",""
"html-button-response","255","1961824","0.0-196.0","CAN_109","109","","","","","","738","","0","blue","yellow","[""blue"",""yellow"",""high nameability""]","left-right","[""blue"",""yellow"",""high nameability""]","6","high nameability","54","left","trigger",""
"html-button-response","256","1962759","0.0-197.0-0.0","CAN_109","109","","","","","","922","<button class=""jspsych-btn""><img src=""stimuli/blue.png"" style=""width: 200px;height: 200px;""></button>","0","blue","yellow","[""blue"",""yellow"",""high nameability""]","left-right","[""blue"",""yellow"",""high nameability""]","6","high nameability","54","left","response","1"
"html-audio-button-response","257","1962964","0.0-197.0-1.0","CAN_109","109","","","","","","null","stimuli/bleep.m4a","null","blue","yellow","[""blue"",""yellow"",""high nameability""]","left-right","[""blue"",""yellow"",""high nameability""]","6","high nameability","54","left","audio_feedback","1"
"html-button-response","258","1963490","0.0-198.0","CAN_109","109","","","","","","null","<button class=""jspsych-btn""><img src=""stimuli/white_square.png"" style=""width: 200px;height: 200px;""></button>","null","blue","yellow","[""blue"",""yellow"",""high nameability""]","left-right","[""blue"",""yellow"",""high nameability""]","6","high nameability","54","left","iti",""
"html-button-response","259","1964241","0.0-199.0","CAN_109","109","","","","","","731","","0","turquoise","lightred","[""turquoise"",""lightred"",""low nameability""]","right-left","[""lightred"",""turquoise""]","6","low nameability","55","right","trigger",""
"html-button-response","260","1965079","0.0-200.0-0.0","CAN_109","109","","","","","","826","<button class=""jspsych-btn""><img src=""stimuli/turquoise.png"" style=""width: 200px;height: 200px;""></button>","1","turquoise","lightred","[""turquoise"",""lightred"",""low nameability""]","right-left","[""lightred"",""turquoise""]","6","low nameability","55","right","response","1"
"html-audio-button-response","261","1965291","0.0-200.0-1.0","CAN_109","109","","","","","","null","stimuli/bleep.m4a","null","turquoise","lightred","[""turquoise"",""lightred"",""low nameability""]","right-left","[""lightred"",""turquoise""]","6","low nameability","55","right","audio_feedback","1"
"html-button-response","262","1965825","0.0-201.0","CAN_109","109","","","","","","null","<button class=""jspsych-btn""><img src=""stimuli/white_square.png"" style=""width: 200px;height: 200px;""></button>","null","turquoise","lightred","[""turquoise"",""lightred"",""low nameability""]","right-left","[""lightred"",""turquoise""]","6","low nameability","55","right","iti",""
"html-button-response","263","1966569","0.0-202.0","CAN_109","109","","","","","","726","","0","brown","red","[""brown"",""red"",""high nameability""]","left-right","[""brown"",""red"",""high nameability""]","6","high nameability","56","left","trigger",""
"html-button-response","264","1967557","0.0-203.0-0.0","CAN_109","109","","","","","","979","<button class=""jspsych-btn""><img src=""stimuli/brown.png"" style=""width: 200px;height: 200px;""></button>","0","brown","red","[""brown"",""red"",""high nameability""]","left-right","[""brown"",""red"",""high nameability""]","6","high nameability","56","left","response","1"
"html-audio-button-response","265","1967781","0.0-203.0-1.0","CAN_109","109","","","","","","null","stimuli/bleep.m4a","null","brown","red","[""brown"",""red"",""high nameability""]","left-right","[""brown"",""red"",""high nameability""]","6","high nameability","56","left","audio_feedback","1"
"html-button-response","266","1968311","0.0-204.0","CAN_109","109","","","","","","null","<button class=""jspsych-btn""><img src=""stimuli/white_square.png"" style=""width: 200px;height: 200px;""></button>","null","brown","red","[""brown"",""red"",""high nameability""]","left-right","[""brown"",""red"",""high nameability""]","6","high nameability","56","left","iti",""
"html-button-response","267","1969066","0.0-205.0","CAN_109","109","","","","","","731","","0","brown","purple","[""brown"",""purple"",""high nameability""]","left-right","[""brown"",""purple"",""high nameability""]","6","high nameability","57","left","trigger",""
"html-button-response","268","1970046","0.0-206.0-0.0","CAN_109","109","","","","","","971","<button class=""jspsych-btn""><img src=""stimuli/brown.png"" style=""width: 200px;height: 200px;""></button>","0","brown","purple","[""brown"",""purple"",""high nameability""]","left-right","[""brown"",""purple"",""high nameability""]","6","high nameability","57","left","response","1"
"html-audio-button-response","269","1970260","0.0-206.0-1.0","CAN_109","109","","","","","","null","stimuli/bleep.m4a","null","brown","purple","[""brown"",""purple"",""high nameability""]","left-right","[""brown"",""purple"",""high nameability""]","6","high nameability","57","left","audio_feedback","1"
"html-button-response","270","1970790","0.0-207.0","CAN_109","109","","","","","","null","<button class=""jspsych-btn""><img src=""stimuli/white_square.png"" style=""width: 200px;height: 200px;""></button>","null","brown","purple","[""brown"",""purple"",""high nameability""]","left-right","[""brown"",""purple"",""high nameability""]","6","high nameability","57","left","iti",""
"html-button-response","271","1971543","0.0-208.0","CAN_109","109","","","","","","730","","0","darkgreenblue","pink","[""darkgreenblue"",""pink"",""low nameability""]","right-left","[""pink"",""darkgreenblue""]","6","low nameability","58","right","trigger",""
"html-button-response","272","1972377","0.0-209.0-0.0","CAN_109","109","","","","","","824","<button class=""jspsych-btn""><img src=""stimuli/darkgreenblue.png"" style=""width: 200px;height: 200px;""></button>","1","darkgreenblue","pink","[""darkgreenblue"",""pink"",""low nameability""]","right-left","[""pink"",""darkgreenblue""]","6","low nameability","58","right","response","1"
"html-audio-button-response","273","1972594","0.0-209.0-1.0","CAN_109","109","","","","","","null","stimuli/bleep.m4a","null","darkgreenblue","pink","[""darkgreenblue"",""pink"",""low nameability""]","right-left","[""pink"",""darkgreenblue""]","6","low nameability","58","right","audio_feedback","1"
"html-button-response","274","1973137","0.0-210.0","CAN_109","109","","","","","","null","<button class=""jspsych-btn""><img src=""stimuli/white_square.png"" style=""width: 200px;height: 200px;""></button>","null","darkgreenblue","pink","[""darkgreenblue"",""pink"",""low nameability""]","right-left","[""pink"",""darkgreenblue""]","6","low nameability","58","right","iti",""
"html-button-response","275","1973876","0.0-211.0","CAN_109","109","","","","","","709","","0","brown","yellow","[""brown"",""yellow"",""high nameability""]","left-right","[""brown"",""yellow"",""high nameability""]","6","high nameability","59","left","trigger",""
"html-button-response","276","1974853","0.0-212.0-0.0","CAN_109","109","","","","","","969","<button class=""jspsych-btn""><img src=""stimuli/brown.png"" style=""width: 200px;height: 200px;""></button>","0","brown","yellow","[""brown"",""yellow"",""high nameability""]","left-right","[""brown"",""yellow"",""high nameability""]","6","high nameability","59","left","response","1"
"html-audio-button-response","277","1975057","0.0-212.0-1.0","CAN_109","109","","","","","","null","stimuli/bleep.m4a","null","brown","yellow","[""brown"",""yellow"",""high nameability""]","left-right","[""brown"",""yellow"",""high nameability""]","6","high nameability","59","left","audio_feedback","1"
"html-button-response","278","1975570","0.0-213.0","CAN_109","109","","","","","","null","<button class=""jspsych-btn""><img src=""stimuli/white_square.png"" style=""width: 200px;height: 200px;""></button>","null","brown","yellow","[""brown"",""yellow"",""high nameability""]","left-right","[""brown"",""yellow"",""high nameability""]","6","high nameability","59","left","iti",""
"html-button-response","279","1976363","0.0-214.0","CAN_109","109","","","","","","772","","0","orange","purple","[""orange"",""purple"",""high nameability""]","right-left","[""purple"",""orange""]","6","high nameability","60","right","trigger",""
"html-button-response","280","1977229","0.0-215.0-0.0","CAN_109","109","","","","","","856","<button class=""jspsych-btn""><img src=""stimuli/orange.png"" style=""width: 200px;height: 200px;""></button>","1","orange","purple","[""orange"",""purple"",""high nameability""]","right-left","[""purple"",""orange""]","6","high nameability","60","right","response","1"
"html-audio-button-response","281","1977433","0.0-215.0-1.0","CAN_109","109","","","","","","null","stimuli/bleep.m4a","null","orange","purple","[""orange"",""purple"",""high nameability""]","right-left","[""purple"",""orange""]","6","high nameability","60","right","audio_feedback","1"
"html-button-response","282","1977950","0.0-216.0","CAN_109","109","","","","","","null","<button class=""jspsych-btn""><img src=""stimuli/white_square.png"" style=""width: 200px;height: 200px;""></button>","null","orange","purple","[""orange"",""purple"",""high nameability""]","right-left","[""purple"",""orange""]","6","high nameability","60","right","iti",""
