"trial_type","trial_index","time_elapsed","internal_node_id","subject_id","seed","success","timeout","failed_images","failed_audio","failed_video","rt","stimulus","response","target","foil","choices","combination_order","choices_in_order","round","condition","trial_counter","target_location","trial_kind","correct"
"pavlovia","0","20","0.0-0.0","CAN_143","143","","","","","","","","","","","","","","","","","","",""
"preload","1","678","0.0-1.0","CAN_143","143","true","false","[]","[]","[]","","","","","","","","","","","","","",""
"fullscreen","2","642734","0.0-2.0","CAN_143","143","true","","","","","","","","","","","","","","","","","",""
"html-button-response","3","661790","0.0-3.0","CAN_143","143","","","","","","19020","","0","","","","","","","","","","",""
"html-button-response","4","664343","0.0-4.0","CAN_143","143","","","","","","2534","","0","star","square","[""square"",""star""]","left-right","[""square"",""star""]","1","practice","1","right","trigger",""
"html-button-response","5","667851","0.0-5.0-0.0","CAN_143","143","","","","","","3493","<button class=""jspsych-btn""><img src=""stimuli/star.png"" style=""width: 200px;height: 200px;""></button>","1","star","square","[""square"",""star""]","left-right","[""square"",""star""]","1","practice","1","right","response","1"
"html-audio-button-response","6","668067","0.0-5.0-1.0","CAN_143","143","","","","","","null","stimuli/bleep.m4a","null","star","square","[""square"",""star""]","left-right","[""square"",""star""]","1","practice","1","right","audio_feedback","1"
"html-button-response","7","668600","0.0-6.0","CAN_143","143","","","","","","null","<button class=""jspsych-btn""><img src=""stimuli/white_square.png"" style=""width: 200px;height: 200px;""></button>","null","star","square","[""square"",""star""]","left-right","[""square"",""star""]","1","practice","1","right","iti",""
"html-button-response","8","670226","0.0-7.0","CAN_143","143","","","","","","1610","","0","triangle","pentagram","[""triangle"",""pentagram""]","left-right","[""triangle"",""pentagram""]","1","practice","1","left","trigger",""
"html-button-response","9","673700","0.0-8.0-0.0","CAN_143","143","","","","","","3461","<button class=""jspsych-btn""><img src=""stimuli/triangle.png"" style=""width: 200px;height: 200px;""></button>","0","triangle","pentagram","[""triangle"",""pentagram""]","left-right","[""triangle"",""pentagram""]","1","practice","1","left","response","1"
"html-audio-button-response","10","673914","0.0-8.0-1.0","CAN_143","143","","","","","","null","stimuli/bleep.m4a","null","triangle","pentagram","[""triangle"",""pentagram""]","left-right","[""triangle"",""pentagram""]","1","practice","1","left","audio_feedback","1"
"html-button-response","11","674435","0.0-9.0","CAN_143","143","","","","","","null","<button class=""jspsych-btn""><img src=""stimuli/white_square.png"" style=""width: 200px;height: 200px;""></button>","null","triangle","pentagram","[""triangle"",""pentagram""]","left-right","[""triangle"",""pentagram""]","1","practice","1","left","iti",""
"html-button-response","12","675256","0.0-10.0","CAN_143","143","","","","","","802","","0","diamond","rectangle","[""rectangle"",""diamond""]","left-right","[""rectangle"",""diamond""]","1","practice","1","right","trigger",""
"html-button-response","13","676314","0.0-11.0-0.0","CAN_143","143","","","","","","1051","<button class=""jspsych-btn""><img src=""stimuli/diamond.png"" style=""width: 200px;height: 200px;""></button>","1","diamond","rectangle","[""rectangle"",""diamond""]","left-right","[""rectangle"",""diamond""]","1","practice","1","right","response","1"
"html-audio-button-response","14","676516","0.0-11.0-1.0","CAN_143","143","","","","","","null","stimuli/bleep.m4a","null","diamond","rectangle","[""rectangle"",""diamond""]","left-right","[""rectangle"",""diamond""]","1","practice","1","right","audio_feedback","1"
"html-button-response","15","677037","0.0-12.0","CAN_143","143","","","","","","null","<button class=""jspsych-btn""><img src=""stimuli/white_square.png"" style=""width: 200px;height: 200px;""></button>","null","diamond","rectangle","[""rectangle"",""diamond""]","left-right","[""rectangle"",""diamond""]","1","practice","1","right","iti",""
"html-button-response","16","677801","0.0-13.0","CAN_143","143","","","","","","743","","0","pentagram","star","[""pentagram"",""star""]","left-right","[""pentagram"",""star""]","1","practice","1","left","trigger",""
"html-button-response","17","678799","0.0-14.0-0.0","CAN_143","143","","","","","","987","<button class=""jspsych-btn""><img src=""stimuli/pentagram.png"" style=""width: 200px;height: 200px;""></button>","0","pentagram","star","[""pentagram"",""star""]","left-right","[""pentagram"",""star""]","1","practice","1","left","response","1"
"html-audio-button-response","18","679003","0.0-14.0-1.0","CAN_143","143","","","","","","null","stimuli/bleep.m4a","null","pentagram","star","[""pentagram"",""star""]","left-right","[""pentagram"",""star""]","1","practice","1","left","audio_feedback","1"
"html-button-response","19","679531","0.0-15.0","CAN_143","143","","","","","","null","<button class=""jspsych-btn""><img src=""stimuli/white_square.png"" style=""width: 200px;height: 200px;""></button>","null","pentagram","star","[""pentagram"",""star""]","left-right","[""pentagram"",""star""]","1","practice","1","left","iti",""
"html-button-response","20","692128","0.0-16.0","CAN_143","143","","","","","","12571","","0","","","","","","","","","","",""
"html-button-response","21","693028","0.0-17.0","CAN_143","143","","","","","","879","","0","turquoise","neonyellow","[""turquoise"",""neonyellow"",""low nameability""]","right-left","[""neonyellow"",""turquoise""]","1","low nameability","1","right","trigger",""
"html-button-response","22","693836","0.0-18.0-0.0","CAN_143","143","","","","","","795","<button class=""jspsych-btn""><img src=""stimuli/turquoise.png"" style=""width: 200px;height: 200px;""></button>","1","turquoise","neonyellow","[""turquoise"",""neonyellow"",""low nameability""]","right-left","[""neonyellow"",""turquoise""]","1","low nameability","1","right","response","1"
"html-audio-button-response","23","694040","0.0-18.0-1.0","CAN_143","143","","","","","","null","stimuli/bleep.m4a","null","turquoise","neonyellow","[""turquoise"",""neonyellow"",""low nameability""]","right-left","[""neonyellow"",""turquoise""]","1","low nameability","1","right","audio_feedback","1"
"html-button-response","24","694561","0.0-19.0","CAN_143","143","","","","","","null","<button class=""jspsych-btn""><img src=""stimuli/white_square.png"" style=""width: 200px;height: 200px;""></button>","null","turquoise","neonyellow","[""turquoise"",""neonyellow"",""low nameability""]","right-left","[""neonyellow"",""turquoise""]","1","low nameability","1","right","iti",""
"html-button-response","25","695296","0.0-20.0","CAN_143","143","","","","","","717","","0","darkgreenblue","neonyellow","[""darkgreenblue"",""neonyellow"",""low nameability""]","right-left","[""neonyellow"",""darkgreenblue""]","1","low nameability","2","right","trigger",""
"html-button-response","26","696079","0.0-21.0-0.0","CAN_143","143","","","","","","776","<button class=""jspsych-btn""><img src=""stimuli/darkgreenblue.png"" style=""width: 200px;height: 200px;""></button>","1","darkgreenblue","neonyellow","[""darkgreenblue"",""neonyellow"",""low nameability""]","right-left","[""neonyellow"",""darkgreenblue""]","1","low nameability","2","right","response","1"
"html-audio-button-response","27","696281","0.0-21.0-1.0","CAN_143","143","","","","","","null","stimuli/bleep.m4a","null","darkgreenblue","neonyellow","[""darkgreenblue"",""neonyellow"",""low nameability""]","right-left","[""neonyellow"",""darkgreenblue""]","1","low nameability","2","right","audio_feedback","1"
"html-button-response","28","696806","0.0-22.0","CAN_143","143","","","","","","null","<button class=""jspsych-btn""><img src=""stimuli/white_square.png"" style=""width: 200px;height: 200px;""></button>","null","darkgreenblue","neonyellow","[""darkgreenblue"",""neonyellow"",""low nameability""]","right-left","[""neonyellow"",""darkgreenblue""]","1","low nameability","2","right","iti",""
"html-button-response","29","697353","0.0-23.0","CAN_143","143","","","","","","521","","0","purple","blue","[""purple"",""blue"",""high nameability""]","right-left","[""blue"",""purple""]","1","high nameability","3","right","trigger",""
"html-button-response","30","698069","0.0-24.0-0.0","CAN_143","143","","","","","","711","<button class=""jspsych-btn""><img src=""stimuli/purple.png"" style=""width: 200px;height: 200px;""></button>","1","purple","blue","[""purple"",""blue"",""high nameability""]","right-left","[""blue"",""purple""]","1","high nameability","3","right","response","1"
"html-audio-button-response","31","698273","0.0-24.0-1.0","CAN_143","143","","","","","","null","stimuli/bleep.m4a","null","purple","blue","[""purple"",""blue"",""high nameability""]","right-left","[""blue"",""purple""]","1","high nameability","3","right","audio_feedback","1"
"html-button-response","32","698797","0.0-25.0","CAN_143","143","","","","","","null","<button class=""jspsych-btn""><img src=""stimuli/white_square.png"" style=""width: 200px;height: 200px;""></button>","null","purple","blue","[""purple"",""blue"",""high nameability""]","right-left","[""blue"",""purple""]","1","high nameability","3","right","iti",""
"html-button-response","33","699284","0.0-26.0","CAN_143","143","","","","","","453","","0","yellow","purple","[""yellow"",""purple"",""high nameability""]","left-right","[""yellow"",""purple"",""high nameability""]","1","high nameability","4","left","trigger",""
"html-button-response","34","700051","0.0-27.0-0.0","CAN_143","143","","","","","","759","<button class=""jspsych-btn""><img src=""stimuli/yellow.png"" style=""width: 200px;height: 200px;""></button>","0","yellow","purple","[""yellow"",""purple"",""high nameability""]","left-right","[""yellow"",""purple"",""high nameability""]","1","high nameability","4","left","response","1"
"html-audio-button-response","35","700254","0.0-27.0-1.0","CAN_143","143","","","","","","null","stimuli/bleep.m4a","null","yellow","purple","[""yellow"",""purple"",""high nameability""]","left-right","[""yellow"",""purple"",""high nameability""]","1","high nameability","4","left","audio_feedback","1"
"html-button-response","36","700775","0.0-28.0","CAN_143","143","","","","","","null","<button class=""jspsych-btn""><img src=""stimuli/white_square.png"" style=""width: 200px;height: 200px;""></button>","null","yellow","purple","[""yellow"",""purple"",""high nameability""]","left-right","[""yellow"",""purple"",""high nameability""]","1","high nameability","4","left","iti",""
"html-button-response","37","701312","0.0-29.0","CAN_143","143","","","","","","521","","0","pink","neonyellow","[""pink"",""neonyellow"",""low nameability""]","right-left","[""neonyellow"",""pink""]","1","low nameability","5","right","trigger",""
"html-button-response","38","702036","0.0-30.0-0.0","CAN_143","143","","","","","","716","<button class=""jspsych-btn""><img src=""stimuli/pink.png"" style=""width: 200px;height: 200px;""></button>","1","pink","neonyellow","[""pink"",""neonyellow"",""low nameability""]","right-left","[""neonyellow"",""pink""]","1","low nameability","5","right","response","1"
"html-audio-button-response","39","702243","0.0-30.0-1.0","CAN_143","143","","","","","","null","stimuli/bleep.m4a","null","pink","neonyellow","[""pink"",""neonyellow"",""low nameability""]","right-left","[""neonyellow"",""pink""]","1","low nameability","5","right","audio_feedback","1"
"html-button-response","40","702764","0.0-31.0","CAN_143","143","","","","","","null","<button class=""jspsych-btn""><img src=""stimuli/white_square.png"" style=""width: 200px;height: 200px;""></button>","null","pink","neonyellow","[""pink"",""neonyellow"",""low nameability""]","right-left","[""neonyellow"",""pink""]","1","low nameability","5","right","iti",""
"html-button-response","41","703403","0.0-32.0","CAN_143","143","","","","","","622","","0","darkgreenblue","turquoise","[""darkgreenblue"",""turquoise"",""low nameability""]","left-right","[""darkgreenblue"",""turquoise"",""low nameability""]","1","low nameability","6","left","trigger",""
"html-button-response","42","704166","0.0-33.0-0.0","CAN_143","143","","","","","","756","<button class=""jspsych-btn""><img src=""stimuli/darkgreenblue.png"" style=""width: 200px;height: 200px;""></button>","0","darkgreenblue","turquoise","[""darkgreenblue"",""turquoise"",""low nameability""]","left-right","[""darkgreenblue"",""turquoise"",""low nameability""]","1","low nameability","6","left","response","1"
"html-audio-button-response","43","704374","0.0-33.0-1.0","CAN_143","143","","","","","","null","stimuli/bleep.m4a","null","darkgreenblue","turquoise","[""darkgreenblue"",""turquoise"",""low nameability""]","left-right","[""darkgreenblue"",""turquoise"",""low nameability""]","1","low nameability","6","left","audio_feedback","1"
"html-button-response","44","704892","0.0-34.0","CAN_143","143","","","","","","null","<button class=""jspsych-btn""><img src=""stimuli/white_square.png"" style=""width: 200px;height: 200px;""></button>","null","darkgreenblue","turquoise","[""darkgreenblue"",""turquoise"",""low nameability""]","left-right","[""darkgreenblue"",""turquoise"",""low nameability""]","1","low nameability","6","left","iti",""
"html-button-response","45","705414","0.0-35.0","CAN_143","143","","","","","","505","","0","yellow","blue","[""yellow"",""blue"",""high nameability""]","left-right","[""yellow"",""blue"",""high nameability""]","1","high nameability","7","left","trigger",""
"html-button-response","46","706126","0.0-36.0-0.0","CAN_143","143","","","","","","705","<button class=""jspsych-btn""><img src=""stimuli/yellow.png"" style=""width: 200px;height: 200px;""></button>","0","yellow","blue","[""yellow"",""blue"",""high nameability""]","left-right","[""yellow"",""blue"",""high nameability""]","1","high nameability","7","left","response","1"
"html-audio-button-response","47","706335","0.0-36.0-1.0","CAN_143","143","","","","","","null","stimuli/bleep.m4a","null","yellow","blue","[""yellow"",""blue"",""high nameability""]","left-right","[""yellow"",""blue"",""high nameability""]","1","high nameability","7","left","audio_feedback","1"
"html-button-response","48","706860","0.0-37.0","CAN_143","143","","","","","","null","<button class=""jspsych-btn""><img src=""stimuli/white_square.png"" style=""width: 200px;height: 200px;""></button>","null","yellow","blue","[""yellow"",""blue"",""high nameability""]","left-right","[""yellow"",""blue"",""high nameability""]","1","high nameability","7","left","iti",""
"html-button-response","49","707383","0.0-38.0","CAN_143","143","","","","","","504","","0","blue","yellow","[""blue"",""yellow"",""high nameability""]","right-left","[""yellow"",""blue""]","1","high nameability","8","right","trigger",""
"html-button-response","50","708039","0.0-39.0-0.0","CAN_143","143","","","","","","650","<button class=""jspsych-btn""><img src=""stimuli/blue.png"" style=""width: 200px;height: 200px;""></button>","1","blue","yellow","[""blue"",""yellow"",""high nameability""]","right-left","[""yellow"",""blue""]","1","high nameability","8","right","response","1"
"html-audio-button-response","51","708246","0.0-39.0-1.0","CAN_143","143","","","","","","null","stimuli/bleep.m4a","null","blue","yellow","[""blue"",""yellow"",""high nameability""]","right-left","[""yellow"",""blue""]","1","high nameability","8","right","audio_feedback","1"
"html-button-response","52","708771","0.0-40.0","CAN_143","143","","","","","","null","<button class=""jspsych-btn""><img src=""stimuli/white_square.png"" style=""width: 200px;height: 200px;""></button>","null","blue","yellow","[""blue"",""yellow"",""high nameability""]","right-left","[""yellow"",""blue""]","1","high nameability","8","right","iti",""
"html-button-response","53","709299","0.0-41.0","CAN_143","143","","","","","","510","","0","yellow","red","[""yellow"",""red"",""high nameability""]","right-left","[""red"",""yellow""]","1","high nameability","9","right","trigger",""
"html-button-response","54","709916","0.0-42.0-0.0","CAN_143","143","","","","","","610","<button class=""jspsych-btn""><img src=""stimuli/yellow.png"" style=""width: 200px;height: 200px;""></button>","1","yellow","red","[""yellow"",""red"",""high nameability""]","right-left","[""red"",""yellow""]","1","high nameability","9","right","response","1"
"html-audio-button-response","55","710122","0.0-42.0-1.0","CAN_143","143","","","","","","null","stimuli/bleep.m4a","null","yellow","red","[""yellow"",""red"",""high nameability""]","right-left","[""red"",""yellow""]","1","high nameability","9","right","audio_feedback","1"
"html-button-response","56","710646","0.0-43.0","CAN_143","143","","","","","","null","<button class=""jspsych-btn""><img src=""stimuli/white_square.png"" style=""width: 200px;height: 200px;""></button>","null","yellow","red","[""yellow"",""red"",""high nameability""]","right-left","[""red"",""yellow""]","1","high nameability","9","right","iti",""
"html-button-response","57","711156","0.0-44.0","CAN_143","143","","","","","","492","","0","lightred","pink","[""lightred"",""pink"",""low nameability""]","left-right","[""lightred"",""pink"",""low nameability""]","1","low nameability","10","left","trigger",""
"html-button-response","58","711854","0.0-45.0-0.0","CAN_143","143","","","","","","689","<button class=""jspsych-btn""><img src=""stimuli/lightred.png"" style=""width: 200px;height: 200px;""></button>","0","lightred","pink","[""lightred"",""pink"",""low nameability""]","left-right","[""lightred"",""pink"",""low nameability""]","1","low nameability","10","left","response","1"
"html-audio-button-response","59","712063","0.0-45.0-1.0","CAN_143","143","","","","","","null","stimuli/bleep.m4a","null","lightred","pink","[""lightred"",""pink"",""low nameability""]","left-right","[""lightred"",""pink"",""low nameability""]","1","low nameability","10","left","audio_feedback","1"
"html-button-response","60","712580","0.0-46.0","CAN_143","143","","","","","","null","<button class=""jspsych-btn""><img src=""stimuli/white_square.png"" style=""width: 200px;height: 200px;""></button>","null","lightred","pink","[""lightred"",""pink"",""low nameability""]","left-right","[""lightred"",""pink"",""low nameability""]","1","low nameability","10","left","iti",""
"pavlovia","61","712659","0.0-47.0","CAN_143","143","","","","","","","","","","","","","","","","","","",""
"pavlovia","62","712674","0.0-48.0","CAN_143","143","","","","","","","","","","","","","","","","","","",""
"html-audio-button-response","63","714509","0.0-49.0","CAN_143","143","","","","","","1928","stimuli/tada.m4a","0","","","","","","","","","","",""
"html-button-response","64","715353","0.0-50.0","CAN_143","143","","","","","","831","","0","","","","","","","","","","",""
"html-button-response","65","716063","0.0-51.0","CAN_143","143","","","","","","700","","0","orange","yellow","[""orange"",""yellow"",""high nameability""]","left-right","[""orange"",""yellow"",""high nameability""]","2","high nameability","11","left","trigger",""
"html-button-response","66","716808","0.0-52.0-0.0","CAN_143","143","","","","","","737","<button class=""jspsych-btn""><img src=""stimuli/orange.png"" style=""width: 200px;height: 200px;""></button>","0","orange","yellow","[""orange"",""yellow"",""high nameability""]","left-right","[""orange"",""yellow"",""high nameability""]","2","high nameability","11","left","response","1"
"html-audio-button-response","67","717010","0.0-52.0-1.0","CAN_143","143","","","","","","null","stimuli/bleep.m4a","null","orange","yellow","[""orange"",""yellow"",""high nameability""]","left-right","[""orange"",""yellow"",""high nameability""]","2","high nameability","11","left","audio_feedback","1"
"html-button-response","68","717545","0.0-53.0","CAN_143","143","","","","","","null","<button class=""jspsych-btn""><img src=""stimuli/white_square.png"" style=""width: 200px;height: 200px;""></button>","null","orange","yellow","[""orange"",""yellow"",""high nameability""]","left-right","[""orange"",""yellow"",""high nameability""]","2","high nameability","11","left","iti",""
"html-button-response","69","718115","0.0-54.0","CAN_143","143","","","","","","547","","0","brown","blue","[""brown"",""blue"",""high nameability""]","left-right","[""brown"",""blue"",""high nameability""]","2","high nameability","12","left","trigger",""
"html-button-response","70","718785","0.0-55.0-0.0","CAN_143","143","","","","","","663","<button class=""jspsych-btn""><img src=""stimuli/brown.png"" style=""width: 200px;height: 200px;""></button>","0","brown","blue","[""brown"",""blue"",""high nameability""]","left-right","[""brown"",""blue"",""high nameability""]","2","high nameability","12","left","response","1"
"html-audio-button-response","71","718989","0.0-55.0-1.0","CAN_143","143","","","","","","null","stimuli/bleep.m4a","null","brown","blue","[""brown"",""blue"",""high nameability""]","left-right","[""brown"",""blue"",""high nameability""]","2","high nameability","12","left","audio_feedback","1"
"html-button-response","72","719513","0.0-56.0","CAN_143","143","","","","","","null","<button class=""jspsych-btn""><img src=""stimuli/white_square.png"" style=""width: 200px;height: 200px;""></button>","null","brown","blue","[""brown"",""blue"",""high nameability""]","left-right","[""brown"",""blue"",""high nameability""]","2","high nameability","12","left","iti",""
"html-button-response","73","719963","0.0-57.0","CAN_143","143","","","","","","431","","0","pink","lightred","[""pink"",""lightred"",""low nameability""]","left-right","[""pink"",""lightred"",""low nameability""]","2","low nameability","13","left","trigger",""
"html-button-response","74","720611","0.0-58.0-0.0","CAN_143","143","","","","","","639","<button class=""jspsych-btn""><img src=""stimuli/pink.png"" style=""width: 200px;height: 200px;""></button>","0","pink","lightred","[""pink"",""lightred"",""low nameability""]","left-right","[""pink"",""lightred"",""low nameability""]","2","low nameability","13","left","response","1"
"html-audio-button-response","75","720813","0.0-58.0-1.0","CAN_143","143","","","","","","null","stimuli/bleep.m4a","null","pink","lightred","[""pink"",""lightred"",""low nameability""]","left-right","[""pink"",""lightred"",""low nameability""]","2","low nameability","13","left","audio_feedback","1"
"html-button-response","76","721331","0.0-59.0","CAN_143","143","","","","","","null","<button class=""jspsych-btn""><img src=""stimuli/white_square.png"" style=""width: 200px;height: 200px;""></button>","null","pink","lightred","[""pink"",""lightred"",""low nameability""]","left-right","[""pink"",""lightred"",""low nameability""]","2","low nameability","13","left","iti",""
"html-button-response","77","721820","0.0-60.0","CAN_143","143","","","","","","469","","0","mustard","turquoise","[""mustard"",""turquoise"",""low nameability""]","left-right","[""mustard"",""turquoise"",""low nameability""]","2","low nameability","14","left","trigger",""
"html-button-response","78","722468","0.0-61.0-0.0","CAN_143","143","","","","","","638","<button class=""jspsych-btn""><img src=""stimuli/mustard.png"" style=""width: 200px;height: 200px;""></button>","0","mustard","turquoise","[""mustard"",""turquoise"",""low nameability""]","left-right","[""mustard"",""turquoise"",""low nameability""]","2","low nameability","14","left","response","1"
"html-audio-button-response","79","722673","0.0-61.0-1.0","CAN_143","143","","","","","","null","stimuli/bleep.m4a","null","mustard","turquoise","[""mustard"",""turquoise"",""low nameability""]","left-right","[""mustard"",""turquoise"",""low nameability""]","2","low nameability","14","left","audio_feedback","1"
"html-button-response","80","723189","0.0-62.0","CAN_143","143","","","","","","null","<button class=""jspsych-btn""><img src=""stimuli/white_square.png"" style=""width: 200px;height: 200px;""></button>","null","mustard","turquoise","[""mustard"",""turquoise"",""low nameability""]","left-right","[""mustard"",""turquoise"",""low nameability""]","2","low nameability","14","left","iti",""
"html-button-response","81","723642","0.0-63.0","CAN_143","143","","","","","","430","","0","purple","brown","[""purple"",""brown"",""high nameability""]","left-right","[""purple"",""brown"",""high nameability""]","2","high nameability","15","left","trigger",""
"html-button-response","82","724273","0.0-64.0-0.0","CAN_143","143","","","","","","626","<button class=""jspsych-btn""><img src=""stimuli/purple.png"" style=""width: 200px;height: 200px;""></button>","0","purple","brown","[""purple"",""brown"",""high nameability""]","left-right","[""purple"",""brown"",""high nameability""]","2","high nameability","15","left","response","1"
"html-audio-button-response","83","724479","0.0-64.0-1.0","CAN_143","143","","","","","","null","stimuli/bleep.m4a","null","purple","brown","[""purple"",""brown"",""high nameability""]","left-right","[""purple"",""brown"",""high nameability""]","2","high nameability","15","left","audio_feedback","1"
"html-button-response","84","725004","0.0-65.0","CAN_143","143","","","","","","null","<button class=""jspsych-btn""><img src=""stimuli/white_square.png"" style=""width: 200px;height: 200px;""></button>","null","purple","brown","[""purple"",""brown"",""high nameability""]","left-right","[""purple"",""brown"",""high nameability""]","2","high nameability","15","left","iti",""
"html-button-response","85","725437","0.0-66.0","CAN_143","143","","","","","","417","","0","pink","turquoise","[""pink"",""turquoise"",""low nameability""]","right-left","[""turquoise"",""pink""]","2","low nameability","16","right","trigger",""
"html-button-response","86","726188","0.0-67.0-0.0","CAN_143","143","","","","","","741","<button class=""jspsych-btn""><img src=""stimuli/pink.png"" style=""width: 200px;height: 200px;""></button>","1","pink","turquoise","[""pink"",""turquoise"",""low nameability""]","right-left","[""turquoise"",""pink""]","2","low nameability","16","right","response","1"
"html-audio-button-response","87","726391","0.0-67.0-1.0","CAN_143","143","","","","","","null","stimuli/bleep.m4a","null","pink","turquoise","[""pink"",""turquoise"",""low nameability""]","right-left","[""turquoise"",""pink""]","2","low nameability","16","right","audio_feedback","1"
"html-button-response","88","726915","0.0-68.0","CAN_143","143","","","","","","null","<button class=""jspsych-btn""><img src=""stimuli/white_square.png"" style=""width: 200px;height: 200px;""></button>","null","pink","turquoise","[""pink"",""turquoise"",""low nameability""]","right-left","[""turquoise"",""pink""]","2","low nameability","16","right","iti",""
"html-button-response","89","727447","0.0-69.0","CAN_143","143","","","","","","513","","0","purple","red","[""purple"",""red"",""high nameability""]","right-left","[""red"",""purple""]","2","high nameability","17","right","trigger",""
"html-button-response","90","728055","0.0-70.0-0.0","CAN_143","143","","","","","","602","<button class=""jspsych-btn""><img src=""stimuli/purple.png"" style=""width: 200px;height: 200px;""></button>","1","purple","red","[""purple"",""red"",""high nameability""]","right-left","[""red"",""purple""]","2","high nameability","17","right","response","1"
"html-audio-button-response","91","728261","0.0-70.0-1.0","CAN_143","143","","","","","","null","stimuli/bleep.m4a","null","purple","red","[""purple"",""red"",""high nameability""]","right-left","[""red"",""purple""]","2","high nameability","17","right","audio_feedback","1"
"html-button-response","92","728787","0.0-71.0","CAN_143","143","","","","","","null","<button class=""jspsych-btn""><img src=""stimuli/white_square.png"" style=""width: 200px;height: 200px;""></button>","null","purple","red","[""purple"",""red"",""high nameability""]","right-left","[""red"",""purple""]","2","high nameability","17","right","iti",""
"html-button-response","93","729195","0.0-72.0","CAN_143","143","","","","","","389","","0","blue","brown","[""blue"",""brown"",""high nameability""]","right-left","[""brown"",""blue""]","2","high nameability","18","right","trigger",""
"html-button-response","94","729846","0.0-73.0-0.0","CAN_143","143","","","","","","645","<button class=""jspsych-btn""><img src=""stimuli/blue.png"" style=""width: 200px;height: 200px;""></button>","1","blue","brown","[""blue"",""brown"",""high nameability""]","right-left","[""brown"",""blue""]","2","high nameability","18","right","response","1"
"html-audio-button-response","95","730055","0.0-73.0-1.0","CAN_143","143","","","","","","null","stimuli/bleep.m4a","null","blue","brown","[""blue"",""brown"",""high nameability""]","right-left","[""brown"",""blue""]","2","high nameability","18","right","audio_feedback","1"
"html-button-response","96","730580","0.0-74.0","CAN_143","143","","","","","","null","<button class=""jspsych-btn""><img src=""stimuli/white_square.png"" style=""width: 200px;height: 200px;""></button>","null","blue","brown","[""blue"",""brown"",""high nameability""]","right-left","[""brown"",""blue""]","2","high nameability","18","right","iti",""
"html-button-response","97","731062","0.0-75.0","CAN_143","143","","","","","","462","","0","pink","mustard","[""pink"",""mustard"",""low nameability""]","right-left","[""mustard"",""pink""]","2","low nameability","19","right","trigger",""
"html-button-response","98","731737","0.0-76.0-0.0","CAN_143","143","","","","","","667","<button class=""jspsych-btn""><img src=""stimuli/pink.png"" style=""width: 200px;height: 200px;""></button>","1","pink","mustard","[""pink"",""mustard"",""low nameability""]","right-left","[""mustard"",""pink""]","2","low nameability","19","right","response","1"
"html-audio-button-response","99","731942","0.0-76.0-1.0","CAN_143","143","","","","","","null","stimuli/bleep.m4a","null","pink","mustard","[""pink"",""mustard"",""low nameability""]","right-left","[""mustard"",""pink""]","2","low nameability","19","right","audio_feedback","1"
"html-button-response","100","732471","0.0-77.0","CAN_143","143","","","","","","null","<button class=""jspsych-btn""><img src=""stimuli/white_square.png"" style=""width: 200px;height: 200px;""></button>","null","pink","mustard","[""pink"",""mustard"",""low nameability""]","right-left","[""mustard"",""pink""]","2","low nameability","19","right","iti",""
"html-button-response","101","732901","0.0-78.0","CAN_143","143","","","","","","414","","0","orange","blue","[""orange"",""blue"",""high nameability""]","left-right","[""orange"",""blue"",""high nameability""]","2","high nameability","20","left","trigger",""
"html-button-response","102","733640","0.0-79.0-0.0","CAN_143","143","","","","","","732","<button class=""jspsych-btn""><img src=""stimuli/orange.png"" style=""width: 200px;height: 200px;""></button>","0","orange","blue","[""orange"",""blue"",""high nameability""]","left-right","[""orange"",""blue"",""high nameability""]","2","high nameability","20","left","response","1"
"html-audio-button-response","103","733842","0.0-79.0-1.0","CAN_143","143","","","","","","null","stimuli/bleep.m4a","null","orange","blue","[""orange"",""blue"",""high nameability""]","left-right","[""orange"",""blue"",""high nameability""]","2","high nameability","20","left","audio_feedback","1"
"html-button-response","104","734359","0.0-80.0","CAN_143","143","","","","","","null","<button class=""jspsych-btn""><img src=""stimuli/white_square.png"" style=""width: 200px;height: 200px;""></button>","null","orange","blue","[""orange"",""blue"",""high nameability""]","left-right","[""orange"",""blue"",""high nameability""]","2","high nameability","20","left","iti",""
"pavlovia","105","734415","0.0-81.0","CAN_143","143","","","","","","","","","","","","","","","","","","",""
"pavlovia","106","734422","0.0-82.0","CAN_143","143","","","","","","","","","","","","","","","","","","",""
"html-audio-button-response","107","735754","0.0-83.0","CAN_143","143","","","","","","1395","stimuli/tada.m4a","0","","","","","","","","","","",""
"html-button-response","108","736381","0.0-84.0","CAN_143","143","","","","","","622","","0","","","","","","","","","","",""
"html-button-response","109","736998","0.0-85.0","CAN_143","143","","","","","","610","","0","red","blue","[""red"",""blue"",""high nameability""]","left-right","[""red"",""blue"",""high nameability""]","3","high nameability","21","left","trigger",""
"html-button-response","110","737723","0.0-86.0-0.0","CAN_143","143","","","","","","719","<button class=""jspsych-btn""><img src=""stimuli/red.png"" style=""width: 200px;height: 200px;""></button>","0","red","blue","[""red"",""blue"",""high nameability""]","left-right","[""red"",""blue"",""high nameability""]","3","high nameability","21","left","response","1"
"html-audio-button-response","111","737929","0.0-86.0-1.0","CAN_143","143","","","","","","null","stimuli/bleep.m4a","null","red","blue","[""red"",""blue"",""high nameability""]","left-right","[""red"",""blue"",""high nameability""]","3","high nameability","21","left","audio_feedback","1"
"html-button-response","112","738449","0.0-87.0","CAN_143","143","","","","","","null","<button class=""jspsych-btn""><img src=""stimuli/white_square.png"" style=""width: 200px;height: 200px;""></button>","null","red","blue","[""red"",""blue"",""high nameability""]","left-right","[""red"",""blue"",""high nameability""]","3","high nameability","21","left","iti",""
"html-button-response","113","738853","0.0-88.0","CAN_143","143","","","","","","384","","0","neonyellow","lightred","[""neonyellow"",""lightred"",""low nameability""]","left-right","[""neonyellow"",""lightred"",""low nameability""]","3","low nameability","22","left","trigger",""
"html-button-response","114","739626","0.0-89.0-0.0","CAN_143","143","","","","","","765","<button class=""jspsych-btn""><img src=""stimuli/neonyellow.png"" style=""width: 200px;height: 200px;""></button>","0","neonyellow","lightred","[""neonyellow"",""lightred"",""low nameability""]","left-right","[""neonyellow"",""lightred"",""low nameability""]","3","low nameability","22","left","response","1"
"html-audio-button-response","115","739829","0.0-89.0-1.0","CAN_143","143","","","","","","null","stimuli/bleep.m4a","null","neonyellow","lightred","[""neonyellow"",""lightred"",""low nameability""]","left-right","[""neonyellow"",""lightred"",""low nameability""]","3","low nameability","22","left","audio_feedback","1"
"html-button-response","116","740347","0.0-90.0","CAN_143","143","","","","","","null","<button class=""jspsych-btn""><img src=""stimuli/white_square.png"" style=""width: 200px;height: 200px;""></button>","null","neonyellow","lightred","[""neonyellow"",""lightred"",""low nameability""]","left-right","[""neonyellow"",""lightred"",""low nameability""]","3","low nameability","22","left","iti",""
"html-button-response","117","740829","0.0-91.0","CAN_143","143","","","","","","464","","0","turquoise","darkgreenblue","[""turquoise"",""darkgreenblue"",""low nameability""]","right-left","[""darkgreenblue"",""turquoise""]","3","low nameability","23","right","trigger",""
"html-button-response","118","741542","0.0-92.0-0.0","CAN_143","143","","","","","","704","<button class=""jspsych-btn""><img src=""stimuli/turquoise.png"" style=""width: 200px;height: 200px;""></button>","1","turquoise","darkgreenblue","[""turquoise"",""darkgreenblue"",""low nameability""]","right-left","[""darkgreenblue"",""turquoise""]","3","low nameability","23","right","response","1"
"html-audio-button-response","119","741748","0.0-92.0-1.0","CAN_143","143","","","","","","null","stimuli/bleep.m4a","null","turquoise","darkgreenblue","[""turquoise"",""darkgreenblue"",""low nameability""]","right-left","[""darkgreenblue"",""turquoise""]","3","low nameability","23","right","audio_feedback","1"
"html-button-response","120","742269","0.0-93.0","CAN_143","143","","","","","","null","<button class=""jspsych-btn""><img src=""stimuli/white_square.png"" style=""width: 200px;height: 200px;""></button>","null","turquoise","darkgreenblue","[""turquoise"",""darkgreenblue"",""low nameability""]","right-left","[""darkgreenblue"",""turquoise""]","3","low nameability","23","right","iti",""
"html-button-response","121","742776","0.0-94.0","CAN_143","143","","","","","","488","","0","red","purple","[""red"",""purple"",""high nameability""]","right-left","[""purple"",""red""]","3","high nameability","24","right","trigger",""
"html-button-response","122","743516","0.0-95.0-0.0","CAN_143","143","","","","","","732","<button class=""jspsych-btn""><img src=""stimuli/red.png"" style=""width: 200px;height: 200px;""></button>","1","red","purple","[""red"",""purple"",""high nameability""]","right-left","[""purple"",""red""]","3","high nameability","24","right","response","1"
"html-audio-button-response","123","743721","0.0-95.0-1.0","CAN_143","143","","","","","","null","stimuli/bleep.m4a","null","red","purple","[""red"",""purple"",""high nameability""]","right-left","[""purple"",""red""]","3","high nameability","24","right","audio_feedback","1"
"html-button-response","124","744242","0.0-96.0","CAN_143","143","","","","","","null","<button class=""jspsych-btn""><img src=""stimuli/white_square.png"" style=""width: 200px;height: 200px;""></button>","null","red","purple","[""red"",""purple"",""high nameability""]","right-left","[""purple"",""red""]","3","high nameability","24","right","iti",""
"html-button-response","125","744670","0.0-97.0","CAN_143","143","","","","","","409","","0","blue","purple","[""blue"",""purple"",""high nameability""]","left-right","[""blue"",""purple"",""high nameability""]","3","high nameability","25","left","trigger",""
"html-button-response","126","745382","0.0-98.0-0.0","CAN_143","143","","","","","","703","<button class=""jspsych-btn""><img src=""stimuli/blue.png"" style=""width: 200px;height: 200px;""></button>","0","blue","purple","[""blue"",""purple"",""high nameability""]","left-right","[""blue"",""purple"",""high nameability""]","3","high nameability","25","left","response","1"
"html-audio-button-response","127","745586","0.0-98.0-1.0","CAN_143","143","","","","","","null","stimuli/bleep.m4a","null","blue","purple","[""blue"",""purple"",""high nameability""]","left-right","[""blue"",""purple"",""high nameability""]","3","high nameability","25","left","audio_feedback","1"
"html-button-response","128","746107","0.0-99.0","CAN_143","143","","","","","","null","<button class=""jspsych-btn""><img src=""stimuli/white_square.png"" style=""width: 200px;height: 200px;""></button>","null","blue","purple","[""blue"",""purple"",""high nameability""]","left-right","[""blue"",""purple"",""high nameability""]","3","high nameability","25","left","iti",""
"html-button-response","129","746547","0.0-100.0","CAN_143","143","","","","","","421","","0","red","yellow","[""red"",""yellow"",""high nameability""]","left-right","[""red"",""yellow"",""high nameability""]","3","high nameability","26","left","trigger",""
"html-button-response","130","747215","0.0-101.0-0.0","CAN_143","143","","","","","","657","<button class=""jspsych-btn""><img src=""stimuli/red.png"" style=""width: 200px;height: 200px;""></button>","0","red","yellow","[""red"",""yellow"",""high nameability""]","left-right","[""red"",""yellow"",""high nameability""]","3","high nameability","26","left","response","1"
"html-audio-button-response","131","747418","0.0-101.0-1.0","CAN_143","143","","","","","","null","stimuli/bleep.m4a","null","red","yellow","[""red"",""yellow"",""high nameability""]","left-right","[""red"",""yellow"",""high nameability""]","3","high nameability","26","left","audio_feedback","1"
"html-button-response","132","747938","0.0-102.0","CAN_143","143","","","","","","null","<button class=""jspsych-btn""><img src=""stimuli/white_square.png"" style=""width: 200px;height: 200px;""></button>","null","red","yellow","[""red"",""yellow"",""high nameability""]","left-right","[""red"",""yellow"",""high nameability""]","3","high nameability","26","left","iti",""
"html-button-response","133","748391","0.0-103.0","CAN_143","143","","","","","","437","","0","mustard","neonyellow","[""mustard"",""neonyellow"",""low nameability""]","left-right","[""mustard"",""neonyellow"",""low nameability""]","3","low nameability","27","left","trigger",""
"html-button-response","134","749258","0.0-104.0-0.0","CAN_143","143","","","","","","858","<button class=""jspsych-btn""><img src=""stimuli/mustard.png"" style=""width: 200px;height: 200px;""></button>","0","mustard","neonyellow","[""mustard"",""neonyellow"",""low nameability""]","left-right","[""mustard"",""neonyellow"",""low nameability""]","3","low nameability","27","left","response","1"
"html-audio-button-response","135","749462","0.0-104.0-1.0","CAN_143","143","","","","","","null","stimuli/bleep.m4a","null","mustard","neonyellow","[""mustard"",""neonyellow"",""low nameability""]","left-right","[""mustard"",""neonyellow"",""low nameability""]","3","low nameability","27","left","audio_feedback","1"
"html-button-response","136","749986","0.0-105.0","CAN_143","143","","","","","","null","<button class=""jspsych-btn""><img src=""stimuli/white_square.png"" style=""width: 200px;height: 200px;""></button>","null","mustard","neonyellow","[""mustard"",""neonyellow"",""low nameability""]","left-right","[""mustard"",""neonyellow"",""low nameability""]","3","low nameability","27","left","iti",""
"html-button-response","137","750440","0.0-106.0","CAN_143","143","","","","","","440","","0","turquoise","lightred","[""turquoise"",""lightred"",""low nameability""]","left-right","[""turquoise"",""lightred"",""low nameability""]","3","low nameability","28","left","trigger",""
"html-button-response","138","751135","0.0-107.0-0.0","CAN_143","143","","","","","","688","<button class=""jspsych-btn""><img src=""stimuli/turquoise.png"" style=""width: 200px;height: 200px;""></button>","0","turquoise","lightred","[""turquoise"",""lightred"",""low nameability""]","left-right","[""turquoise"",""lightred"",""low nameability""]","3","low nameability","28","left","response","1"
"html-audio-button-response","139","751341","0.0-107.0-1.0","CAN_143","143","","","","","","null","stimuli/bleep.m4a","null","turquoise","lightred","[""turquoise"",""lightred"",""low nameability""]","left-right","[""turquoise"",""lightred"",""low nameability""]","3","low nameability","28","left","audio_feedback","1"
"html-button-response","140","751864","0.0-108.0","CAN_143","143","","","","","","null","<button class=""jspsych-btn""><img src=""stimuli/white_square.png"" style=""width: 200px;height: 200px;""></button>","null","turquoise","lightred","[""turquoise"",""lightred"",""low nameability""]","left-right","[""turquoise"",""lightred"",""low nameability""]","3","low nameability","28","left","iti",""
"html-button-response","141","752353","0.0-109.0","CAN_143","143","","","","","","467","","0","neonyellow","darkgreenblue","[""neonyellow"",""darkgreenblue"",""low nameability""]","right-left","[""darkgreenblue"",""neonyellow""]","3","low nameability","29","right","trigger",""
"html-button-response","142","752991","0.0-110.0-0.0","CAN_143","143","","","","","","627","<button class=""jspsych-btn""><img src=""stimuli/neonyellow.png"" style=""width: 200px;height: 200px;""></button>","1","neonyellow","darkgreenblue","[""neonyellow"",""darkgreenblue"",""low nameability""]","right-left","[""darkgreenblue"",""neonyellow""]","3","low nameability","29","right","response","1"
"html-audio-button-response","143","753197","0.0-110.0-1.0","CAN_143","143","","","","","","null","stimuli/bleep.m4a","null","neonyellow","darkgreenblue","[""neonyellow"",""darkgreenblue"",""low nameability""]","right-left","[""darkgreenblue"",""neonyellow""]","3","low nameability","29","right","audio_feedback","1"
"html-button-response","144","753721","0.0-111.0","CAN_143","143","","","","","","null","<button class=""jspsych-btn""><img src=""stimuli/white_square.png"" style=""width: 200px;height: 200px;""></button>","null","neonyellow","darkgreenblue","[""neonyellow"",""darkgreenblue"",""low nameability""]","right-left","[""darkgreenblue"",""neonyellow""]","3","low nameability","29","right","iti",""
"html-button-response","145","754148","0.0-112.0","CAN_143","143","","","","","","408","","0","blue","orange","[""blue"",""orange"",""high nameability""]","left-right","[""blue"",""orange"",""high nameability""]","3","high nameability","30","left","trigger",""
"html-button-response","146","754807","0.0-113.0-0.0","CAN_143","143","","","","","","651","<button class=""jspsych-btn""><img src=""stimuli/blue.png"" style=""width: 200px;height: 200px;""></button>","0","blue","orange","[""blue"",""orange"",""high nameability""]","left-right","[""blue"",""orange"",""high nameability""]","3","high nameability","30","left","response","1"
"html-audio-button-response","147","755010","0.0-113.0-1.0","CAN_143","143","","","","","","null","stimuli/bleep.m4a","null","blue","orange","[""blue"",""orange"",""high nameability""]","left-right","[""blue"",""orange"",""high nameability""]","3","high nameability","30","left","audio_feedback","1"
"html-button-response","148","755531","0.0-114.0","CAN_143","143","","","","","","null","<button class=""jspsych-btn""><img src=""stimuli/white_square.png"" style=""width: 200px;height: 200px;""></button>","null","blue","orange","[""blue"",""orange"",""high nameability""]","left-right","[""blue"",""orange"",""high nameability""]","3","high nameability","30","left","iti",""
"pavlovia","149","755602","0.0-115.0","CAN_143","143","","","","","","","","","","","","","","","","","","",""
"pavlovia","150","755611","0.0-116.0","CAN_143","143","","","","","","","","","","","","","","","","","","",""
"html-audio-button-response","151","756797","0.0-117.0","CAN_143","143","","","","","","1267","stimuli/tada.m4a","0","","","","","","","","","","",""
"html-button-response","152","757373","0.0-118.0","CAN_143","143","","","","","","570","","0","","","","","","","","","","",""
"html-button-response","153","757932","0.0-119.0","CAN_143","143","","","","","","551","","0","lightred","neonyellow","[""lightred"",""neonyellow"",""low nameability""]","right-left","[""neonyellow"",""lightred""]","4","low nameability","31","right","trigger",""
"html-button-response","154","758600","0.0-120.0-0.0","CAN_143","143","","","","","","657","<button class=""jspsych-btn""><img src=""stimuli/lightred.png"" style=""width: 200px;height: 200px;""></button>","1","lightred","neonyellow","[""lightred"",""neonyellow"",""low nameability""]","right-left","[""neonyellow"",""lightred""]","4","low nameability","31","right","response","1"
"html-audio-button-response","155","758805","0.0-120.0-1.0","CAN_143","143","","","","","","null","stimuli/bleep.m4a","null","lightred","neonyellow","[""lightred"",""neonyellow"",""low nameability""]","right-left","[""neonyellow"",""lightred""]","4","low nameability","31","right","audio_feedback","1"
"html-button-response","156","759322","0.0-121.0","CAN_143","143","","","","","","null","<button class=""jspsych-btn""><img src=""stimuli/white_square.png"" style=""width: 200px;height: 200px;""></button>","null","lightred","neonyellow","[""lightred"",""neonyellow"",""low nameability""]","right-left","[""neonyellow"",""lightred""]","4","low nameability","31","right","iti",""
"html-button-response","157","759728","0.0-122.0","CAN_143","143","","","","","","387","","0","darkgreenblue","pink","[""darkgreenblue"",""pink"",""low nameability""]","right-left","[""pink"",""darkgreenblue""]","4","low nameability","32","right","trigger",""
"html-button-response","158","760426","0.0-123.0-0.0","CAN_143","143","","","","","","689","<button class=""jspsych-btn""><img src=""stimuli/darkgreenblue.png"" style=""width: 200px;height: 200px;""></button>","1","darkgreenblue","pink","[""darkgreenblue"",""pink"",""low nameability""]","right-left","[""pink"",""darkgreenblue""]","4","low nameability","32","right","response","1"
"html-audio-button-response","159","760634","0.0-123.0-1.0","CAN_143","143","","","","","","null","stimuli/bleep.m4a","null","darkgreenblue","pink","[""darkgreenblue"",""pink"",""low nameability""]","right-left","[""pink"",""darkgreenblue""]","4","low nameability","32","right","audio_feedback","1"
"html-button-response","160","761156","0.0-124.0","CAN_143","143","","","","","","null","<button class=""jspsych-btn""><img src=""stimuli/white_square.png"" style=""width: 200px;height: 200px;""></button>","null","darkgreenblue","pink","[""darkgreenblue"",""pink"",""low nameability""]","right-left","[""pink"",""darkgreenblue""]","4","low nameability","32","right","iti",""
"html-button-response","161","761559","0.0-125.0","CAN_143","143","","","","","","388","","0","brown","purple","[""brown"",""purple"",""high nameability""]","left-right","[""brown"",""purple"",""high nameability""]","4","high nameability","33","left","trigger",""
"html-button-response","162","762224","0.0-126.0-0.0","CAN_143","143","","","","","","656","<button class=""jspsych-btn""><img src=""stimuli/brown.png"" style=""width: 200px;height: 200px;""></button>","0","brown","purple","[""brown"",""purple"",""high nameability""]","left-right","[""brown"",""purple"",""high nameability""]","4","high nameability","33","left","response","1"
"html-audio-button-response","163","762426","0.0-126.0-1.0","CAN_143","143","","","","","","null","stimuli/bleep.m4a","null","brown","purple","[""brown"",""purple"",""high nameability""]","left-right","[""brown"",""purple"",""high nameability""]","4","high nameability","33","left","audio_feedback","1"
"html-button-response","164","762941","0.0-127.0","CAN_143","143","","","","","","null","<button class=""jspsych-btn""><img src=""stimuli/white_square.png"" style=""width: 200px;height: 200px;""></button>","null","brown","purple","[""brown"",""purple"",""high nameability""]","left-right","[""brown"",""purple"",""high nameability""]","4","high nameability","33","left","iti",""
"html-button-response","165","763350","0.0-128.0","CAN_143","143","","","","","","380","","0","neonyellow","turquoise","[""neonyellow"",""turquoise"",""low nameability""]","left-right","[""neonyellow"",""turquoise"",""low nameability""]","4","low nameability","34","left","trigger",""
"html-button-response","166","764042","0.0-129.0-0.0","CAN_143","143","","","","","","686","<button class=""jspsych-btn""><img src=""stimuli/neonyellow.png"" style=""width: 200px;height: 200px;""></button>","0","neonyellow","turquoise","[""neonyellow"",""turquoise"",""low nameability""]","left-right","[""neonyellow"",""turquoise"",""low nameability""]","4","low nameability","34","left","response","1"
"html-audio-button-response","167","764246","0.0-129.0-1.0","CAN_143","143","","","","","","null","stimuli/bleep.m4a","null","neonyellow","turquoise","[""neonyellow"",""turquoise"",""low nameability""]","left-right","[""neonyellow"",""turquoise"",""low nameability""]","4","low nameability","34","left","audio_feedback","1"
"html-button-response","168","764766","0.0-130.0","CAN_143","143","","","","","","null","<button class=""jspsych-btn""><img src=""stimuli/white_square.png"" style=""width: 200px;height: 200px;""></button>","null","neonyellow","turquoise","[""neonyellow"",""turquoise"",""low nameability""]","left-right","[""neonyellow"",""turquoise"",""low nameability""]","4","low nameability","34","left","iti",""
"html-button-response","169","765280","0.0-131.0","CAN_143","143","","","","","","498","","0","turquoise","mustard","[""turquoise"",""mustard"",""low nameability""]","right-left","[""mustard"",""turquoise""]","4","low nameability","35","right","trigger",""
"html-button-response","170","765908","0.0-132.0-0.0","CAN_143","143","","","","","","620","<button class=""jspsych-btn""><img src=""stimuli/turquoise.png"" style=""width: 200px;height: 200px;""></button>","1","turquoise","mustard","[""turquoise"",""mustard"",""low nameability""]","right-left","[""mustard"",""turquoise""]","4","low nameability","35","right","response","1"
"html-audio-button-response","171","766114","0.0-132.0-1.0","CAN_143","143","","","","","","null","stimuli/bleep.m4a","null","turquoise","mustard","[""turquoise"",""mustard"",""low nameability""]","right-left","[""mustard"",""turquoise""]","4","low nameability","35","right","audio_feedback","1"
"html-button-response","172","766631","0.0-133.0","CAN_143","143","","","","","","null","<button class=""jspsych-btn""><img src=""stimuli/white_square.png"" style=""width: 200px;height: 200px;""></button>","null","turquoise","mustard","[""turquoise"",""mustard"",""low nameability""]","right-left","[""mustard"",""turquoise""]","4","low nameability","35","right","iti",""
"html-button-response","173","767038","0.0-134.0","CAN_143","143","","","","","","383","","0","neonyellow","mustard","[""neonyellow"",""mustard"",""low nameability""]","left-right","[""neonyellow"",""mustard"",""low nameability""]","4","low nameability","36","left","trigger",""
"html-button-response","174","767693","0.0-135.0-0.0","CAN_143","143","","","","","","646","<button class=""jspsych-btn""><img src=""stimuli/neonyellow.png"" style=""width: 200px;height: 200px;""></button>","0","neonyellow","mustard","[""neonyellow"",""mustard"",""low nameability""]","left-right","[""neonyellow"",""mustard"",""low nameability""]","4","low nameability","36","left","response","1"
"html-audio-button-response","175","767898","0.0-135.0-1.0","CAN_143","143","","","","","","null","stimuli/bleep.m4a","null","neonyellow","mustard","[""neonyellow"",""mustard"",""low nameability""]","left-right","[""neonyellow"",""mustard"",""low nameability""]","4","low nameability","36","left","audio_feedback","1"
"html-button-response","176","768418","0.0-136.0","CAN_143","143","","","","","","null","<button class=""jspsych-btn""><img src=""stimuli/white_square.png"" style=""width: 200px;height: 200px;""></button>","null","neonyellow","mustard","[""neonyellow"",""mustard"",""low nameability""]","left-right","[""neonyellow"",""mustard"",""low nameability""]","4","low nameability","36","left","iti",""
"html-button-response","177","768848","0.0-137.0","CAN_143","143","","","","","","384","","0","neonyellow","pink","[""neonyellow"",""pink"",""low nameability""]","left-right","[""neonyellow"",""pink"",""low nameability""]","4","low nameability","37","left","trigger",""
"html-button-response","178","769513","0.0-138.0-0.0","CAN_143","143","","","","","","648","<button class=""jspsych-btn""><img src=""stimuli/neonyellow.png"" style=""width: 200px;height: 200px;""></button>","0","neonyellow","pink","[""neonyellow"",""pink"",""low nameability""]","left-right","[""neonyellow"",""pink"",""low nameability""]","4","low nameability","37","left","response","1"
"html-audio-button-response","179","769718","0.0-138.0-1.0","CAN_143","143","","","","","","null","stimuli/bleep.m4a","null","neonyellow","pink","[""neonyellow"",""pink"",""low nameability""]","left-right","[""neonyellow"",""pink"",""low nameability""]","4","low nameability","37","left","audio_feedback","1"
"html-button-response","180","770233","0.0-139.0","CAN_143","143","","","","","","null","<button class=""jspsych-btn""><img src=""stimuli/white_square.png"" style=""width: 200px;height: 200px;""></button>","null","neonyellow","pink","[""neonyellow"",""pink"",""low nameability""]","left-right","[""neonyellow"",""pink"",""low nameability""]","4","low nameability","37","left","iti",""
"html-button-response","181","770710","0.0-140.0","CAN_143","143","","","","","","449","","0","red","orange","[""red"",""orange"",""high nameability""]","left-right","[""red"",""orange"",""high nameability""]","4","high nameability","38","left","trigger",""
"html-button-response","182","771363","0.0-141.0-0.0","CAN_143","143","","","","","","639","<button class=""jspsych-btn""><img src=""stimuli/red.png"" style=""width: 200px;height: 200px;""></button>","0","red","orange","[""red"",""orange"",""high nameability""]","left-right","[""red"",""orange"",""high nameability""]","4","high nameability","38","left","response","1"
"html-audio-button-response","183","771569","0.0-141.0-1.0","CAN_143","143","","","","","","null","stimuli/bleep.m4a","null","red","orange","[""red"",""orange"",""high nameability""]","left-right","[""red"",""orange"",""high nameability""]","4","high nameability","38","left","audio_feedback","1"
"html-button-response","184","772083","0.0-142.0","CAN_143","143","","","","","","null","<button class=""jspsych-btn""><img src=""stimuli/white_square.png"" style=""width: 200px;height: 200px;""></button>","null","red","orange","[""red"",""orange"",""high nameability""]","left-right","[""red"",""orange"",""high nameability""]","4","high nameability","38","left","iti",""
"html-button-response","185","772472","0.0-143.0","CAN_143","143","","","","","","380","","0","pink","darkgreenblue","[""pink"",""darkgreenblue"",""low nameability""]","right-left","[""darkgreenblue"",""pink""]","4","low nameability","39","right","trigger",""
"html-button-response","186","773112","0.0-144.0-0.0","CAN_143","143","","","","","","630","<button class=""jspsych-btn""><img src=""stimuli/pink.png"" style=""width: 200px;height: 200px;""></button>","1","pink","darkgreenblue","[""pink"",""darkgreenblue"",""low nameability""]","right-left","[""darkgreenblue"",""pink""]","4","low nameability","39","right","response","1"
"html-audio-button-response","187","773315","0.0-144.0-1.0","CAN_143","143","","","","","","null","stimuli/bleep.m4a","null","pink","darkgreenblue","[""pink"",""darkgreenblue"",""low nameability""]","right-left","[""darkgreenblue"",""pink""]","4","low nameability","39","right","audio_feedback","1"
"html-button-response","188","773831","0.0-145.0","CAN_143","143","","","","","","null","<button class=""jspsych-btn""><img src=""stimuli/white_square.png"" style=""width: 200px;height: 200px;""></button>","null","pink","darkgreenblue","[""pink"",""darkgreenblue"",""low nameability""]","right-left","[""darkgreenblue"",""pink""]","4","low nameability","39","right","iti",""
"html-button-response","189","774252","0.0-146.0","CAN_143","143","","","","","","403","","0","orange","red","[""orange"",""red"",""high nameability""]","right-left","[""red"",""orange""]","4","high nameability","40","right","trigger",""
"html-button-response","190","774882","0.0-147.0-0.0","CAN_143","143","","","","","","620","<button class=""jspsych-btn""><img src=""stimuli/orange.png"" style=""width: 200px;height: 200px;""></button>","1","orange","red","[""orange"",""red"",""high nameability""]","right-left","[""red"",""orange""]","4","high nameability","40","right","response","1"
"html-audio-button-response","191","775085","0.0-147.0-1.0","CAN_143","143","","","","","","null","stimuli/bleep.m4a","null","orange","red","[""orange"",""red"",""high nameability""]","right-left","[""red"",""orange""]","4","high nameability","40","right","audio_feedback","1"
"html-button-response","192","775605","0.0-148.0","CAN_143","143","","","","","","null","<button class=""jspsych-btn""><img src=""stimuli/white_square.png"" style=""width: 200px;height: 200px;""></button>","null","orange","red","[""orange"",""red"",""high nameability""]","right-left","[""red"",""orange""]","4","high nameability","40","right","iti",""
"pavlovia","193","775675","0.0-149.0","CAN_143","143","","","","","","","","","","","","","","","","","","",""
"pavlovia","194","775685","0.0-150.0","CAN_143","143","","","","","","","","","","","","","","","","","","",""
"html-audio-button-response","195","777593","0.0-151.0","CAN_143","143","","","","","","1984","stimuli/tada.m4a","0","","","","","","","","","","",""
"html-button-response","196","778229","0.0-152.0","CAN_143","143","","","","","","629","","0","","","","","","","","","","",""
"html-button-response","197","778800","0.0-153.0","CAN_143","143","","","","","","564","","0","mustard","darkgreenblue","[""mustard"",""darkgreenblue"",""low nameability""]","right-left","[""darkgreenblue"",""mustard""]","5","low nameability","41","right","trigger",""
"html-button-response","198","779464","0.0-154.0-0.0","CAN_143","143","","","","","","656","<button class=""jspsych-btn""><img src=""stimuli/mustard.png"" style=""width: 200px;height: 200px;""></button>","1","mustard","darkgreenblue","[""mustard"",""darkgreenblue"",""low nameability""]","right-left","[""darkgreenblue"",""mustard""]","5","low nameability","41","right","response","1"
"html-audio-button-response","199","779666","0.0-154.0-1.0","CAN_143","143","","","","","","null","stimuli/bleep.m4a","null","mustard","darkgreenblue","[""mustard"",""darkgreenblue"",""low nameability""]","right-left","[""darkgreenblue"",""mustard""]","5","low nameability","41","right","audio_feedback","1"
"html-button-response","200","780181","0.0-155.0","CAN_143","143","","","","","","null","<button class=""jspsych-btn""><img src=""stimuli/white_square.png"" style=""width: 200px;height: 200px;""></button>","null","mustard","darkgreenblue","[""mustard"",""darkgreenblue"",""low nameability""]","right-left","[""darkgreenblue"",""mustard""]","5","low nameability","41","right","iti",""
"html-button-response","201","780603","0.0-156.0","CAN_143","143","","","","","","391","","0","mustard","lightred","[""mustard"",""lightred"",""low nameability""]","right-left","[""lightred"",""mustard""]","5","low nameability","42","right","trigger",""
"html-button-response","202","781260","0.0-157.0-0.0","CAN_143","143","","","","","","645","<button class=""jspsych-btn""><img src=""stimuli/mustard.png"" style=""width: 200px;height: 200px;""></button>","1","mustard","lightred","[""mustard"",""lightred"",""low nameability""]","right-left","[""lightred"",""mustard""]","5","low nameability","42","right","response","1"
"html-audio-button-response","203","781462","0.0-157.0-1.0","CAN_143","143","","","","","","null","stimuli/bleep.m4a","null","mustard","lightred","[""mustard"",""lightred"",""low nameability""]","right-left","[""lightred"",""mustard""]","5","low nameability","42","right","audio_feedback","1"
"html-button-response","204","781983","0.0-158.0","CAN_143","143","","","","","","null","<button class=""jspsych-btn""><img src=""stimuli/white_square.png"" style=""width: 200px;height: 200px;""></button>","null","mustard","lightred","[""mustard"",""lightred"",""low nameability""]","right-left","[""lightred"",""mustard""]","5","low nameability","42","right","iti",""
"html-button-response","205","782329","0.0-159.0","CAN_143","143","","","","","","329","","0","brown","yellow","[""brown"",""yellow"",""high nameability""]","right-left","[""yellow"",""brown""]","5","high nameability","43","right","trigger",""
"html-button-response","206","783041","0.0-160.0-0.0","CAN_143","143","","","","","","704","<button class=""jspsych-btn""><img src=""stimuli/brown.png"" style=""width: 200px;height: 200px;""></button>","1","brown","yellow","[""brown"",""yellow"",""high nameability""]","right-left","[""yellow"",""brown""]","5","high nameability","43","right","response","1"
"html-audio-button-response","207","783245","0.0-160.0-1.0","CAN_143","143","","","","","","null","stimuli/bleep.m4a","null","brown","yellow","[""brown"",""yellow"",""high nameability""]","right-left","[""yellow"",""brown""]","5","high nameability","43","right","audio_feedback","1"
"html-button-response","208","783762","0.0-161.0","CAN_143","143","","","","","","null","<button class=""jspsych-btn""><img src=""stimuli/white_square.png"" style=""width: 200px;height: 200px;""></button>","null","brown","yellow","[""brown"",""yellow"",""high nameability""]","right-left","[""yellow"",""brown""]","5","high nameability","43","right","iti",""
"html-button-response","209","784164","0.0-162.0","CAN_143","143","","","","","","388","","0","mustard","pink","[""mustard"",""pink"",""low nameability""]","left-right","[""mustard"",""pink"",""low nameability""]","5","low nameability","44","left","trigger",""
"html-button-response","210","784774","0.0-163.0-0.0","CAN_143","143","","","","","","604","<button class=""jspsych-btn""><img src=""stimuli/mustard.png"" style=""width: 200px;height: 200px;""></button>","0","mustard","pink","[""mustard"",""pink"",""low nameability""]","left-right","[""mustard"",""pink"",""low nameability""]","5","low nameability","44","left","response","1"
"html-audio-button-response","211","784978","0.0-163.0-1.0","CAN_143","143","","","","","","null","stimuli/bleep.m4a","null","mustard","pink","[""mustard"",""pink"",""low nameability""]","left-right","[""mustard"",""pink"",""low nameability""]","5","low nameability","44","left","audio_feedback","1"
"html-button-response","212","785494","0.0-164.0","CAN_143","143","","","","","","null","<button class=""jspsych-btn""><img src=""stimuli/white_square.png"" style=""width: 200px;height: 200px;""></button>","null","mustard","pink","[""mustard"",""pink"",""low nameability""]","left-right","[""mustard"",""pink"",""low nameability""]","5","low nameability","44","left","iti",""
"html-button-response","213","785950","0.0-165.0","CAN_143","143","","","","","","438","","0","darkgreenblue","mustard","[""darkgreenblue"",""mustard"",""low nameability""]","left-right","[""darkgreenblue"",""mustard"",""low nameability""]","5","low nameability","45","left","trigger",""
"html-button-response","214","786629","0.0-166.0-0.0","CAN_143","143","","","","","","674","<button class=""jspsych-btn""><img src=""stimuli/darkgreenblue.png"" style=""width: 200px;height: 200px;""></button>","0","darkgreenblue","mustard","[""darkgreenblue"",""mustard"",""low nameability""]","left-right","[""darkgreenblue"",""mustard"",""low nameability""]","5","low nameability","45","left","response","1"
"html-audio-button-response","215","786835","0.0-166.0-1.0","CAN_143","143","","","","","","null","stimuli/bleep.m4a","null","darkgreenblue","mustard","[""darkgreenblue"",""mustard"",""low nameability""]","left-right","[""darkgreenblue"",""mustard"",""low nameability""]","5","low nameability","45","left","audio_feedback","1"
"html-button-response","216","787351","0.0-167.0","CAN_143","143","","","","","","null","<button class=""jspsych-btn""><img src=""stimuli/white_square.png"" style=""width: 200px;height: 200px;""></button>","null","darkgreenblue","mustard","[""darkgreenblue"",""mustard"",""low nameability""]","left-right","[""darkgreenblue"",""mustard"",""low nameability""]","5","low nameability","45","left","iti",""
"html-button-response","217","787665","0.0-168.0","CAN_143","143","","","","","","299","","0","yellow","brown","[""yellow"",""brown"",""high nameability""]","right-left","[""brown"",""yellow""]","5","high nameability","46","right","trigger",""
"html-button-response","218","788269","0.0-169.0-0.0","CAN_143","143","","","","","","596","<button class=""jspsych-btn""><img src=""stimuli/yellow.png"" style=""width: 200px;height: 200px;""></button>","1","yellow","brown","[""yellow"",""brown"",""high nameability""]","right-left","[""brown"",""yellow""]","5","high nameability","46","right","response","1"
"html-audio-button-response","219","788473","0.0-169.0-1.0","CAN_143","143","","","","","","null","stimuli/bleep.m4a","null","yellow","brown","[""yellow"",""brown"",""high nameability""]","right-left","[""brown"",""yellow""]","5","high nameability","46","right","audio_feedback","1"
"html-button-response","220","788990","0.0-170.0","CAN_143","143","","","","","","null","<button class=""jspsych-btn""><img src=""stimuli/white_square.png"" style=""width: 200px;height: 200px;""></button>","null","yellow","brown","[""yellow"",""brown"",""high nameability""]","right-left","[""brown"",""yellow""]","5","high nameability","46","right","iti",""
"html-button-response","221","789411","0.0-171.0","CAN_143","143","","","","","","404","","0","lightred","turquoise","[""lightred"",""turquoise"",""low nameability""]","right-left","[""turquoise"",""lightred""]","5","low nameability","47","right","trigger",""
"html-button-response","222","790041","0.0-172.0-0.0","CAN_143","143","","","","","","621","<button class=""jspsych-btn""><img src=""stimuli/lightred.png"" style=""width: 200px;height: 200px;""></button>","1","lightred","turquoise","[""lightred"",""turquoise"",""low nameability""]","right-left","[""turquoise"",""lightred""]","5","low nameability","47","right","response","1"
"html-audio-button-response","223","790245","0.0-172.0-1.0","CAN_143","143","","","","","","null","stimuli/bleep.m4a","null","lightred","turquoise","[""lightred"",""turquoise"",""low nameability""]","right-left","[""turquoise"",""lightred""]","5","low nameability","47","right","audio_feedback","1"
"html-button-response","224","790765","0.0-173.0","CAN_143","143","","","","","","null","<button class=""jspsych-btn""><img src=""stimuli/white_square.png"" style=""width: 200px;height: 200px;""></button>","null","lightred","turquoise","[""lightred"",""turquoise"",""low nameability""]","right-left","[""turquoise"",""lightred""]","5","low nameability","47","right","iti",""
"html-button-response","225","791157","0.0-174.0","CAN_143","143","","","","","","376","","0","lightred","darkgreenblue","[""lightred"",""darkgreenblue"",""low nameability""]","right-left","[""darkgreenblue"",""lightred""]","5","low nameability","48","right","trigger",""
"html-button-response","226","791786","0.0-175.0-0.0","CAN_143","143","","","","","","622","<button class=""jspsych-btn""><img src=""stimuli/lightred.png"" style=""width: 200px;height: 200px;""></button>","1","lightred","darkgreenblue","[""lightred"",""darkgreenblue"",""low nameability""]","right-left","[""darkgreenblue"",""lightred""]","5","low nameability","48","right","response","1"
"html-audio-button-response","227","791995","0.0-175.0-1.0","CAN_143","143","","","","","","null","stimuli/bleep.m4a","null","lightred","darkgreenblue","[""lightred"",""darkgreenblue"",""low nameability""]","right-left","[""darkgreenblue"",""lightred""]","5","low nameability","48","right","audio_feedback","1"
"html-button-response","228","792514","0.0-176.0","CAN_143","143","","","","","","null","<button class=""jspsych-btn""><img src=""stimuli/white_square.png"" style=""width: 200px;height: 200px;""></button>","null","lightred","darkgreenblue","[""lightred"",""darkgreenblue"",""low nameability""]","right-left","[""darkgreenblue"",""lightred""]","5","low nameability","48","right","iti",""
"html-button-response","229","792918","0.0-177.0","CAN_143","143","","","","","","387","","0","blue","red","[""blue"",""red"",""high nameability""]","left-right","[""blue"",""red"",""high nameability""]","5","high nameability","49","left","trigger",""
"html-button-response","230","793625","0.0-178.0-0.0","CAN_143","143","","","","","","701","<button class=""jspsych-btn""><img src=""stimuli/blue.png"" style=""width: 200px;height: 200px;""></button>","0","blue","red","[""blue"",""red"",""high nameability""]","left-right","[""blue"",""red"",""high nameability""]","5","high nameability","49","left","response","1"
"html-audio-button-response","231","793830","0.0-178.0-1.0","CAN_143","143","","","","","","null","stimuli/bleep.m4a","null","blue","red","[""blue"",""red"",""high nameability""]","left-right","[""blue"",""red"",""high nameability""]","5","high nameability","49","left","audio_feedback","1"
"html-button-response","232","794346","0.0-179.0","CAN_143","143","","","","","","null","<button class=""jspsych-btn""><img src=""stimuli/white_square.png"" style=""width: 200px;height: 200px;""></button>","null","blue","red","[""blue"",""red"",""high nameability""]","left-right","[""blue"",""red"",""high nameability""]","5","high nameability","49","left","iti",""
"html-button-response","233","794771","0.0-180.0","CAN_143","143","","","","","","398","","0","brown","red","[""brown"",""red"",""high nameability""]","left-right","[""brown"",""red"",""high nameability""]","5","high nameability","50","left","trigger",""
"html-button-response","234","795522","0.0-181.0-0.0","CAN_143","143","","","","","","745","<button class=""jspsych-btn""><img src=""stimuli/brown.png"" style=""width: 200px;height: 200px;""></button>","0","brown","red","[""brown"",""red"",""high nameability""]","left-right","[""brown"",""red"",""high nameability""]","5","high nameability","50","left","response","1"
"html-audio-button-response","235","795726","0.0-181.0-1.0","CAN_143","143","","","","","","null","stimuli/bleep.m4a","null","brown","red","[""brown"",""red"",""high nameability""]","left-right","[""brown"",""red"",""high nameability""]","5","high nameability","50","left","audio_feedback","1"
"html-button-response","236","796254","0.0-182.0","CAN_143","143","","","","","","null","<button class=""jspsych-btn""><img src=""stimuli/white_square.png"" style=""width: 200px;height: 200px;""></button>","null","brown","red","[""brown"",""red"",""high nameability""]","left-right","[""brown"",""red"",""high nameability""]","5","high nameability","50","left","iti",""
"pavlovia","237","796291","0.0-183.0","CAN_143","143","","","","","","","","","","","","","","","","","","",""
"pavlovia","238","796298","0.0-184.0","CAN_143","143","","","","","","","","","","","","","","","","","","",""
"html-audio-button-response","239","798123","0.0-185.0","CAN_143","143","","","","","","1875","stimuli/tada.m4a","0","","","","","","","","","","",""
"html-button-response","240","798976","0.0-186.0","CAN_143","143","","","","","","849","","0","","","","","","","","","","",""
"html-button-response","241","799682","0.0-187.0","CAN_143","143","","","","","","698","","0","brown","orange","[""brown"",""orange"",""high nameability""]","right-left","[""orange"",""brown""]","6","high nameability","51","right","trigger",""
"html-button-response","242","800392","0.0-188.0-0.0","CAN_143","143","","","","","","703","<button class=""jspsych-btn""><img src=""stimuli/brown.png"" style=""width: 200px;height: 200px;""></button>","1","brown","orange","[""brown"",""orange"",""high nameability""]","right-left","[""orange"",""brown""]","6","high nameability","51","right","response","1"
"html-audio-button-response","243","800593","0.0-188.0-1.0","CAN_143","143","","","","","","null","stimuli/bleep.m4a","null","brown","orange","[""brown"",""orange"",""high nameability""]","right-left","[""orange"",""brown""]","6","high nameability","51","right","audio_feedback","1"
"html-button-response","244","801109","0.0-189.0","CAN_143","143","","","","","","null","<button class=""jspsych-btn""><img src=""stimuli/white_square.png"" style=""width: 200px;height: 200px;""></button>","null","brown","orange","[""brown"",""orange"",""high nameability""]","right-left","[""orange"",""brown""]","6","high nameability","51","right","iti",""
"html-button-response","245","801583","0.0-190.0","CAN_143","143","","","","","","458","","0","turquoise","pink","[""turquoise"",""pink"",""low nameability""]","left-right","[""turquoise"",""pink"",""low nameability""]","6","low nameability","52","left","trigger",""
"html-button-response","246","802279","0.0-191.0-0.0","CAN_143","143","","","","","","689","<button class=""jspsych-btn""><img src=""stimuli/turquoise.png"" style=""width: 200px;height: 200px;""></button>","0","turquoise","pink","[""turquoise"",""pink"",""low nameability""]","left-right","[""turquoise"",""pink"",""low nameability""]","6","low nameability","52","left","response","1"
"html-audio-button-response","247","802486","0.0-191.0-1.0","CAN_143","143","","","","","","null","stimuli/bleep.m4a","null","turquoise","pink","[""turquoise"",""pink"",""low nameability""]","left-right","[""turquoise"",""pink"",""low nameability""]","6","low nameability","52","left","audio_feedback","1"
"html-button-response","248","803005","0.0-192.0","CAN_143","143","","","","","","null","<button class=""jspsych-btn""><img src=""stimuli/white_square.png"" style=""width: 200px;height: 200px;""></button>","null","turquoise","pink","[""turquoise"",""pink"",""low nameability""]","left-right","[""turquoise"",""pink"",""low nameability""]","6","low nameability","52","left","iti",""
"html-button-response","249","803362","0.0-193.0","CAN_143","143","","","","","","342","","0","lightred","mustard","[""lightred"",""mustard"",""low nameability""]","left-right","[""lightred"",""mustard"",""low nameability""]","6","low nameability","53","left","trigger",""
"html-button-response","250","804018","0.0-194.0-0.0","CAN_143","143","","","","","","648","<button class=""jspsych-btn""><img src=""stimuli/lightred.png"" style=""width: 200px;height: 200px;""></button>","0","lightred","mustard","[""lightred"",""mustard"",""low nameability""]","left-right","[""lightred"",""mustard"",""low nameability""]","6","low nameability","53","left","response","1"
"html-audio-button-response","251","804221","0.0-194.0-1.0","CAN_143","143","","","","","","null","stimuli/bleep.m4a","null","lightred","mustard","[""lightred"",""mustard"",""low nameability""]","left-right","[""lightred"",""mustard"",""low nameability""]","6","low nameability","53","left","audio_feedback","1"
"html-button-response","252","804744","0.0-195.0","CAN_143","143","","","","","","null","<button class=""jspsych-btn""><img src=""stimuli/white_square.png"" style=""width: 200px;height: 200px;""></button>","null","lightred","mustard","[""lightred"",""mustard"",""low nameability""]","left-right","[""lightred"",""mustard"",""low nameability""]","6","low nameability","53","left","iti",""
"html-button-response","253","805062","0.0-196.0","CAN_143","143","","","","","","300","","0","orange","purple","[""orange"",""purple"",""high nameability""]","right-left","[""purple"",""orange""]","6","high nameability","54","right","trigger",""
"html-button-response","254","805695","0.0-197.0-0.0","CAN_143","143","","","","","","626","<button class=""jspsych-btn""><img src=""stimuli/orange.png"" style=""width: 200px;height: 200px;""></button>","1","orange","purple","[""orange"",""purple"",""high nameability""]","right-left","[""purple"",""orange""]","6","high nameability","54","right","response","1"
"html-audio-button-response","255","805896","0.0-197.0-1.0","CAN_143","143","","","","","","null","stimuli/bleep.m4a","null","orange","purple","[""orange"",""purple"",""high nameability""]","right-left","[""purple"",""orange""]","6","high nameability","54","right","audio_feedback","1"
"html-button-response","256","806410","0.0-198.0","CAN_143","143","","","","","","null","<button class=""jspsych-btn""><img src=""stimuli/white_square.png"" style=""width: 200px;height: 200px;""></button>","null","orange","purple","[""orange"",""purple"",""high nameability""]","right-left","[""purple"",""orange""]","6","high nameability","54","right","iti",""
"html-button-response","257","806836","0.0-199.0","CAN_143","143","","","","","","410","","0","purple","yellow","[""purple"",""yellow"",""high nameability""]","right-left","[""yellow"",""purple""]","6","high nameability","55","right","trigger",""
"html-button-response","258","807413","0.0-200.0-0.0","CAN_143","143","","","","","","569","<button class=""jspsych-btn""><img src=""stimuli/purple.png"" style=""width: 200px;height: 200px;""></button>","1","purple","yellow","[""purple"",""yellow"",""high nameability""]","right-left","[""yellow"",""purple""]","6","high nameability","55","right","response","1"
"html-audio-button-response","259","807618","0.0-200.0-1.0","CAN_143","143","","","","","","null","stimuli/bleep.m4a","null","purple","yellow","[""purple"",""yellow"",""high nameability""]","right-left","[""yellow"",""purple""]","6","high nameability","55","right","audio_feedback","1"
"html-button-response","260","808135","0.0-201.0","CAN_143","143","","","","","","null","<button class=""jspsych-btn""><img src=""stimuli/white_square.png"" style=""width: 200px;height: 200px;""></button>","null","purple","yellow","[""purple"",""yellow"",""high nameability""]","right-left","[""yellow"",""purple""]","6","high nameability","55","right","iti",""
"html-button-response","261","808507","0.0-202.0","CAN_143","143","","","","","","355","","0","orange","brown","[""orange"",""brown"",""high nameability""]","left-right","[""orange"",""brown"",""high nameability""]","6","high nameability","56","left","trigger",""
"html-button-response","262","809162","0.0-203.0-0.0","CAN_143","143","","","","","","647","<button class=""jspsych-btn""><img src=""stimuli/orange.png"" style=""width: 200px;height: 200px;""></button>","0","orange","brown","[""orange"",""brown"",""high nameability""]","left-right","[""orange"",""brown"",""high nameability""]","6","high nameability","56","left","response","1"
"html-audio-button-response","263","809366","0.0-203.0-1.0","CAN_143","143","","","","","","null","stimuli/bleep.m4a","null","orange","brown","[""orange"",""brown"",""high nameability""]","left-right","[""orange"",""brown"",""high nameability""]","6","high nameability","56","left","audio_feedback","1"
"html-button-response","264","809889","0.0-204.0","CAN_143","143","","","","","","null","<button class=""jspsych-btn""><img src=""stimuli/white_square.png"" style=""width: 200px;height: 200px;""></button>","null","orange","brown","[""orange"",""brown"",""high nameability""]","left-right","[""orange"",""brown"",""high nameability""]","6","high nameability","56","left","iti",""
"html-button-response","265","810280","0.0-205.0","CAN_143","143","","","","","","370","","0","darkgreenblue","lightred","[""darkgreenblue"",""lightred"",""low nameability""]","right-left","[""lightred"",""darkgreenblue""]","6","low nameability","57","right","trigger",""
"html-button-response","266","810958","0.0-206.0-0.0","CAN_143","143","","","","","","670","<button class=""jspsych-btn""><img src=""stimuli/darkgreenblue.png"" style=""width: 200px;height: 200px;""></button>","1","darkgreenblue","lightred","[""darkgreenblue"",""lightred"",""low nameability""]","right-left","[""lightred"",""darkgreenblue""]","6","low nameability","57","right","response","1"
"html-audio-button-response","267","811163","0.0-206.0-1.0","CAN_143","143","","","","","","null","stimuli/bleep.m4a","null","darkgreenblue","lightred","[""darkgreenblue"",""lightred"",""low nameability""]","right-left","[""lightred"",""darkgreenblue""]","6","low nameability","57","right","audio_feedback","1"
"html-button-response","268","811681","0.0-207.0","CAN_143","143","","","","","","null","<button class=""jspsych-btn""><img src=""stimuli/white_square.png"" style=""width: 200px;height: 200px;""></button>","null","darkgreenblue","lightred","[""darkgreenblue"",""lightred"",""low nameability""]","right-left","[""lightred"",""darkgreenblue""]","6","low nameability","57","right","iti",""
"html-button-response","269","812536","0.0-208.0","CAN_143","143","","","","","","838","","0","purple","orange","[""purple"",""orange"",""high nameability""]","left-right","[""purple"",""orange"",""high nameability""]","6","high nameability","58","left","trigger",""
"html-button-response","270","813190","0.0-209.0-0.0","CAN_143","143","","","","","","647","<button class=""jspsych-btn""><img src=""stimuli/purple.png"" style=""width: 200px;height: 200px;""></button>","0","purple","orange","[""purple"",""orange"",""high nameability""]","left-right","[""purple"",""orange"",""high nameability""]","6","high nameability","58","left","response","1"
"html-audio-button-response","271","813394","0.0-209.0-1.0","CAN_143","143","","","","","","null","stimuli/bleep.m4a","null","purple","orange","[""purple"",""orange"",""high nameability""]","left-right","[""purple"",""orange"",""high nameability""]","6","high nameability","58","left","audio_feedback","1"
"html-button-response","272","813915","0.0-210.0","CAN_143","143","","","","","","null","<button class=""jspsych-btn""><img src=""stimuli/white_square.png"" style=""width: 200px;height: 200px;""></button>","null","purple","orange","[""purple"",""orange"",""high nameability""]","left-right","[""purple"",""orange"",""high nameability""]","6","high nameability","58","left","iti",""
"html-button-response","273","814291","0.0-211.0","CAN_143","143","","","","","","356","","0","yellow","orange","[""yellow"",""orange"",""high nameability""]","right-left","[""orange"",""yellow""]","6","high nameability","59","right","trigger",""
"html-button-response","274","814935","0.0-212.0-0.0","CAN_143","143","","","","","","635","<button class=""jspsych-btn""><img src=""stimuli/yellow.png"" style=""width: 200px;height: 200px;""></button>","1","yellow","orange","[""yellow"",""orange"",""high nameability""]","right-left","[""orange"",""yellow""]","6","high nameability","59","right","response","1"
"html-audio-button-response","275","815139","0.0-212.0-1.0","CAN_143","143","","","","","","null","stimuli/bleep.m4a","null","yellow","orange","[""yellow"",""orange"",""high nameability""]","right-left","[""orange"",""yellow""]","6","high nameability","59","right","audio_feedback","1"
"html-button-response","276","815656","0.0-213.0","CAN_143","143","","","","","","null","<button class=""jspsych-btn""><img src=""stimuli/white_square.png"" style=""width: 200px;height: 200px;""></button>","null","yellow","orange","[""yellow"",""orange"",""high nameability""]","right-left","[""orange"",""yellow""]","6","high nameability","59","right","iti",""
"html-button-response","277","816178","0.0-214.0","CAN_143","143","","","","","","504","","0","red","brown","[""red"",""brown"",""high nameability""]","right-left","[""brown"",""red""]","6","high nameability","60","right","trigger",""
"html-button-response","278","816826","0.0-215.0-0.0","CAN_143","143","","","","","","642","<button class=""jspsych-btn""><img src=""stimuli/red.png"" style=""width: 200px;height: 200px;""></button>","1","red","brown","[""red"",""brown"",""high nameability""]","right-left","[""brown"",""red""]","6","high nameability","60","right","response","1"
"html-audio-button-response","279","817029","0.0-215.0-1.0","CAN_143","143","","","","","","null","stimuli/bleep.m4a","null","red","brown","[""red"",""brown"",""high nameability""]","right-left","[""brown"",""red""]","6","high nameability","60","right","audio_feedback","1"
"html-button-response","280","817552","0.0-216.0","CAN_143","143","","","","","","null","<button class=""jspsych-btn""><img src=""stimuli/white_square.png"" style=""width: 200px;height: 200px;""></button>","null","red","brown","[""red"",""brown"",""high nameability""]","right-left","[""brown"",""red""]","6","high nameability","60","right","iti",""
