"trial_type","trial_index","time_elapsed","internal_node_id","subject_id","seed","success","timeout","failed_images","failed_audio","failed_video","rt","stimulus","response","target","foil","choices","combination_order","choices_in_order","round","condition","trial_counter","target_location","trial_kind","correct"
"pavlovia","0","20","0.0-0.0","CAN_124","124","","","","","","","","","","","","","","","","","","",""
"preload","1","1821","0.0-1.0","CAN_124","124","true","false","[]","[]","[]","","","","","","","","","","","","","",""
"fullscreen","2","1307354","0.0-2.0","CAN_124","124","true","","","","","","","","","","","","","","","","","",""
"html-button-response","3","1378655","0.0-3.0","CAN_124","124","","","","","","71275","","0","","","","","","","","","","",""
"html-button-response","4","1383438","0.0-4.0","CAN_124","124","","","","","","4767","","0","star","square","[""square"",""star""]","left-right","[""square"",""star""]","1","practice","1","right","trigger",""
"html-button-response","5","1387353","0.0-5.0-0.0","CAN_124","124","","","","","","3897","<button class=""jspsych-btn""><img src=""stimuli/star.png"" style=""width: 200px;height: 200px;""></button>","1","star","square","[""square"",""star""]","left-right","[""square"",""star""]","1","practice","1","right","response","1"
"html-audio-button-response","6","1387564","0.0-5.0-1.0","CAN_124","124","","","","","","null","stimuli/bleep.m4a","null","star","square","[""square"",""star""]","left-right","[""square"",""star""]","1","practice","1","right","audio_feedback","1"
"html-button-response","7","1388101","0.0-6.0","CAN_124","124","","","","","","null","<button class=""jspsych-btn""><img src=""stimuli/white_square.png"" style=""width: 200px;height: 200px;""></button>","null","star","square","[""square"",""star""]","left-right","[""square"",""star""]","1","practice","1","right","iti",""
"html-button-response","8","1389736","0.0-7.0","CAN_124","124","","","","","","1610","","0","triangle","pentagram","[""triangle"",""pentagram""]","left-right","[""triangle"",""pentagram""]","1","practice","1","left","trigger",""
"html-button-response","9","1391023","0.0-8.0-0.0","CAN_124","124","","","","","","1275","<button class=""jspsych-btn""><img src=""stimuli/triangle.png"" style=""width: 200px;height: 200px;""></button>","0","triangle","pentagram","[""triangle"",""pentagram""]","left-right","[""triangle"",""pentagram""]","1","practice","1","left","response","1"
"html-audio-button-response","10","1391238","0.0-8.0-1.0","CAN_124","124","","","","","","null","stimuli/bleep.m4a","null","triangle","pentagram","[""triangle"",""pentagram""]","left-right","[""triangle"",""pentagram""]","1","practice","1","left","audio_feedback","1"
"html-button-response","11","1391762","0.0-9.0","CAN_124","124","","","","","","null","<button class=""jspsych-btn""><img src=""stimuli/white_square.png"" style=""width: 200px;height: 200px;""></button>","null","triangle","pentagram","[""triangle"",""pentagram""]","left-right","[""triangle"",""pentagram""]","1","practice","1","left","iti",""
"html-button-response","12","1392837","0.0-10.0","CAN_124","124","","","","","","1053","","0","diamond","rectangle","[""rectangle"",""diamond""]","left-right","[""rectangle"",""diamond""]","1","practice","1","right","trigger",""
"html-button-response","13","1393799","0.0-11.0-0.0","CAN_124","124","","","","","","954","<button class=""jspsych-btn""><img src=""stimuli/diamond.png"" style=""width: 200px;height: 200px;""></button>","1","diamond","rectangle","[""rectangle"",""diamond""]","left-right","[""rectangle"",""diamond""]","1","practice","1","right","response","1"
"html-audio-button-response","14","1394005","0.0-11.0-1.0","CAN_124","124","","","","","","null","stimuli/bleep.m4a","null","diamond","rectangle","[""rectangle"",""diamond""]","left-right","[""rectangle"",""diamond""]","1","practice","1","right","audio_feedback","1"
"html-button-response","15","1394529","0.0-12.0","CAN_124","124","","","","","","null","<button class=""jspsych-btn""><img src=""stimuli/white_square.png"" style=""width: 200px;height: 200px;""></button>","null","diamond","rectangle","[""rectangle"",""diamond""]","left-right","[""rectangle"",""diamond""]","1","practice","1","right","iti",""
"html-button-response","16","1395571","0.0-13.0","CAN_124","124","","","","","","1019","","0","pentagram","star","[""pentagram"",""star""]","left-right","[""pentagram"",""star""]","1","practice","1","left","trigger",""
"html-button-response","17","1396626","0.0-14.0-0.0","CAN_124","124","","","","","","1046","<button class=""jspsych-btn""><img src=""stimuli/pentagram.png"" style=""width: 200px;height: 200px;""></button>","0","pentagram","star","[""pentagram"",""star""]","left-right","[""pentagram"",""star""]","1","practice","1","left","response","1"
"html-audio-button-response","18","1396833","0.0-14.0-1.0","CAN_124","124","","","","","","null","stimuli/bleep.m4a","null","pentagram","star","[""pentagram"",""star""]","left-right","[""pentagram"",""star""]","1","practice","1","left","audio_feedback","1"
"html-button-response","19","1397361","0.0-15.0","CAN_124","124","","","","","","null","<button class=""jspsych-btn""><img src=""stimuli/white_square.png"" style=""width: 200px;height: 200px;""></button>","null","pentagram","star","[""pentagram"",""star""]","left-right","[""pentagram"",""star""]","1","practice","1","left","iti",""
"html-button-response","20","1412272","0.0-16.0","CAN_124","124","","","","","","14893","","0","","","","","","","","","","",""
"html-button-response","21","1412990","0.0-17.0","CAN_124","124","","","","","","704","","0","blue","orange","[""blue"",""orange"",""high nameability""]","left-right","[""blue"",""orange"",""high nameability""]","1","high nameability","1","left","trigger",""
"html-button-response","22","1413651","0.0-18.0-0.0","CAN_124","124","","","","","","655","<button class=""jspsych-btn""><img src=""stimuli/blue.png"" style=""width: 200px;height: 200px;""></button>","0","blue","orange","[""blue"",""orange"",""high nameability""]","left-right","[""blue"",""orange"",""high nameability""]","1","high nameability","1","left","response","1"
"html-audio-button-response","23","1413855","0.0-18.0-1.0","CAN_124","124","","","","","","null","stimuli/bleep.m4a","null","blue","orange","[""blue"",""orange"",""high nameability""]","left-right","[""blue"",""orange"",""high nameability""]","1","high nameability","1","left","audio_feedback","1"
"html-button-response","24","1414371","0.0-19.0","CAN_124","124","","","","","","null","<button class=""jspsych-btn""><img src=""stimuli/white_square.png"" style=""width: 200px;height: 200px;""></button>","null","blue","orange","[""blue"",""orange"",""high nameability""]","left-right","[""blue"",""orange"",""high nameability""]","1","high nameability","1","left","iti",""
"html-button-response","25","1414934","0.0-20.0","CAN_124","124","","","","","","546","","0","brown","yellow","[""brown"",""yellow"",""high nameability""]","right-left","[""yellow"",""brown""]","1","high nameability","2","right","trigger",""
"html-button-response","26","1415750","0.0-21.0-0.0","CAN_124","124","","","","","","809","<button class=""jspsych-btn""><img src=""stimuli/brown.png"" style=""width: 200px;height: 200px;""></button>","1","brown","yellow","[""brown"",""yellow"",""high nameability""]","right-left","[""yellow"",""brown""]","1","high nameability","2","right","response","1"
"html-audio-button-response","27","1415955","0.0-21.0-1.0","CAN_124","124","","","","","","null","stimuli/bleep.m4a","null","brown","yellow","[""brown"",""yellow"",""high nameability""]","right-left","[""yellow"",""brown""]","1","high nameability","2","right","audio_feedback","1"
"html-button-response","28","1416487","0.0-22.0","CAN_124","124","","","","","","null","<button class=""jspsych-btn""><img src=""stimuli/white_square.png"" style=""width: 200px;height: 200px;""></button>","null","brown","yellow","[""brown"",""yellow"",""high nameability""]","right-left","[""yellow"",""brown""]","1","high nameability","2","right","iti",""
"html-button-response","29","1417039","0.0-23.0","CAN_124","124","","","","","","530","","0","darkgreenblue","turquoise","[""darkgreenblue"",""turquoise"",""low nameability""]","left-right","[""darkgreenblue"",""turquoise"",""low nameability""]","1","low nameability","3","left","trigger",""
"html-button-response","30","1417653","0.0-24.0-0.0","CAN_124","124","","","","","","607","<button class=""jspsych-btn""><img src=""stimuli/darkgreenblue.png"" style=""width: 200px;height: 200px;""></button>","0","darkgreenblue","turquoise","[""darkgreenblue"",""turquoise"",""low nameability""]","left-right","[""darkgreenblue"",""turquoise"",""low nameability""]","1","low nameability","3","left","response","1"
"html-audio-button-response","31","1417859","0.0-24.0-1.0","CAN_124","124","","","","","","null","stimuli/bleep.m4a","null","darkgreenblue","turquoise","[""darkgreenblue"",""turquoise"",""low nameability""]","left-right","[""darkgreenblue"",""turquoise"",""low nameability""]","1","low nameability","3","left","audio_feedback","1"
"html-button-response","32","1418372","0.0-25.0","CAN_124","124","","","","","","null","<button class=""jspsych-btn""><img src=""stimuli/white_square.png"" style=""width: 200px;height: 200px;""></button>","null","darkgreenblue","turquoise","[""darkgreenblue"",""turquoise"",""low nameability""]","left-right","[""darkgreenblue"",""turquoise"",""low nameability""]","1","low nameability","3","left","iti",""
"html-button-response","33","1418986","0.0-26.0","CAN_124","124","","","","","","596","","0","brown","blue","[""brown"",""blue"",""high nameability""]","right-left","[""blue"",""brown""]","1","high nameability","4","right","trigger",""
"html-button-response","34","1419830","0.0-27.0-0.0","CAN_124","124","","","","","","835","<button class=""jspsych-btn""><img src=""stimuli/brown.png"" style=""width: 200px;height: 200px;""></button>","1","brown","blue","[""brown"",""blue"",""high nameability""]","right-left","[""blue"",""brown""]","1","high nameability","4","right","response","1"
"html-audio-button-response","35","1420038","0.0-27.0-1.0","CAN_124","124","","","","","","null","stimuli/bleep.m4a","null","brown","blue","[""brown"",""blue"",""high nameability""]","right-left","[""blue"",""brown""]","1","high nameability","4","right","audio_feedback","1"
"html-button-response","36","1420561","0.0-28.0","CAN_124","124","","","","","","null","<button class=""jspsych-btn""><img src=""stimuli/white_square.png"" style=""width: 200px;height: 200px;""></button>","null","brown","blue","[""brown"",""blue"",""high nameability""]","right-left","[""blue"",""brown""]","1","high nameability","4","right","iti",""
"html-button-response","37","1421154","0.0-29.0","CAN_124","124","","","","","","573","","0","blue","purple","[""blue"",""purple"",""high nameability""]","left-right","[""blue"",""purple"",""high nameability""]","1","high nameability","5","left","trigger",""
"html-button-response","38","1421770","0.0-30.0-0.0","CAN_124","124","","","","","","608","<button class=""jspsych-btn""><img src=""stimuli/blue.png"" style=""width: 200px;height: 200px;""></button>","0","blue","purple","[""blue"",""purple"",""high nameability""]","left-right","[""blue"",""purple"",""high nameability""]","1","high nameability","5","left","response","1"
"html-audio-button-response","39","1421977","0.0-30.0-1.0","CAN_124","124","","","","","","null","stimuli/bleep.m4a","null","blue","purple","[""blue"",""purple"",""high nameability""]","left-right","[""blue"",""purple"",""high nameability""]","1","high nameability","5","left","audio_feedback","1"
"html-button-response","40","1422496","0.0-31.0","CAN_124","124","","","","","","null","<button class=""jspsych-btn""><img src=""stimuli/white_square.png"" style=""width: 200px;height: 200px;""></button>","null","blue","purple","[""blue"",""purple"",""high nameability""]","left-right","[""blue"",""purple"",""high nameability""]","1","high nameability","5","left","iti",""
"html-button-response","41","1423014","0.0-32.0","CAN_124","124","","","","","","490","","0","lightred","turquoise","[""lightred"",""turquoise"",""low nameability""]","left-right","[""lightred"",""turquoise"",""low nameability""]","1","low nameability","6","left","trigger",""
"html-button-response","42","1423679","0.0-33.0-0.0","CAN_124","124","","","","","","659","<button class=""jspsych-btn""><img src=""stimuli/lightred.png"" style=""width: 200px;height: 200px;""></button>","0","lightred","turquoise","[""lightred"",""turquoise"",""low nameability""]","left-right","[""lightred"",""turquoise"",""low nameability""]","1","low nameability","6","left","response","1"
"html-audio-button-response","43","1423882","0.0-33.0-1.0","CAN_124","124","","","","","","null","stimuli/bleep.m4a","null","lightred","turquoise","[""lightred"",""turquoise"",""low nameability""]","left-right","[""lightred"",""turquoise"",""low nameability""]","1","low nameability","6","left","audio_feedback","1"
"html-button-response","44","1424402","0.0-34.0","CAN_124","124","","","","","","null","<button class=""jspsych-btn""><img src=""stimuli/white_square.png"" style=""width: 200px;height: 200px;""></button>","null","lightred","turquoise","[""lightred"",""turquoise"",""low nameability""]","left-right","[""lightred"",""turquoise"",""low nameability""]","1","low nameability","6","left","iti",""
"html-button-response","45","1424964","0.0-35.0","CAN_124","124","","","","","","553","","0","orange","blue","[""orange"",""blue"",""high nameability""]","left-right","[""orange"",""blue"",""high nameability""]","1","high nameability","7","left","trigger",""
"html-button-response","46","1425571","0.0-36.0-0.0","CAN_124","124","","","","","","598","<button class=""jspsych-btn""><img src=""stimuli/orange.png"" style=""width: 200px;height: 200px;""></button>","0","orange","blue","[""orange"",""blue"",""high nameability""]","left-right","[""orange"",""blue"",""high nameability""]","1","high nameability","7","left","response","1"
"html-audio-button-response","47","1425786","0.0-36.0-1.0","CAN_124","124","","","","","","null","stimuli/bleep.m4a","null","orange","blue","[""orange"",""blue"",""high nameability""]","left-right","[""orange"",""blue"",""high nameability""]","1","high nameability","7","left","audio_feedback","1"
"html-button-response","48","1426309","0.0-37.0","CAN_124","124","","","","","","null","<button class=""jspsych-btn""><img src=""stimuli/white_square.png"" style=""width: 200px;height: 200px;""></button>","null","orange","blue","[""orange"",""blue"",""high nameability""]","left-right","[""orange"",""blue"",""high nameability""]","1","high nameability","7","left","iti",""
"html-button-response","49","1426851","0.0-38.0","CAN_124","124","","","","","","523","","0","neonyellow","turquoise","[""neonyellow"",""turquoise"",""low nameability""]","left-right","[""neonyellow"",""turquoise"",""low nameability""]","1","low nameability","8","left","trigger",""
"html-button-response","50","1427588","0.0-39.0-0.0","CAN_124","124","","","","","","730","<button class=""jspsych-btn""><img src=""stimuli/neonyellow.png"" style=""width: 200px;height: 200px;""></button>","0","neonyellow","turquoise","[""neonyellow"",""turquoise"",""low nameability""]","left-right","[""neonyellow"",""turquoise"",""low nameability""]","1","low nameability","8","left","response","1"
"html-audio-button-response","51","1427791","0.0-39.0-1.0","CAN_124","124","","","","","","null","stimuli/bleep.m4a","null","neonyellow","turquoise","[""neonyellow"",""turquoise"",""low nameability""]","left-right","[""neonyellow"",""turquoise"",""low nameability""]","1","low nameability","8","left","audio_feedback","1"
"html-button-response","52","1428312","0.0-40.0","CAN_124","124","","","","","","null","<button class=""jspsych-btn""><img src=""stimuli/white_square.png"" style=""width: 200px;height: 200px;""></button>","null","neonyellow","turquoise","[""neonyellow"",""turquoise"",""low nameability""]","left-right","[""neonyellow"",""turquoise"",""low nameability""]","1","low nameability","8","left","iti",""
"html-button-response","53","1428899","0.0-41.0","CAN_124","124","","","","","","558","","0","neonyellow","darkgreenblue","[""neonyellow"",""darkgreenblue"",""low nameability""]","right-left","[""darkgreenblue"",""neonyellow""]","1","low nameability","9","right","trigger",""
"html-button-response","54","1429575","0.0-42.0-0.0","CAN_124","124","","","","","","667","<button class=""jspsych-btn""><img src=""stimuli/neonyellow.png"" style=""width: 200px;height: 200px;""></button>","1","neonyellow","darkgreenblue","[""neonyellow"",""darkgreenblue"",""low nameability""]","right-left","[""darkgreenblue"",""neonyellow""]","1","low nameability","9","right","response","1"
"html-audio-button-response","55","1429780","0.0-42.0-1.0","CAN_124","124","","","","","","null","stimuli/bleep.m4a","null","neonyellow","darkgreenblue","[""neonyellow"",""darkgreenblue"",""low nameability""]","right-left","[""darkgreenblue"",""neonyellow""]","1","low nameability","9","right","audio_feedback","1"
"html-button-response","56","1430301","0.0-43.0","CAN_124","124","","","","","","null","<button class=""jspsych-btn""><img src=""stimuli/white_square.png"" style=""width: 200px;height: 200px;""></button>","null","neonyellow","darkgreenblue","[""neonyellow"",""darkgreenblue"",""low nameability""]","right-left","[""darkgreenblue"",""neonyellow""]","1","low nameability","9","right","iti",""
"html-button-response","57","1430881","0.0-44.0","CAN_124","124","","","","","","559","","0","mustard","lightred","[""mustard"",""lightred"",""low nameability""]","right-left","[""lightred"",""mustard""]","1","low nameability","10","right","trigger",""
"html-button-response","58","1431537","0.0-45.0-0.0","CAN_124","124","","","","","","648","<button class=""jspsych-btn""><img src=""stimuli/mustard.png"" style=""width: 200px;height: 200px;""></button>","1","mustard","lightred","[""mustard"",""lightred"",""low nameability""]","right-left","[""lightred"",""mustard""]","1","low nameability","10","right","response","1"
"html-audio-button-response","59","1431744","0.0-45.0-1.0","CAN_124","124","","","","","","null","stimuli/bleep.m4a","null","mustard","lightred","[""mustard"",""lightred"",""low nameability""]","right-left","[""lightred"",""mustard""]","1","low nameability","10","right","audio_feedback","1"
"html-button-response","60","1432260","0.0-46.0","CAN_124","124","","","","","","null","<button class=""jspsych-btn""><img src=""stimuli/white_square.png"" style=""width: 200px;height: 200px;""></button>","null","mustard","lightred","[""mustard"",""lightred"",""low nameability""]","right-left","[""lightred"",""mustard""]","1","low nameability","10","right","iti",""
"pavlovia","61","1432347","0.0-47.0","CAN_124","124","","","","","","","","","","","","","","","","","","",""
"pavlovia","62","1432360","0.0-48.0","CAN_124","124","","","","","","","","","","","","","","","","","","",""
"html-audio-button-response","63","1435952","0.0-49.0","CAN_124","124","","","","","","3683","stimuli/tada.m4a","0","","","","","","","","","","",""
"html-button-response","64","1437436","0.0-50.0","CAN_124","124","","","","","","1477","","0","","","","","","","","","","",""
"html-button-response","65","1438185","0.0-51.0","CAN_124","124","","","","","","742","","0","mustard","turquoise","[""mustard"",""turquoise"",""low nameability""]","right-left","[""turquoise"",""mustard""]","2","low nameability","11","right","trigger",""
"html-button-response","66","1438899","0.0-52.0-0.0","CAN_124","124","","","","","","705","<button class=""jspsych-btn""><img src=""stimuli/mustard.png"" style=""width: 200px;height: 200px;""></button>","1","mustard","turquoise","[""mustard"",""turquoise"",""low nameability""]","right-left","[""turquoise"",""mustard""]","2","low nameability","11","right","response","1"
"html-audio-button-response","67","1439105","0.0-52.0-1.0","CAN_124","124","","","","","","null","stimuli/bleep.m4a","null","mustard","turquoise","[""mustard"",""turquoise"",""low nameability""]","right-left","[""turquoise"",""mustard""]","2","low nameability","11","right","audio_feedback","1"
"html-button-response","68","1439630","0.0-53.0","CAN_124","124","","","","","","null","<button class=""jspsych-btn""><img src=""stimuli/white_square.png"" style=""width: 200px;height: 200px;""></button>","null","mustard","turquoise","[""mustard"",""turquoise"",""low nameability""]","right-left","[""turquoise"",""mustard""]","2","low nameability","11","right","iti",""
"html-button-response","69","1440146","0.0-54.0","CAN_124","124","","","","","","497","","0","neonyellow","pink","[""neonyellow"",""pink"",""low nameability""]","right-left","[""pink"",""neonyellow""]","2","low nameability","12","right","trigger",""
"html-button-response","70","1440773","0.0-55.0-0.0","CAN_124","124","","","","","","622","<button class=""jspsych-btn""><img src=""stimuli/neonyellow.png"" style=""width: 200px;height: 200px;""></button>","1","neonyellow","pink","[""neonyellow"",""pink"",""low nameability""]","right-left","[""pink"",""neonyellow""]","2","low nameability","12","right","response","1"
"html-audio-button-response","71","1440975","0.0-55.0-1.0","CAN_124","124","","","","","","null","stimuli/bleep.m4a","null","neonyellow","pink","[""neonyellow"",""pink"",""low nameability""]","right-left","[""pink"",""neonyellow""]","2","low nameability","12","right","audio_feedback","1"
"html-button-response","72","1441501","0.0-56.0","CAN_124","124","","","","","","null","<button class=""jspsych-btn""><img src=""stimuli/white_square.png"" style=""width: 200px;height: 200px;""></button>","null","neonyellow","pink","[""neonyellow"",""pink"",""low nameability""]","right-left","[""pink"",""neonyellow""]","2","low nameability","12","right","iti",""
"html-button-response","73","1442020","0.0-57.0","CAN_124","124","","","","","","502","","0","purple","brown","[""purple"",""brown"",""high nameability""]","right-left","[""brown"",""purple""]","2","high nameability","13","right","trigger",""
"html-button-response","74","1442649","0.0-58.0-0.0","CAN_124","124","","","","","","624","<button class=""jspsych-btn""><img src=""stimuli/purple.png"" style=""width: 200px;height: 200px;""></button>","1","purple","brown","[""purple"",""brown"",""high nameability""]","right-left","[""brown"",""purple""]","2","high nameability","13","right","response","1"
"html-audio-button-response","75","1442853","0.0-58.0-1.0","CAN_124","124","","","","","","null","stimuli/bleep.m4a","null","purple","brown","[""purple"",""brown"",""high nameability""]","right-left","[""brown"",""purple""]","2","high nameability","13","right","audio_feedback","1"
"html-button-response","76","1443373","0.0-59.0","CAN_124","124","","","","","","null","<button class=""jspsych-btn""><img src=""stimuli/white_square.png"" style=""width: 200px;height: 200px;""></button>","null","purple","brown","[""purple"",""brown"",""high nameability""]","right-left","[""brown"",""purple""]","2","high nameability","13","right","iti",""
"html-button-response","77","1443937","0.0-60.0","CAN_124","124","","","","","","547","","0","yellow","purple","[""yellow"",""purple"",""high nameability""]","left-right","[""yellow"",""purple"",""high nameability""]","2","high nameability","14","left","trigger",""
"html-button-response","78","1444634","0.0-61.0-0.0","CAN_124","124","","","","","","691","<button class=""jspsych-btn""><img src=""stimuli/yellow.png"" style=""width: 200px;height: 200px;""></button>","0","yellow","purple","[""yellow"",""purple"",""high nameability""]","left-right","[""yellow"",""purple"",""high nameability""]","2","high nameability","14","left","response","1"
"html-audio-button-response","79","1444840","0.0-61.0-1.0","CAN_124","124","","","","","","null","stimuli/bleep.m4a","null","yellow","purple","[""yellow"",""purple"",""high nameability""]","left-right","[""yellow"",""purple"",""high nameability""]","2","high nameability","14","left","audio_feedback","1"
"html-button-response","80","1445359","0.0-62.0","CAN_124","124","","","","","","null","<button class=""jspsych-btn""><img src=""stimuli/white_square.png"" style=""width: 200px;height: 200px;""></button>","null","yellow","purple","[""yellow"",""purple"",""high nameability""]","left-right","[""yellow"",""purple"",""high nameability""]","2","high nameability","14","left","iti",""
"html-button-response","81","1445970","0.0-63.0","CAN_124","124","","","","","","596","","0","orange","yellow","[""orange"",""yellow"",""high nameability""]","right-left","[""yellow"",""orange""]","2","high nameability","15","right","trigger",""
"html-button-response","82","1446731","0.0-64.0-0.0","CAN_124","124","","","","","","753","<button class=""jspsych-btn""><img src=""stimuli/orange.png"" style=""width: 200px;height: 200px;""></button>","1","orange","yellow","[""orange"",""yellow"",""high nameability""]","right-left","[""yellow"",""orange""]","2","high nameability","15","right","response","1"
"html-audio-button-response","83","1446937","0.0-64.0-1.0","CAN_124","124","","","","","","null","stimuli/bleep.m4a","null","orange","yellow","[""orange"",""yellow"",""high nameability""]","right-left","[""yellow"",""orange""]","2","high nameability","15","right","audio_feedback","1"
"html-button-response","84","1447458","0.0-65.0","CAN_124","124","","","","","","null","<button class=""jspsych-btn""><img src=""stimuli/white_square.png"" style=""width: 200px;height: 200px;""></button>","null","orange","yellow","[""orange"",""yellow"",""high nameability""]","right-left","[""yellow"",""orange""]","2","high nameability","15","right","iti",""
"html-button-response","85","1448109","0.0-66.0","CAN_124","124","","","","","","621","","0","red","orange","[""red"",""orange"",""high nameability""]","left-right","[""red"",""orange"",""high nameability""]","2","high nameability","16","left","trigger",""
"html-button-response","86","1448726","0.0-67.0-0.0","CAN_124","124","","","","","","609","<button class=""jspsych-btn""><img src=""stimuli/red.png"" style=""width: 200px;height: 200px;""></button>","0","red","orange","[""red"",""orange"",""high nameability""]","left-right","[""red"",""orange"",""high nameability""]","2","high nameability","16","left","response","1"
"html-audio-button-response","87","1448933","0.0-67.0-1.0","CAN_124","124","","","","","","null","stimuli/bleep.m4a","null","red","orange","[""red"",""orange"",""high nameability""]","left-right","[""red"",""orange"",""high nameability""]","2","high nameability","16","left","audio_feedback","1"
"html-button-response","88","1449452","0.0-68.0","CAN_124","124","","","","","","null","<button class=""jspsych-btn""><img src=""stimuli/white_square.png"" style=""width: 200px;height: 200px;""></button>","null","red","orange","[""red"",""orange"",""high nameability""]","left-right","[""red"",""orange"",""high nameability""]","2","high nameability","16","left","iti",""
"html-button-response","89","1450141","0.0-69.0","CAN_124","124","","","","","","668","","0","turquoise","lightred","[""turquoise"",""lightred"",""low nameability""]","right-left","[""lightred"",""turquoise""]","2","low nameability","17","right","trigger",""
"html-button-response","90","1450819","0.0-70.0-0.0","CAN_124","124","","","","","","669","<button class=""jspsych-btn""><img src=""stimuli/turquoise.png"" style=""width: 200px;height: 200px;""></button>","1","turquoise","lightred","[""turquoise"",""lightred"",""low nameability""]","right-left","[""lightred"",""turquoise""]","2","low nameability","17","right","response","1"
"html-audio-button-response","91","1451023","0.0-70.0-1.0","CAN_124","124","","","","","","null","stimuli/bleep.m4a","null","turquoise","lightred","[""turquoise"",""lightred"",""low nameability""]","right-left","[""lightred"",""turquoise""]","2","low nameability","17","right","audio_feedback","1"
"html-button-response","92","1451547","0.0-71.0","CAN_124","124","","","","","","null","<button class=""jspsych-btn""><img src=""stimuli/white_square.png"" style=""width: 200px;height: 200px;""></button>","null","turquoise","lightred","[""turquoise"",""lightred"",""low nameability""]","right-left","[""lightred"",""turquoise""]","2","low nameability","17","right","iti",""
"html-button-response","93","1452031","0.0-72.0","CAN_124","124","","","","","","465","","0","purple","blue","[""purple"",""blue"",""high nameability""]","right-left","[""blue"",""purple""]","2","high nameability","18","right","trigger",""
"html-button-response","94","1452657","0.0-73.0-0.0","CAN_124","124","","","","","","617","<button class=""jspsych-btn""><img src=""stimuli/purple.png"" style=""width: 200px;height: 200px;""></button>","1","purple","blue","[""purple"",""blue"",""high nameability""]","right-left","[""blue"",""purple""]","2","high nameability","18","right","response","1"
"html-audio-button-response","95","1452861","0.0-73.0-1.0","CAN_124","124","","","","","","null","stimuli/bleep.m4a","null","purple","blue","[""purple"",""blue"",""high nameability""]","right-left","[""blue"",""purple""]","2","high nameability","18","right","audio_feedback","1"
"html-button-response","96","1453386","0.0-74.0","CAN_124","124","","","","","","null","<button class=""jspsych-btn""><img src=""stimuli/white_square.png"" style=""width: 200px;height: 200px;""></button>","null","purple","blue","[""purple"",""blue"",""high nameability""]","right-left","[""blue"",""purple""]","2","high nameability","18","right","iti",""
"html-button-response","97","1453836","0.0-75.0","CAN_124","124","","","","","","434","","0","lightred","darkgreenblue","[""lightred"",""darkgreenblue"",""low nameability""]","left-right","[""lightred"",""darkgreenblue"",""low nameability""]","2","low nameability","19","left","trigger",""
"html-button-response","98","1454428","0.0-76.0-0.0","CAN_124","124","","","","","","584","<button class=""jspsych-btn""><img src=""stimuli/lightred.png"" style=""width: 200px;height: 200px;""></button>","0","lightred","darkgreenblue","[""lightred"",""darkgreenblue"",""low nameability""]","left-right","[""lightred"",""darkgreenblue"",""low nameability""]","2","low nameability","19","left","response","1"
"html-audio-button-response","99","1454633","0.0-76.0-1.0","CAN_124","124","","","","","","null","stimuli/bleep.m4a","null","lightred","darkgreenblue","[""lightred"",""darkgreenblue"",""low nameability""]","left-right","[""lightred"",""darkgreenblue"",""low nameability""]","2","low nameability","19","left","audio_feedback","1"
"html-button-response","100","1455156","0.0-77.0","CAN_124","124","","","","","","null","<button class=""jspsych-btn""><img src=""stimuli/white_square.png"" style=""width: 200px;height: 200px;""></button>","null","lightred","darkgreenblue","[""lightred"",""darkgreenblue"",""low nameability""]","left-right","[""lightred"",""darkgreenblue"",""low nameability""]","2","low nameability","19","left","iti",""
"html-button-response","101","1455631","0.0-78.0","CAN_124","124","","","","","","455","","0","neonyellow","mustard","[""neonyellow"",""mustard"",""low nameability""]","right-left","[""mustard"",""neonyellow""]","2","low nameability","20","right","trigger",""
"html-button-response","102","1456213","0.0-79.0-0.0","CAN_124","124","","","","","","573","<button class=""jspsych-btn""><img src=""stimuli/neonyellow.png"" style=""width: 200px;height: 200px;""></button>","1","neonyellow","mustard","[""neonyellow"",""mustard"",""low nameability""]","right-left","[""mustard"",""neonyellow""]","2","low nameability","20","right","response","1"
"html-audio-button-response","103","1456415","0.0-79.0-1.0","CAN_124","124","","","","","","null","stimuli/bleep.m4a","null","neonyellow","mustard","[""neonyellow"",""mustard"",""low nameability""]","right-left","[""mustard"",""neonyellow""]","2","low nameability","20","right","audio_feedback","1"
"html-button-response","104","1456932","0.0-80.0","CAN_124","124","","","","","","null","<button class=""jspsych-btn""><img src=""stimuli/white_square.png"" style=""width: 200px;height: 200px;""></button>","null","neonyellow","mustard","[""neonyellow"",""mustard"",""low nameability""]","right-left","[""mustard"",""neonyellow""]","2","low nameability","20","right","iti",""
"pavlovia","105","1457010","0.0-81.0","CAN_124","124","","","","","","","","","","","","","","","","","","",""
"pavlovia","106","1457023","0.0-82.0","CAN_124","124","","","","","","","","","","","","","","","","","","",""
"html-audio-button-response","107","1459321","0.0-83.0","CAN_124","124","","","","","","2389","stimuli/tada.m4a","0","","","","","","","","","","",""
"html-button-response","108","1460711","0.0-84.0","CAN_124","124","","","","","","1385","","0","","","","","","","","","","",""
"html-button-response","109","1461440","0.0-85.0","CAN_124","124","","","","","","721","","0","yellow","brown","[""yellow"",""brown"",""high nameability""]","left-right","[""yellow"",""brown"",""high nameability""]","3","high nameability","21","left","trigger",""
"html-button-response","110","1462029","0.0-86.0-0.0","CAN_124","124","","","","","","578","<button class=""jspsych-btn""><img src=""stimuli/yellow.png"" style=""width: 200px;height: 200px;""></button>","0","yellow","brown","[""yellow"",""brown"",""high nameability""]","left-right","[""yellow"",""brown"",""high nameability""]","3","high nameability","21","left","response","1"
"html-audio-button-response","111","1462240","0.0-86.0-1.0","CAN_124","124","","","","","","null","stimuli/bleep.m4a","null","yellow","brown","[""yellow"",""brown"",""high nameability""]","left-right","[""yellow"",""brown"",""high nameability""]","3","high nameability","21","left","audio_feedback","1"
"html-button-response","112","1462755","0.0-87.0","CAN_124","124","","","","","","null","<button class=""jspsych-btn""><img src=""stimuli/white_square.png"" style=""width: 200px;height: 200px;""></button>","null","yellow","brown","[""yellow"",""brown"",""high nameability""]","left-right","[""yellow"",""brown"",""high nameability""]","3","high nameability","21","left","iti",""
"html-button-response","113","1463233","0.0-88.0","CAN_124","124","","","","","","451","","0","blue","yellow","[""blue"",""yellow"",""high nameability""]","left-right","[""blue"",""yellow"",""high nameability""]","3","high nameability","22","left","trigger",""
"html-button-response","114","1463922","0.0-89.0-0.0","CAN_124","124","","","","","","679","<button class=""jspsych-btn""><img src=""stimuli/blue.png"" style=""width: 200px;height: 200px;""></button>","0","blue","yellow","[""blue"",""yellow"",""high nameability""]","left-right","[""blue"",""yellow"",""high nameability""]","3","high nameability","22","left","response","1"
"html-audio-button-response","115","1464123","0.0-89.0-1.0","CAN_124","124","","","","","","null","stimuli/bleep.m4a","null","blue","yellow","[""blue"",""yellow"",""high nameability""]","left-right","[""blue"",""yellow"",""high nameability""]","3","high nameability","22","left","audio_feedback","1"
"html-button-response","116","1464640","0.0-90.0","CAN_124","124","","","","","","null","<button class=""jspsych-btn""><img src=""stimuli/white_square.png"" style=""width: 200px;height: 200px;""></button>","null","blue","yellow","[""blue"",""yellow"",""high nameability""]","left-right","[""blue"",""yellow"",""high nameability""]","3","high nameability","22","left","iti",""
"html-button-response","117","1465240","0.0-91.0","CAN_124","124","","","","","","580","","0","turquoise","pink","[""turquoise"",""pink"",""low nameability""]","left-right","[""turquoise"",""pink"",""low nameability""]","3","low nameability","23","left","trigger",""
"html-button-response","118","1465761","0.0-92.0-0.0","CAN_124","124","","","","","","514","<button class=""jspsych-btn""><img src=""stimuli/turquoise.png"" style=""width: 200px;height: 200px;""></button>","0","turquoise","pink","[""turquoise"",""pink"",""low nameability""]","left-right","[""turquoise"",""pink"",""low nameability""]","3","low nameability","23","left","response","1"
"html-audio-button-response","119","1465964","0.0-92.0-1.0","CAN_124","124","","","","","","null","stimuli/bleep.m4a","null","turquoise","pink","[""turquoise"",""pink"",""low nameability""]","left-right","[""turquoise"",""pink"",""low nameability""]","3","low nameability","23","left","audio_feedback","1"
"html-button-response","120","1466486","0.0-93.0","CAN_124","124","","","","","","null","<button class=""jspsych-btn""><img src=""stimuli/white_square.png"" style=""width: 200px;height: 200px;""></button>","null","turquoise","pink","[""turquoise"",""pink"",""low nameability""]","left-right","[""turquoise"",""pink"",""low nameability""]","3","low nameability","23","left","iti",""
"html-button-response","121","1467032","0.0-94.0","CAN_124","124","","","","","","525","","0","purple","orange","[""purple"",""orange"",""high nameability""]","right-left","[""orange"",""purple""]","3","high nameability","24","right","trigger",""
"html-button-response","122","1467661","0.0-95.0-0.0","CAN_124","124","","","","","","623","<button class=""jspsych-btn""><img src=""stimuli/purple.png"" style=""width: 200px;height: 200px;""></button>","1","purple","orange","[""purple"",""orange"",""high nameability""]","right-left","[""orange"",""purple""]","3","high nameability","24","right","response","1"
"html-audio-button-response","123","1467866","0.0-95.0-1.0","CAN_124","124","","","","","","null","stimuli/bleep.m4a","null","purple","orange","[""purple"",""orange"",""high nameability""]","right-left","[""orange"",""purple""]","3","high nameability","24","right","audio_feedback","1"
"html-button-response","124","1468388","0.0-96.0","CAN_124","124","","","","","","null","<button class=""jspsych-btn""><img src=""stimuli/white_square.png"" style=""width: 200px;height: 200px;""></button>","null","purple","orange","[""purple"",""orange"",""high nameability""]","right-left","[""orange"",""purple""]","3","high nameability","24","right","iti",""
"html-button-response","125","1468903","0.0-97.0","CAN_124","124","","","","","","497","","0","lightred","pink","[""lightred"",""pink"",""low nameability""]","right-left","[""pink"",""lightred""]","3","low nameability","25","right","trigger",""
"html-button-response","126","1469504","0.0-98.0-0.0","CAN_124","124","","","","","","592","<button class=""jspsych-btn""><img src=""stimuli/lightred.png"" style=""width: 200px;height: 200px;""></button>","1","lightred","pink","[""lightred"",""pink"",""low nameability""]","right-left","[""pink"",""lightred""]","3","low nameability","25","right","response","1"
"html-audio-button-response","127","1469709","0.0-98.0-1.0","CAN_124","124","","","","","","null","stimuli/bleep.m4a","null","lightred","pink","[""lightred"",""pink"",""low nameability""]","right-left","[""pink"",""lightred""]","3","low nameability","25","right","audio_feedback","1"
"html-button-response","128","1470229","0.0-99.0","CAN_124","124","","","","","","null","<button class=""jspsych-btn""><img src=""stimuli/white_square.png"" style=""width: 200px;height: 200px;""></button>","null","lightred","pink","[""lightred"",""pink"",""low nameability""]","right-left","[""pink"",""lightred""]","3","low nameability","25","right","iti",""
"html-button-response","129","1470848","0.0-100.0","CAN_124","124","","","","","","602","","0","brown","orange","[""brown"",""orange"",""high nameability""]","right-left","[""orange"",""brown""]","3","high nameability","26","right","trigger",""
"html-button-response","130","1471619","0.0-101.0-0.0","CAN_124","124","","","","","","762","<button class=""jspsych-btn""><img src=""stimuli/brown.png"" style=""width: 200px;height: 200px;""></button>","1","brown","orange","[""brown"",""orange"",""high nameability""]","right-left","[""orange"",""brown""]","3","high nameability","26","right","response","1"
"html-audio-button-response","131","1471824","0.0-101.0-1.0","CAN_124","124","","","","","","null","stimuli/bleep.m4a","null","brown","orange","[""brown"",""orange"",""high nameability""]","right-left","[""orange"",""brown""]","3","high nameability","26","right","audio_feedback","1"
"html-button-response","132","1472338","0.0-102.0","CAN_124","124","","","","","","null","<button class=""jspsych-btn""><img src=""stimuli/white_square.png"" style=""width: 200px;height: 200px;""></button>","null","brown","orange","[""brown"",""orange"",""high nameability""]","right-left","[""orange"",""brown""]","3","high nameability","26","right","iti",""
"html-button-response","133","1472954","0.0-103.0","CAN_124","124","","","","","","599","","0","blue","brown","[""blue"",""brown"",""high nameability""]","right-left","[""brown"",""blue""]","3","high nameability","27","right","trigger",""
"html-button-response","134","1473560","0.0-104.0-0.0","CAN_124","124","","","","","","599","<button class=""jspsych-btn""><img src=""stimuli/blue.png"" style=""width: 200px;height: 200px;""></button>","1","blue","brown","[""blue"",""brown"",""high nameability""]","right-left","[""brown"",""blue""]","3","high nameability","27","right","response","1"
"html-audio-button-response","135","1473764","0.0-104.0-1.0","CAN_124","124","","","","","","null","stimuli/bleep.m4a","null","blue","brown","[""blue"",""brown"",""high nameability""]","right-left","[""brown"",""blue""]","3","high nameability","27","right","audio_feedback","1"
"html-button-response","136","1474281","0.0-105.0","CAN_124","124","","","","","","null","<button class=""jspsych-btn""><img src=""stimuli/white_square.png"" style=""width: 200px;height: 200px;""></button>","null","blue","brown","[""blue"",""brown"",""high nameability""]","right-left","[""brown"",""blue""]","3","high nameability","27","right","iti",""
"html-button-response","137","1474906","0.0-106.0","CAN_124","124","","","","","","613","","0","yellow","red","[""yellow"",""red"",""high nameability""]","left-right","[""yellow"",""red"",""high nameability""]","3","high nameability","28","left","trigger",""
"html-button-response","138","1475468","0.0-107.0-0.0","CAN_124","124","","","","","","553","<button class=""jspsych-btn""><img src=""stimuli/yellow.png"" style=""width: 200px;height: 200px;""></button>","0","yellow","red","[""yellow"",""red"",""high nameability""]","left-right","[""yellow"",""red"",""high nameability""]","3","high nameability","28","left","response","1"
"html-audio-button-response","139","1475677","0.0-107.0-1.0","CAN_124","124","","","","","","null","stimuli/bleep.m4a","null","yellow","red","[""yellow"",""red"",""high nameability""]","left-right","[""yellow"",""red"",""high nameability""]","3","high nameability","28","left","audio_feedback","1"
"html-button-response","140","1476193","0.0-108.0","CAN_124","124","","","","","","null","<button class=""jspsych-btn""><img src=""stimuli/white_square.png"" style=""width: 200px;height: 200px;""></button>","null","yellow","red","[""yellow"",""red"",""high nameability""]","left-right","[""yellow"",""red"",""high nameability""]","3","high nameability","28","left","iti",""
"html-button-response","141","1476789","0.0-109.0","CAN_124","124","","","","","","570","","0","lightred","neonyellow","[""lightred"",""neonyellow"",""low nameability""]","left-right","[""lightred"",""neonyellow"",""low nameability""]","3","low nameability","29","left","trigger",""
"html-button-response","142","1477412","0.0-110.0-0.0","CAN_124","124","","","","","","618","<button class=""jspsych-btn""><img src=""stimuli/lightred.png"" style=""width: 200px;height: 200px;""></button>","0","lightred","neonyellow","[""lightred"",""neonyellow"",""low nameability""]","left-right","[""lightred"",""neonyellow"",""low nameability""]","3","low nameability","29","left","response","1"
"html-audio-button-response","143","1477617","0.0-110.0-1.0","CAN_124","124","","","","","","null","stimuli/bleep.m4a","null","lightred","neonyellow","[""lightred"",""neonyellow"",""low nameability""]","left-right","[""lightred"",""neonyellow"",""low nameability""]","3","low nameability","29","left","audio_feedback","1"
"html-button-response","144","1478143","0.0-111.0","CAN_124","124","","","","","","null","<button class=""jspsych-btn""><img src=""stimuli/white_square.png"" style=""width: 200px;height: 200px;""></button>","null","lightred","neonyellow","[""lightred"",""neonyellow"",""low nameability""]","left-right","[""lightred"",""neonyellow"",""low nameability""]","3","low nameability","29","left","iti",""
"html-button-response","145","1478699","0.0-112.0","CAN_124","124","","","","","","537","","0","neonyellow","lightred","[""neonyellow"",""lightred"",""low nameability""]","left-right","[""neonyellow"",""lightred"",""low nameability""]","3","low nameability","30","left","trigger",""
"html-button-response","146","1479345","0.0-113.0-0.0","CAN_124","124","","","","","","642","<button class=""jspsych-btn""><img src=""stimuli/neonyellow.png"" style=""width: 200px;height: 200px;""></button>","0","neonyellow","lightred","[""neonyellow"",""lightred"",""low nameability""]","left-right","[""neonyellow"",""lightred"",""low nameability""]","3","low nameability","30","left","response","1"
"html-audio-button-response","147","1479551","0.0-113.0-1.0","CAN_124","124","","","","","","null","stimuli/bleep.m4a","null","neonyellow","lightred","[""neonyellow"",""lightred"",""low nameability""]","left-right","[""neonyellow"",""lightred"",""low nameability""]","3","low nameability","30","left","audio_feedback","1"
"html-button-response","148","1480070","0.0-114.0","CAN_124","124","","","","","","null","<button class=""jspsych-btn""><img src=""stimuli/white_square.png"" style=""width: 200px;height: 200px;""></button>","null","neonyellow","lightred","[""neonyellow"",""lightred"",""low nameability""]","left-right","[""neonyellow"",""lightred"",""low nameability""]","3","low nameability","30","left","iti",""
"pavlovia","149","1480140","0.0-115.0","CAN_124","124","","","","","","","","","","","","","","","","","","",""
"pavlovia","150","1480149","0.0-116.0","CAN_124","124","","","","","","","","","","","","","","","","","","",""
"html-audio-button-response","151","1482192","0.0-117.0","CAN_124","124","","","","","","2120","stimuli/tada.m4a","0","","","","","","","","","","",""
"html-button-response","152","1483271","0.0-118.0","CAN_124","124","","","","","","1072","","0","","","","","","","","","","",""
"html-button-response","153","1483960","0.0-119.0","CAN_124","124","","","","","","683","","0","mustard","darkgreenblue","[""mustard"",""darkgreenblue"",""low nameability""]","right-left","[""darkgreenblue"",""mustard""]","4","low nameability","31","right","trigger",""
"html-button-response","154","1484650","0.0-120.0-0.0","CAN_124","124","","","","","","683","<button class=""jspsych-btn""><img src=""stimuli/mustard.png"" style=""width: 200px;height: 200px;""></button>","1","mustard","darkgreenblue","[""mustard"",""darkgreenblue"",""low nameability""]","right-left","[""darkgreenblue"",""mustard""]","4","low nameability","31","right","response","1"
"html-audio-button-response","155","1484854","0.0-120.0-1.0","CAN_124","124","","","","","","null","stimuli/bleep.m4a","null","mustard","darkgreenblue","[""mustard"",""darkgreenblue"",""low nameability""]","right-left","[""darkgreenblue"",""mustard""]","4","low nameability","31","right","audio_feedback","1"
"html-button-response","156","1485371","0.0-121.0","CAN_124","124","","","","","","null","<button class=""jspsych-btn""><img src=""stimuli/white_square.png"" style=""width: 200px;height: 200px;""></button>","null","mustard","darkgreenblue","[""mustard"",""darkgreenblue"",""low nameability""]","right-left","[""darkgreenblue"",""mustard""]","4","low nameability","31","right","iti",""
"html-button-response","157","1485936","0.0-122.0","CAN_124","124","","","","","","549","","0","blue","red","[""blue"",""red"",""high nameability""]","left-right","[""blue"",""red"",""high nameability""]","4","high nameability","32","left","trigger",""
"html-button-response","158","1486506","0.0-123.0-0.0","CAN_124","124","","","","","","562","<button class=""jspsych-btn""><img src=""stimuli/blue.png"" style=""width: 200px;height: 200px;""></button>","0","blue","red","[""blue"",""red"",""high nameability""]","left-right","[""blue"",""red"",""high nameability""]","4","high nameability","32","left","response","1"
"html-audio-button-response","159","1486710","0.0-123.0-1.0","CAN_124","124","","","","","","null","stimuli/bleep.m4a","null","blue","red","[""blue"",""red"",""high nameability""]","left-right","[""blue"",""red"",""high nameability""]","4","high nameability","32","left","audio_feedback","1"
"html-button-response","160","1487232","0.0-124.0","CAN_124","124","","","","","","null","<button class=""jspsych-btn""><img src=""stimuli/white_square.png"" style=""width: 200px;height: 200px;""></button>","null","blue","red","[""blue"",""red"",""high nameability""]","left-right","[""blue"",""red"",""high nameability""]","4","high nameability","32","left","iti",""
"html-button-response","161","1487705","0.0-125.0","CAN_124","124","","","","","","446","","0","mustard","neonyellow","[""mustard"",""neonyellow"",""low nameability""]","right-left","[""neonyellow"",""mustard""]","4","low nameability","33","right","trigger",""
"html-button-response","162","1488392","0.0-126.0-0.0","CAN_124","124","","","","","","680","<button class=""jspsych-btn""><img src=""stimuli/mustard.png"" style=""width: 200px;height: 200px;""></button>","1","mustard","neonyellow","[""mustard"",""neonyellow"",""low nameability""]","right-left","[""neonyellow"",""mustard""]","4","low nameability","33","right","response","1"
"html-audio-button-response","163","1488596","0.0-126.0-1.0","CAN_124","124","","","","","","null","stimuli/bleep.m4a","null","mustard","neonyellow","[""mustard"",""neonyellow"",""low nameability""]","right-left","[""neonyellow"",""mustard""]","4","low nameability","33","right","audio_feedback","1"
"html-button-response","164","1489113","0.0-127.0","CAN_124","124","","","","","","null","<button class=""jspsych-btn""><img src=""stimuli/white_square.png"" style=""width: 200px;height: 200px;""></button>","null","mustard","neonyellow","[""mustard"",""neonyellow"",""low nameability""]","right-left","[""neonyellow"",""mustard""]","4","low nameability","33","right","iti",""
"html-button-response","165","1489665","0.0-128.0","CAN_124","124","","","","","","534","","0","red","purple","[""red"",""purple"",""high nameability""]","right-left","[""purple"",""red""]","4","high nameability","34","right","trigger",""
"html-button-response","166","1490282","0.0-129.0-0.0","CAN_124","124","","","","","","608","<button class=""jspsych-btn""><img src=""stimuli/red.png"" style=""width: 200px;height: 200px;""></button>","1","red","purple","[""red"",""purple"",""high nameability""]","right-left","[""purple"",""red""]","4","high nameability","34","right","response","1"
"html-audio-button-response","167","1490483","0.0-129.0-1.0","CAN_124","124","","","","","","null","stimuli/bleep.m4a","null","red","purple","[""red"",""purple"",""high nameability""]","right-left","[""purple"",""red""]","4","high nameability","34","right","audio_feedback","1"
"html-button-response","168","1490999","0.0-130.0","CAN_124","124","","","","","","null","<button class=""jspsych-btn""><img src=""stimuli/white_square.png"" style=""width: 200px;height: 200px;""></button>","null","red","purple","[""red"",""purple"",""high nameability""]","right-left","[""purple"",""red""]","4","high nameability","34","right","iti",""
"html-button-response","169","1491555","0.0-131.0","CAN_124","124","","","","","","540","","0","red","blue","[""red"",""blue"",""high nameability""]","right-left","[""blue"",""red""]","4","high nameability","35","right","trigger",""
"html-button-response","170","1492149","0.0-132.0-0.0","CAN_124","124","","","","","","587","<button class=""jspsych-btn""><img src=""stimuli/red.png"" style=""width: 200px;height: 200px;""></button>","1","red","blue","[""red"",""blue"",""high nameability""]","right-left","[""blue"",""red""]","4","high nameability","35","right","response","1"
"html-audio-button-response","171","1492357","0.0-132.0-1.0","CAN_124","124","","","","","","null","stimuli/bleep.m4a","null","red","blue","[""red"",""blue"",""high nameability""]","right-left","[""blue"",""red""]","4","high nameability","35","right","audio_feedback","1"
"html-button-response","172","1492880","0.0-133.0","CAN_124","124","","","","","","null","<button class=""jspsych-btn""><img src=""stimuli/white_square.png"" style=""width: 200px;height: 200px;""></button>","null","red","blue","[""red"",""blue"",""high nameability""]","right-left","[""blue"",""red""]","4","high nameability","35","right","iti",""
"html-button-response","173","1493479","0.0-134.0","CAN_124","124","","","","","","579","","0","yellow","blue","[""yellow"",""blue"",""high nameability""]","left-right","[""yellow"",""blue"",""high nameability""]","4","high nameability","36","left","trigger",""
"html-button-response","174","1494110","0.0-135.0-0.0","CAN_124","124","","","","","","624","<button class=""jspsych-btn""><img src=""stimuli/yellow.png"" style=""width: 200px;height: 200px;""></button>","0","yellow","blue","[""yellow"",""blue"",""high nameability""]","left-right","[""yellow"",""blue"",""high nameability""]","4","high nameability","36","left","response","1"
"html-audio-button-response","175","1494320","0.0-135.0-1.0","CAN_124","124","","","","","","null","stimuli/bleep.m4a","null","yellow","blue","[""yellow"",""blue"",""high nameability""]","left-right","[""yellow"",""blue"",""high nameability""]","4","high nameability","36","left","audio_feedback","1"
"html-button-response","176","1494834","0.0-136.0","CAN_124","124","","","","","","null","<button class=""jspsych-btn""><img src=""stimuli/white_square.png"" style=""width: 200px;height: 200px;""></button>","null","yellow","blue","[""yellow"",""blue"",""high nameability""]","left-right","[""yellow"",""blue"",""high nameability""]","4","high nameability","36","left","iti",""
"html-button-response","177","1495339","0.0-137.0","CAN_124","124","","","","","","474","","0","purple","red","[""purple"",""red"",""high nameability""]","left-right","[""purple"",""red"",""high nameability""]","4","high nameability","37","left","trigger",""
"html-button-response","178","1495929","0.0-138.0-0.0","CAN_124","124","","","","","","579","<button class=""jspsych-btn""><img src=""stimuli/purple.png"" style=""width: 200px;height: 200px;""></button>","0","purple","red","[""purple"",""red"",""high nameability""]","left-right","[""purple"",""red"",""high nameability""]","4","high nameability","37","left","response","1"
"html-audio-button-response","179","1496137","0.0-138.0-1.0","CAN_124","124","","","","","","null","stimuli/bleep.m4a","null","purple","red","[""purple"",""red"",""high nameability""]","left-right","[""purple"",""red"",""high nameability""]","4","high nameability","37","left","audio_feedback","1"
"html-button-response","180","1496658","0.0-139.0","CAN_124","124","","","","","","null","<button class=""jspsych-btn""><img src=""stimuli/white_square.png"" style=""width: 200px;height: 200px;""></button>","null","purple","red","[""purple"",""red"",""high nameability""]","left-right","[""purple"",""red"",""high nameability""]","4","high nameability","37","left","iti",""
"html-button-response","181","1497145","0.0-140.0","CAN_124","124","","","","","","469","","0","darkgreenblue","pink","[""darkgreenblue"",""pink"",""low nameability""]","right-left","[""pink"",""darkgreenblue""]","4","low nameability","38","right","trigger",""
"html-button-response","182","1497732","0.0-141.0-0.0","CAN_124","124","","","","","","574","<button class=""jspsych-btn""><img src=""stimuli/darkgreenblue.png"" style=""width: 200px;height: 200px;""></button>","1","darkgreenblue","pink","[""darkgreenblue"",""pink"",""low nameability""]","right-left","[""pink"",""darkgreenblue""]","4","low nameability","38","right","response","1"
"html-audio-button-response","183","1497944","0.0-141.0-1.0","CAN_124","124","","","","","","null","stimuli/bleep.m4a","null","darkgreenblue","pink","[""darkgreenblue"",""pink"",""low nameability""]","right-left","[""pink"",""darkgreenblue""]","4","low nameability","38","right","audio_feedback","1"
"html-button-response","184","1498459","0.0-142.0","CAN_124","124","","","","","","null","<button class=""jspsych-btn""><img src=""stimuli/white_square.png"" style=""width: 200px;height: 200px;""></button>","null","darkgreenblue","pink","[""darkgreenblue"",""pink"",""low nameability""]","right-left","[""pink"",""darkgreenblue""]","4","low nameability","38","right","iti",""
"html-button-response","185","1498951","0.0-143.0","CAN_124","124","","","","","","473","","0","pink","darkgreenblue","[""pink"",""darkgreenblue"",""low nameability""]","left-right","[""pink"",""darkgreenblue"",""low nameability""]","4","low nameability","39","left","trigger",""
"html-button-response","186","1499647","0.0-144.0-0.0","CAN_124","124","","","","","","688","<button class=""jspsych-btn""><img src=""stimuli/pink.png"" style=""width: 200px;height: 200px;""></button>","0","pink","darkgreenblue","[""pink"",""darkgreenblue"",""low nameability""]","left-right","[""pink"",""darkgreenblue"",""low nameability""]","4","low nameability","39","left","response","1"
"html-audio-button-response","187","1499851","0.0-144.0-1.0","CAN_124","124","","","","","","null","stimuli/bleep.m4a","null","pink","darkgreenblue","[""pink"",""darkgreenblue"",""low nameability""]","left-right","[""pink"",""darkgreenblue"",""low nameability""]","4","low nameability","39","left","audio_feedback","1"
"html-button-response","188","1500369","0.0-145.0","CAN_124","124","","","","","","null","<button class=""jspsych-btn""><img src=""stimuli/white_square.png"" style=""width: 200px;height: 200px;""></button>","null","pink","darkgreenblue","[""pink"",""darkgreenblue"",""low nameability""]","left-right","[""pink"",""darkgreenblue"",""low nameability""]","4","low nameability","39","left","iti",""
"html-button-response","189","1500885","0.0-146.0","CAN_124","124","","","","","","492","","0","red","yellow","[""red"",""yellow"",""high nameability""]","left-right","[""red"",""yellow"",""high nameability""]","4","high nameability","40","left","trigger",""
"html-button-response","190","1501453","0.0-147.0-0.0","CAN_124","124","","","","","","563","<button class=""jspsych-btn""><img src=""stimuli/red.png"" style=""width: 200px;height: 200px;""></button>","0","red","yellow","[""red"",""yellow"",""high nameability""]","left-right","[""red"",""yellow"",""high nameability""]","4","high nameability","40","left","response","1"
"html-audio-button-response","191","1501659","0.0-147.0-1.0","CAN_124","124","","","","","","null","stimuli/bleep.m4a","null","red","yellow","[""red"",""yellow"",""high nameability""]","left-right","[""red"",""yellow"",""high nameability""]","4","high nameability","40","left","audio_feedback","1"
"html-button-response","192","1502176","0.0-148.0","CAN_124","124","","","","","","null","<button class=""jspsych-btn""><img src=""stimuli/white_square.png"" style=""width: 200px;height: 200px;""></button>","null","red","yellow","[""red"",""yellow"",""high nameability""]","left-right","[""red"",""yellow"",""high nameability""]","4","high nameability","40","left","iti",""
"pavlovia","193","1502229","0.0-149.0","CAN_124","124","","","","","","","","","","","","","","","","","","",""
"pavlovia","194","1502234","0.0-150.0","CAN_124","124","","","","","","","","","","","","","","","","","","",""
"html-audio-button-response","195","1503493","0.0-151.0","CAN_124","124","","","","","","1315","stimuli/tada.m4a","0","","","","","","","","","","",""
"html-button-response","196","1504317","0.0-152.0","CAN_124","124","","","","","","818","","0","","","","","","","","","","",""
"html-button-response","197","1504977","0.0-153.0","CAN_124","124","","","","","","650","","0","pink","lightred","[""pink"",""lightred"",""low nameability""]","right-left","[""lightred"",""pink""]","5","low nameability","41","right","trigger",""
"html-button-response","198","1505704","0.0-154.0-0.0","CAN_124","124","","","","","","719","<button class=""jspsych-btn""><img src=""stimuli/pink.png"" style=""width: 200px;height: 200px;""></button>","1","pink","lightred","[""pink"",""lightred"",""low nameability""]","right-left","[""lightred"",""pink""]","5","low nameability","41","right","response","1"
"html-audio-button-response","199","1505906","0.0-154.0-1.0","CAN_124","124","","","","","","null","stimuli/bleep.m4a","null","pink","lightred","[""pink"",""lightred"",""low nameability""]","right-left","[""lightred"",""pink""]","5","low nameability","41","right","audio_feedback","1"
"html-button-response","200","1506425","0.0-155.0","CAN_124","124","","","","","","null","<button class=""jspsych-btn""><img src=""stimuli/white_square.png"" style=""width: 200px;height: 200px;""></button>","null","pink","lightred","[""pink"",""lightred"",""low nameability""]","right-left","[""lightred"",""pink""]","5","low nameability","41","right","iti",""
"html-button-response","201","1506892","0.0-156.0","CAN_124","124","","","","","","437","","0","darkgreenblue","lightred","[""darkgreenblue"",""lightred"",""low nameability""]","left-right","[""darkgreenblue"",""lightred"",""low nameability""]","5","low nameability","42","left","trigger",""
"html-button-response","202","1507468","0.0-157.0-0.0","CAN_124","124","","","","","","565","<button class=""jspsych-btn""><img src=""stimuli/darkgreenblue.png"" style=""width: 200px;height: 200px;""></button>","0","darkgreenblue","lightred","[""darkgreenblue"",""lightred"",""low nameability""]","left-right","[""darkgreenblue"",""lightred"",""low nameability""]","5","low nameability","42","left","response","1"
"html-audio-button-response","203","1507671","0.0-157.0-1.0","CAN_124","124","","","","","","null","stimuli/bleep.m4a","null","darkgreenblue","lightred","[""darkgreenblue"",""lightred"",""low nameability""]","left-right","[""darkgreenblue"",""lightred"",""low nameability""]","5","low nameability","42","left","audio_feedback","1"
"html-button-response","204","1508192","0.0-158.0","CAN_124","124","","","","","","null","<button class=""jspsych-btn""><img src=""stimuli/white_square.png"" style=""width: 200px;height: 200px;""></button>","null","darkgreenblue","lightred","[""darkgreenblue"",""lightred"",""low nameability""]","left-right","[""darkgreenblue"",""lightred"",""low nameability""]","5","low nameability","42","left","iti",""
"html-button-response","205","1508674","0.0-159.0","CAN_124","124","","","","","","464","","0","pink","neonyellow","[""pink"",""neonyellow"",""low nameability""]","right-left","[""neonyellow"",""pink""]","5","low nameability","43","right","trigger",""
"html-button-response","206","1509279","0.0-160.0-0.0","CAN_124","124","","","","","","599","<button class=""jspsych-btn""><img src=""stimuli/pink.png"" style=""width: 200px;height: 200px;""></button>","1","pink","neonyellow","[""pink"",""neonyellow"",""low nameability""]","right-left","[""neonyellow"",""pink""]","5","low nameability","43","right","response","1"
"html-audio-button-response","207","1509485","0.0-160.0-1.0","CAN_124","124","","","","","","null","stimuli/bleep.m4a","null","pink","neonyellow","[""pink"",""neonyellow"",""low nameability""]","right-left","[""neonyellow"",""pink""]","5","low nameability","43","right","audio_feedback","1"
"html-button-response","208","1510007","0.0-161.0","CAN_124","124","","","","","","null","<button class=""jspsych-btn""><img src=""stimuli/white_square.png"" style=""width: 200px;height: 200px;""></button>","null","pink","neonyellow","[""pink"",""neonyellow"",""low nameability""]","right-left","[""neonyellow"",""pink""]","5","low nameability","43","right","iti",""
"html-button-response","209","1510548","0.0-162.0","CAN_124","124","","","","","","533","","0","pink","turquoise","[""pink"",""turquoise"",""low nameability""]","right-left","[""turquoise"",""pink""]","5","low nameability","44","right","trigger",""
"html-button-response","210","1511168","0.0-163.0-0.0","CAN_124","124","","","","","","612","<button class=""jspsych-btn""><img src=""stimuli/pink.png"" style=""width: 200px;height: 200px;""></button>","1","pink","turquoise","[""pink"",""turquoise"",""low nameability""]","right-left","[""turquoise"",""pink""]","5","low nameability","44","right","response","1"
"html-audio-button-response","211","1511372","0.0-163.0-1.0","CAN_124","124","","","","","","null","stimuli/bleep.m4a","null","pink","turquoise","[""pink"",""turquoise"",""low nameability""]","right-left","[""turquoise"",""pink""]","5","low nameability","44","right","audio_feedback","1"
"html-button-response","212","1511894","0.0-164.0","CAN_124","124","","","","","","null","<button class=""jspsych-btn""><img src=""stimuli/white_square.png"" style=""width: 200px;height: 200px;""></button>","null","pink","turquoise","[""pink"",""turquoise"",""low nameability""]","right-left","[""turquoise"",""pink""]","5","low nameability","44","right","iti",""
"html-button-response","213","1512537","0.0-165.0","CAN_124","124","","","","","","628","","0","brown","purple","[""brown"",""purple"",""high nameability""]","right-left","[""purple"",""brown""]","5","high nameability","45","right","trigger",""
"html-button-response","214","1513168","0.0-166.0-0.0","CAN_124","124","","","","","","622","<button class=""jspsych-btn""><img src=""stimuli/brown.png"" style=""width: 200px;height: 200px;""></button>","1","brown","purple","[""brown"",""purple"",""high nameability""]","right-left","[""purple"",""brown""]","5","high nameability","45","right","response","1"
"html-audio-button-response","215","1513372","0.0-166.0-1.0","CAN_124","124","","","","","","null","stimuli/bleep.m4a","null","brown","purple","[""brown"",""purple"",""high nameability""]","right-left","[""purple"",""brown""]","5","high nameability","45","right","audio_feedback","1"
"html-button-response","216","1513892","0.0-167.0","CAN_124","124","","","","","","null","<button class=""jspsych-btn""><img src=""stimuli/white_square.png"" style=""width: 200px;height: 200px;""></button>","null","brown","purple","[""brown"",""purple"",""high nameability""]","right-left","[""purple"",""brown""]","5","high nameability","45","right","iti",""
"html-button-response","217","1514464","0.0-168.0","CAN_124","124","","","","","","555","","0","mustard","pink","[""mustard"",""pink"",""low nameability""]","left-right","[""mustard"",""pink"",""low nameability""]","5","low nameability","46","left","trigger",""
"html-button-response","218","1515055","0.0-169.0-0.0","CAN_124","124","","","","","","585","<button class=""jspsych-btn""><img src=""stimuli/mustard.png"" style=""width: 200px;height: 200px;""></button>","0","mustard","pink","[""mustard"",""pink"",""low nameability""]","left-right","[""mustard"",""pink"",""low nameability""]","5","low nameability","46","left","response","1"
"html-audio-button-response","219","1515260","0.0-169.0-1.0","CAN_124","124","","","","","","null","stimuli/bleep.m4a","null","mustard","pink","[""mustard"",""pink"",""low nameability""]","left-right","[""mustard"",""pink"",""low nameability""]","5","low nameability","46","left","audio_feedback","1"
"html-button-response","220","1515780","0.0-170.0","CAN_124","124","","","","","","null","<button class=""jspsych-btn""><img src=""stimuli/white_square.png"" style=""width: 200px;height: 200px;""></button>","null","mustard","pink","[""mustard"",""pink"",""low nameability""]","left-right","[""mustard"",""pink"",""low nameability""]","5","low nameability","46","left","iti",""
"html-button-response","221","1516301","0.0-171.0","CAN_124","124","","","","","","508","","0","darkgreenblue","neonyellow","[""darkgreenblue"",""neonyellow"",""low nameability""]","right-left","[""neonyellow"",""darkgreenblue""]","5","low nameability","47","right","trigger",""
"html-button-response","222","1516932","0.0-172.0-0.0","CAN_124","124","","","","","","623","<button class=""jspsych-btn""><img src=""stimuli/darkgreenblue.png"" style=""width: 200px;height: 200px;""></button>","1","darkgreenblue","neonyellow","[""darkgreenblue"",""neonyellow"",""low nameability""]","right-left","[""neonyellow"",""darkgreenblue""]","5","low nameability","47","right","response","1"
"html-audio-button-response","223","1517136","0.0-172.0-1.0","CAN_124","124","","","","","","null","stimuli/bleep.m4a","null","darkgreenblue","neonyellow","[""darkgreenblue"",""neonyellow"",""low nameability""]","right-left","[""neonyellow"",""darkgreenblue""]","5","low nameability","47","right","audio_feedback","1"
"html-button-response","224","1517655","0.0-173.0","CAN_124","124","","","","","","null","<button class=""jspsych-btn""><img src=""stimuli/white_square.png"" style=""width: 200px;height: 200px;""></button>","null","darkgreenblue","neonyellow","[""darkgreenblue"",""neonyellow"",""low nameability""]","right-left","[""neonyellow"",""darkgreenblue""]","5","low nameability","47","right","iti",""
"html-button-response","225","1518240","0.0-174.0","CAN_124","124","","","","","","566","","0","brown","red","[""brown"",""red"",""high nameability""]","left-right","[""brown"",""red"",""high nameability""]","5","high nameability","48","left","trigger",""
"html-button-response","226","1518870","0.0-175.0-0.0","CAN_124","124","","","","","","623","<button class=""jspsych-btn""><img src=""stimuli/brown.png"" style=""width: 200px;height: 200px;""></button>","0","brown","red","[""brown"",""red"",""high nameability""]","left-right","[""brown"",""red"",""high nameability""]","5","high nameability","48","left","response","1"
"html-audio-button-response","227","1519080","0.0-175.0-1.0","CAN_124","124","","","","","","null","stimuli/bleep.m4a","null","brown","red","[""brown"",""red"",""high nameability""]","left-right","[""brown"",""red"",""high nameability""]","5","high nameability","48","left","audio_feedback","1"
"html-button-response","228","1519603","0.0-176.0","CAN_124","124","","","","","","null","<button class=""jspsych-btn""><img src=""stimuli/white_square.png"" style=""width: 200px;height: 200px;""></button>","null","brown","red","[""brown"",""red"",""high nameability""]","left-right","[""brown"",""red"",""high nameability""]","5","high nameability","48","left","iti",""
"html-button-response","229","1520194","0.0-177.0","CAN_124","124","","","","","","565","","0","red","brown","[""red"",""brown"",""high nameability""]","right-left","[""brown"",""red""]","5","high nameability","49","right","trigger",""
"html-button-response","230","1520785","0.0-178.0-0.0","CAN_124","124","","","","","","581","<button class=""jspsych-btn""><img src=""stimuli/red.png"" style=""width: 200px;height: 200px;""></button>","1","red","brown","[""red"",""brown"",""high nameability""]","right-left","[""brown"",""red""]","5","high nameability","49","right","response","1"
"html-audio-button-response","231","1520987","0.0-178.0-1.0","CAN_124","124","","","","","","null","stimuli/bleep.m4a","null","red","brown","[""red"",""brown"",""high nameability""]","right-left","[""brown"",""red""]","5","high nameability","49","right","audio_feedback","1"
"html-button-response","232","1521514","0.0-179.0","CAN_124","124","","","","","","null","<button class=""jspsych-btn""><img src=""stimuli/white_square.png"" style=""width: 200px;height: 200px;""></button>","null","red","brown","[""red"",""brown"",""high nameability""]","right-left","[""brown"",""red""]","5","high nameability","49","right","iti",""
"html-button-response","233","1521974","0.0-180.0","CAN_124","124","","","","","","435","","0","yellow","orange","[""yellow"",""orange"",""high nameability""]","right-left","[""orange"",""yellow""]","5","high nameability","50","right","trigger",""
"html-button-response","234","1522654","0.0-181.0-0.0","CAN_124","124","","","","","","673","<button class=""jspsych-btn""><img src=""stimuli/yellow.png"" style=""width: 200px;height: 200px;""></button>","1","yellow","orange","[""yellow"",""orange"",""high nameability""]","right-left","[""orange"",""yellow""]","5","high nameability","50","right","response","1"
"html-audio-button-response","235","1522855","0.0-181.0-1.0","CAN_124","124","","","","","","null","stimuli/bleep.m4a","null","yellow","orange","[""yellow"",""orange"",""high nameability""]","right-left","[""orange"",""yellow""]","5","high nameability","50","right","audio_feedback","1"
"html-button-response","236","1523372","0.0-182.0","CAN_124","124","","","","","","null","<button class=""jspsych-btn""><img src=""stimuli/white_square.png"" style=""width: 200px;height: 200px;""></button>","null","yellow","orange","[""yellow"",""orange"",""high nameability""]","right-left","[""orange"",""yellow""]","5","high nameability","50","right","iti",""
"pavlovia","237","1523423","0.0-183.0","CAN_124","124","","","","","","","","","","","","","","","","","","",""
"pavlovia","238","1523431","0.0-184.0","CAN_124","124","","","","","","","","","","","","","","","","","","",""
"html-audio-button-response","239","1524602","0.0-185.0","CAN_124","124","","","","","","1235","stimuli/tada.m4a","0","","","","","","","","","","",""
"html-button-response","240","1525242","0.0-186.0","CAN_124","124","","","","","","635","","0","","","","","","","","","","",""
"html-button-response","241","1525907","0.0-187.0","CAN_124","124","","","","","","658","","0","pink","mustard","[""pink"",""mustard"",""low nameability""]","left-right","[""pink"",""mustard"",""low nameability""]","6","low nameability","51","left","trigger",""
"html-button-response","242","1526500","0.0-188.0-0.0","CAN_124","124","","","","","","585","<button class=""jspsych-btn""><img src=""stimuli/pink.png"" style=""width: 200px;height: 200px;""></button>","0","pink","mustard","[""pink"",""mustard"",""low nameability""]","left-right","[""pink"",""mustard"",""low nameability""]","6","low nameability","51","left","response","1"
"html-audio-button-response","243","1526704","0.0-188.0-1.0","CAN_124","124","","","","","","null","stimuli/bleep.m4a","null","pink","mustard","[""pink"",""mustard"",""low nameability""]","left-right","[""pink"",""mustard"",""low nameability""]","6","low nameability","51","left","audio_feedback","1"
"html-button-response","244","1527224","0.0-189.0","CAN_124","124","","","","","","null","<button class=""jspsych-btn""><img src=""stimuli/white_square.png"" style=""width: 200px;height: 200px;""></button>","null","pink","mustard","[""pink"",""mustard"",""low nameability""]","left-right","[""pink"",""mustard"",""low nameability""]","6","low nameability","51","left","iti",""
"html-button-response","245","1527500","0.0-190.0","CAN_124","124","","","","","","259","","0","lightred","mustard","[""lightred"",""mustard"",""low nameability""]","left-right","[""lightred"",""mustard"",""low nameability""]","6","low nameability","52","left","trigger",""
"html-button-response","246","1528141","0.0-191.0-0.0","CAN_124","124","","","","","","631","<button class=""jspsych-btn""><img src=""stimuli/lightred.png"" style=""width: 200px;height: 200px;""></button>","0","lightred","mustard","[""lightred"",""mustard"",""low nameability""]","left-right","[""lightred"",""mustard"",""low nameability""]","6","low nameability","52","left","response","1"
"html-audio-button-response","247","1528344","0.0-191.0-1.0","CAN_124","124","","","","","","null","stimuli/bleep.m4a","null","lightred","mustard","[""lightred"",""mustard"",""low nameability""]","left-right","[""lightred"",""mustard"",""low nameability""]","6","low nameability","52","left","audio_feedback","1"
"html-button-response","248","1528863","0.0-192.0","CAN_124","124","","","","","","null","<button class=""jspsych-btn""><img src=""stimuli/white_square.png"" style=""width: 200px;height: 200px;""></button>","null","lightred","mustard","[""lightred"",""mustard"",""low nameability""]","left-right","[""lightred"",""mustard"",""low nameability""]","6","low nameability","52","left","iti",""
"html-button-response","249","1529329","0.0-193.0","CAN_124","124","","","","","","434","","0","darkgreenblue","mustard","[""darkgreenblue"",""mustard"",""low nameability""]","right-left","[""mustard"",""darkgreenblue""]","6","low nameability","53","right","trigger",""
"html-button-response","250","1529911","0.0-194.0-0.0","CAN_124","124","","","","","","576","<button class=""jspsych-btn""><img src=""stimuli/darkgreenblue.png"" style=""width: 200px;height: 200px;""></button>","1","darkgreenblue","mustard","[""darkgreenblue"",""mustard"",""low nameability""]","right-left","[""mustard"",""darkgreenblue""]","6","low nameability","53","right","response","1"
"html-audio-button-response","251","1530115","0.0-194.0-1.0","CAN_124","124","","","","","","null","stimuli/bleep.m4a","null","darkgreenblue","mustard","[""darkgreenblue"",""mustard"",""low nameability""]","right-left","[""mustard"",""darkgreenblue""]","6","low nameability","53","right","audio_feedback","1"
"html-button-response","252","1530637","0.0-195.0","CAN_124","124","","","","","","null","<button class=""jspsych-btn""><img src=""stimuli/white_square.png"" style=""width: 200px;height: 200px;""></button>","null","darkgreenblue","mustard","[""darkgreenblue"",""mustard"",""low nameability""]","right-left","[""mustard"",""darkgreenblue""]","6","low nameability","53","right","iti",""
"html-button-response","253","1531168","0.0-196.0","CAN_124","124","","","","","","516","","0","orange","brown","[""orange"",""brown"",""high nameability""]","left-right","[""orange"",""brown"",""high nameability""]","6","high nameability","54","left","trigger",""
"html-button-response","254","1531722","0.0-197.0-0.0","CAN_124","124","","","","","","546","<button class=""jspsych-btn""><img src=""stimuli/orange.png"" style=""width: 200px;height: 200px;""></button>","0","orange","brown","[""orange"",""brown"",""high nameability""]","left-right","[""orange"",""brown"",""high nameability""]","6","high nameability","54","left","response","1"
"html-audio-button-response","255","1531928","0.0-197.0-1.0","CAN_124","124","","","","","","null","stimuli/bleep.m4a","null","orange","brown","[""orange"",""brown"",""high nameability""]","left-right","[""orange"",""brown"",""high nameability""]","6","high nameability","54","left","audio_feedback","1"
"html-button-response","256","1532450","0.0-198.0","CAN_124","124","","","","","","null","<button class=""jspsych-btn""><img src=""stimuli/white_square.png"" style=""width: 200px;height: 200px;""></button>","null","orange","brown","[""orange"",""brown"",""high nameability""]","left-right","[""orange"",""brown"",""high nameability""]","6","high nameability","54","left","iti",""
"html-button-response","257","1532881","0.0-199.0","CAN_124","124","","","","","","414","","0","turquoise","mustard","[""turquoise"",""mustard"",""low nameability""]","right-left","[""mustard"",""turquoise""]","6","low nameability","55","right","trigger",""
"html-button-response","258","1533438","0.0-200.0-0.0","CAN_124","124","","","","","","549","<button class=""jspsych-btn""><img src=""stimuli/turquoise.png"" style=""width: 200px;height: 200px;""></button>","1","turquoise","mustard","[""turquoise"",""mustard"",""low nameability""]","right-left","[""mustard"",""turquoise""]","6","low nameability","55","right","response","1"
"html-audio-button-response","259","1533644","0.0-200.0-1.0","CAN_124","124","","","","","","null","stimuli/bleep.m4a","null","turquoise","mustard","[""turquoise"",""mustard"",""low nameability""]","right-left","[""mustard"",""turquoise""]","6","low nameability","55","right","audio_feedback","1"
"html-button-response","260","1534162","0.0-201.0","CAN_124","124","","","","","","null","<button class=""jspsych-btn""><img src=""stimuli/white_square.png"" style=""width: 200px;height: 200px;""></button>","null","turquoise","mustard","[""turquoise"",""mustard"",""low nameability""]","right-left","[""mustard"",""turquoise""]","6","low nameability","55","right","iti",""
"html-button-response","261","1534631","0.0-202.0","CAN_124","124","","","","","","446","","0","purple","yellow","[""purple"",""yellow"",""high nameability""]","left-right","[""purple"",""yellow"",""high nameability""]","6","high nameability","56","left","trigger",""
"html-button-response","262","1535126","0.0-203.0-0.0","CAN_124","124","","","","","","487","<button class=""jspsych-btn""><img src=""stimuli/purple.png"" style=""width: 200px;height: 200px;""></button>","0","purple","yellow","[""purple"",""yellow"",""high nameability""]","left-right","[""purple"",""yellow"",""high nameability""]","6","high nameability","56","left","response","1"
"html-audio-button-response","263","1535330","0.0-203.0-1.0","CAN_124","124","","","","","","null","stimuli/bleep.m4a","null","purple","yellow","[""purple"",""yellow"",""high nameability""]","left-right","[""purple"",""yellow"",""high nameability""]","6","high nameability","56","left","audio_feedback","1"
"html-button-response","264","1535844","0.0-204.0","CAN_124","124","","","","","","null","<button class=""jspsych-btn""><img src=""stimuli/white_square.png"" style=""width: 200px;height: 200px;""></button>","null","purple","yellow","[""purple"",""yellow"",""high nameability""]","left-right","[""purple"",""yellow"",""high nameability""]","6","high nameability","56","left","iti",""
"html-button-response","265","1536270","0.0-205.0","CAN_124","124","","","","","","409","","0","turquoise","darkgreenblue","[""turquoise"",""darkgreenblue"",""low nameability""]","left-right","[""turquoise"",""darkgreenblue"",""low nameability""]","6","low nameability","57","left","trigger",""
"html-button-response","266","1536825","0.0-206.0-0.0","CAN_124","124","","","","","","547","<button class=""jspsych-btn""><img src=""stimuli/turquoise.png"" style=""width: 200px;height: 200px;""></button>","0","turquoise","darkgreenblue","[""turquoise"",""darkgreenblue"",""low nameability""]","left-right","[""turquoise"",""darkgreenblue"",""low nameability""]","6","low nameability","57","left","response","1"
"html-audio-button-response","267","1537028","0.0-206.0-1.0","CAN_124","124","","","","","","null","stimuli/bleep.m4a","null","turquoise","darkgreenblue","[""turquoise"",""darkgreenblue"",""low nameability""]","left-right","[""turquoise"",""darkgreenblue"",""low nameability""]","6","low nameability","57","left","audio_feedback","1"
"html-button-response","268","1537552","0.0-207.0","CAN_124","124","","","","","","null","<button class=""jspsych-btn""><img src=""stimuli/white_square.png"" style=""width: 200px;height: 200px;""></button>","null","turquoise","darkgreenblue","[""turquoise"",""darkgreenblue"",""low nameability""]","left-right","[""turquoise"",""darkgreenblue"",""low nameability""]","6","low nameability","57","left","iti",""
"html-button-response","269","1537986","0.0-208.0","CAN_124","124","","","","","","416","","0","turquoise","neonyellow","[""turquoise"",""neonyellow"",""low nameability""]","left-right","[""turquoise"",""neonyellow"",""low nameability""]","6","low nameability","58","left","trigger",""
"html-button-response","270","1538582","0.0-209.0-0.0","CAN_124","124","","","","","","588","<button class=""jspsych-btn""><img src=""stimuli/turquoise.png"" style=""width: 200px;height: 200px;""></button>","0","turquoise","neonyellow","[""turquoise"",""neonyellow"",""low nameability""]","left-right","[""turquoise"",""neonyellow"",""low nameability""]","6","low nameability","58","left","response","1"
"html-audio-button-response","271","1538789","0.0-209.0-1.0","CAN_124","124","","","","","","null","stimuli/bleep.m4a","null","turquoise","neonyellow","[""turquoise"",""neonyellow"",""low nameability""]","left-right","[""turquoise"",""neonyellow"",""low nameability""]","6","low nameability","58","left","audio_feedback","1"
"html-button-response","272","1539312","0.0-210.0","CAN_124","124","","","","","","null","<button class=""jspsych-btn""><img src=""stimuli/white_square.png"" style=""width: 200px;height: 200px;""></button>","null","turquoise","neonyellow","[""turquoise"",""neonyellow"",""low nameability""]","left-right","[""turquoise"",""neonyellow"",""low nameability""]","6","low nameability","58","left","iti",""
"html-button-response","273","1539744","0.0-211.0","CAN_124","124","","","","","","415","","0","orange","purple","[""orange"",""purple"",""high nameability""]","right-left","[""purple"",""orange""]","6","high nameability","59","right","trigger",""
"html-button-response","274","1540330","0.0-212.0-0.0","CAN_124","124","","","","","","578","<button class=""jspsych-btn""><img src=""stimuli/orange.png"" style=""width: 200px;height: 200px;""></button>","1","orange","purple","[""orange"",""purple"",""high nameability""]","right-left","[""purple"",""orange""]","6","high nameability","59","right","response","1"
"html-audio-button-response","275","1540532","0.0-212.0-1.0","CAN_124","124","","","","","","null","stimuli/bleep.m4a","null","orange","purple","[""orange"",""purple"",""high nameability""]","right-left","[""purple"",""orange""]","6","high nameability","59","right","audio_feedback","1"
"html-button-response","276","1541053","0.0-213.0","CAN_124","124","","","","","","null","<button class=""jspsych-btn""><img src=""stimuli/white_square.png"" style=""width: 200px;height: 200px;""></button>","null","orange","purple","[""orange"",""purple"",""high nameability""]","right-left","[""purple"",""orange""]","6","high nameability","59","right","iti",""
"html-button-response","277","1541739","0.0-214.0","CAN_124","124","","","","","","670","","0","orange","red","[""orange"",""red"",""high nameability""]","left-right","[""orange"",""red"",""high nameability""]","6","high nameability","60","left","trigger",""
"html-button-response","278","1542326","0.0-215.0-0.0","CAN_124","124","","","","","","583","<button class=""jspsych-btn""><img src=""stimuli/orange.png"" style=""width: 200px;height: 200px;""></button>","0","orange","red","[""orange"",""red"",""high nameability""]","left-right","[""orange"",""red"",""high nameability""]","6","high nameability","60","left","response","1"
"html-audio-button-response","279","1542527","0.0-215.0-1.0","CAN_124","124","","","","","","null","stimuli/bleep.m4a","null","orange","red","[""orange"",""red"",""high nameability""]","left-right","[""orange"",""red"",""high nameability""]","6","high nameability","60","left","audio_feedback","1"
"html-button-response","280","1543047","0.0-216.0","CAN_124","124","","","","","","null","<button class=""jspsych-btn""><img src=""stimuli/white_square.png"" style=""width: 200px;height: 200px;""></button>","null","orange","red","[""orange"",""red"",""high nameability""]","left-right","[""orange"",""red"",""high nameability""]","6","high nameability","60","left","iti",""
