"trial_type","trial_index","time_elapsed","internal_node_id","subject_id","seed","success","timeout","failed_images","failed_audio","failed_video","rt","stimulus","response","target","foil","choices","combination_order","choices_in_order","round","condition","trial_counter","target_location","trial_kind","correct"
"pavlovia","0","24","0.0-0.0","CAN_127","127","","","","","","","","","","","","","","","","","","",""
"preload","1","767","0.0-1.0","CAN_127","127","true","false","[]","[]","[]","","","","","","","","","","","","","",""
"fullscreen","2","1142048","0.0-2.0","CAN_127","127","true","","","","","","","","","","","","","","","","","",""
"html-button-response","3","1184715","0.0-3.0","CAN_127","127","","","","","","42654","","0","","","","","","","","","","",""
"html-button-response","4","1188230","0.0-4.0","CAN_127","127","","","","","","3496","","0","star","square","[""square"",""star""]","left-right","[""square"",""star""]","1","practice","1","right","trigger",""
"html-button-response","5","1192060","0.0-5.0-0.0","CAN_127","127","","","","","","3818","<button class=""jspsych-btn""><img src=""stimuli/star.png"" style=""width: 200px;height: 200px;""></button>","1","star","square","[""square"",""star""]","left-right","[""square"",""star""]","1","practice","1","right","response","1"
"html-audio-button-response","6","1192275","0.0-5.0-1.0","CAN_127","127","","","","","","null","stimuli/bleep.m4a","null","star","square","[""square"",""star""]","left-right","[""square"",""star""]","1","practice","1","right","audio_feedback","1"
"html-button-response","7","1192817","0.0-6.0","CAN_127","127","","","","","","null","<button class=""jspsych-btn""><img src=""stimuli/white_square.png"" style=""width: 200px;height: 200px;""></button>","null","star","square","[""square"",""star""]","left-right","[""square"",""star""]","1","practice","1","right","iti",""
"html-button-response","8","1195234","0.0-7.0","CAN_127","127","","","","","","2397","","0","triangle","pentagram","[""triangle"",""pentagram""]","left-right","[""triangle"",""pentagram""]","1","practice","1","left","trigger",""
"html-button-response","9","1196073","0.0-8.0-0.0","CAN_127","127","","","","","","830","<button class=""jspsych-btn""><img src=""stimuli/triangle.png"" style=""width: 200px;height: 200px;""></button>","1","triangle","pentagram","[""triangle"",""pentagram""]","left-right","[""triangle"",""pentagram""]","1","practice","1","left","response","0"
"html-audio-button-response","10","1196708","0.0-8.0-1.0","CAN_127","127","","","","","","null","stimuli/boing.m4a","null","triangle","pentagram","[""triangle"",""pentagram""]","left-right","[""triangle"",""pentagram""]","1","practice","1","left","audio_feedback","0"
"html-button-response","11","1204024","0.0-8.1-0.1","CAN_127","127","","","","","","7292","<button class=""jspsych-btn""><img src=""stimuli/triangle.png"" style=""width: 200px;height: 200px;""></button>","0","triangle","pentagram","[""triangle"",""pentagram""]","left-right","[""triangle"",""pentagram""]","1","practice","1","left","response","1"
"html-audio-button-response","12","1204230","0.0-8.1-1.1","CAN_127","127","","","","","","null","stimuli/bleep.m4a","null","triangle","pentagram","[""triangle"",""pentagram""]","left-right","[""triangle"",""pentagram""]","1","practice","1","left","audio_feedback","1"
"html-button-response","13","1204748","0.0-9.0","CAN_127","127","","","","","","null","<button class=""jspsych-btn""><img src=""stimuli/white_square.png"" style=""width: 200px;height: 200px;""></button>","null","triangle","pentagram","[""triangle"",""pentagram""]","left-right","[""triangle"",""pentagram""]","1","practice","1","left","iti",""
"html-button-response","14","1205712","0.0-10.0","CAN_127","127","","","","","","943","","0","diamond","rectangle","[""rectangle"",""diamond""]","left-right","[""rectangle"",""diamond""]","1","practice","1","right","trigger",""
"html-button-response","15","1206827","0.0-11.0-0.0","CAN_127","127","","","","","","1105","<button class=""jspsych-btn""><img src=""stimuli/diamond.png"" style=""width: 200px;height: 200px;""></button>","1","diamond","rectangle","[""rectangle"",""diamond""]","left-right","[""rectangle"",""diamond""]","1","practice","1","right","response","1"
"html-audio-button-response","16","1207030","0.0-11.0-1.0","CAN_127","127","","","","","","null","stimuli/bleep.m4a","null","diamond","rectangle","[""rectangle"",""diamond""]","left-right","[""rectangle"",""diamond""]","1","practice","1","right","audio_feedback","1"
"html-button-response","17","1207548","0.0-12.0","CAN_127","127","","","","","","null","<button class=""jspsych-btn""><img src=""stimuli/white_square.png"" style=""width: 200px;height: 200px;""></button>","null","diamond","rectangle","[""rectangle"",""diamond""]","left-right","[""rectangle"",""diamond""]","1","practice","1","right","iti",""
"html-button-response","18","1208367","0.0-13.0","CAN_127","127","","","","","","807","","0","pentagram","star","[""pentagram"",""star""]","left-right","[""pentagram"",""star""]","1","practice","1","left","trigger",""
"html-button-response","19","1209577","0.0-14.0-0.0","CAN_127","127","","","","","","1199","<button class=""jspsych-btn""><img src=""stimuli/pentagram.png"" style=""width: 200px;height: 200px;""></button>","0","pentagram","star","[""pentagram"",""star""]","left-right","[""pentagram"",""star""]","1","practice","1","left","response","1"
"html-audio-button-response","20","1209786","0.0-14.0-1.0","CAN_127","127","","","","","","null","stimuli/bleep.m4a","null","pentagram","star","[""pentagram"",""star""]","left-right","[""pentagram"",""star""]","1","practice","1","left","audio_feedback","1"
"html-button-response","21","1210307","0.0-15.0","CAN_127","127","","","","","","null","<button class=""jspsych-btn""><img src=""stimuli/white_square.png"" style=""width: 200px;height: 200px;""></button>","null","pentagram","star","[""pentagram"",""star""]","left-right","[""pentagram"",""star""]","1","practice","1","left","iti",""
"html-button-response","22","1218611","0.0-16.0","CAN_127","127","","","","","","8286","","0","","","","","","","","","","",""
"html-button-response","23","1219371","0.0-17.0","CAN_127","127","","","","","","753","","0","purple","brown","[""purple"",""brown"",""high nameability""]","left-right","[""purple"",""brown"",""high nameability""]","1","high nameability","1","left","trigger",""
"html-button-response","24","1220170","0.0-18.0-0.0","CAN_127","127","","","","","","790","<button class=""jspsych-btn""><img src=""stimuli/purple.png"" style=""width: 200px;height: 200px;""></button>","0","purple","brown","[""purple"",""brown"",""high nameability""]","left-right","[""purple"",""brown"",""high nameability""]","1","high nameability","1","left","response","1"
"html-audio-button-response","25","1220375","0.0-18.0-1.0","CAN_127","127","","","","","","null","stimuli/bleep.m4a","null","purple","brown","[""purple"",""brown"",""high nameability""]","left-right","[""purple"",""brown"",""high nameability""]","1","high nameability","1","left","audio_feedback","1"
"html-button-response","26","1220893","0.0-19.0","CAN_127","127","","","","","","null","<button class=""jspsych-btn""><img src=""stimuli/white_square.png"" style=""width: 200px;height: 200px;""></button>","null","purple","brown","[""purple"",""brown"",""high nameability""]","left-right","[""purple"",""brown"",""high nameability""]","1","high nameability","1","left","iti",""
"html-button-response","27","1223192","0.0-20.0","CAN_127","127","","","","","","2279","","0","yellow","orange","[""yellow"",""orange"",""high nameability""]","right-left","[""orange"",""yellow""]","1","high nameability","2","right","trigger",""
"html-button-response","28","1224403","0.0-21.0-0.0","CAN_127","127","","","","","","1201","<button class=""jspsych-btn""><img src=""stimuli/yellow.png"" style=""width: 200px;height: 200px;""></button>","1","yellow","orange","[""yellow"",""orange"",""high nameability""]","right-left","[""orange"",""yellow""]","1","high nameability","2","right","response","1"
"html-audio-button-response","29","1224610","0.0-21.0-1.0","CAN_127","127","","","","","","null","stimuli/bleep.m4a","null","yellow","orange","[""yellow"",""orange"",""high nameability""]","right-left","[""orange"",""yellow""]","1","high nameability","2","right","audio_feedback","1"
"html-button-response","30","1225136","0.0-22.0","CAN_127","127","","","","","","null","<button class=""jspsych-btn""><img src=""stimuli/white_square.png"" style=""width: 200px;height: 200px;""></button>","null","yellow","orange","[""yellow"",""orange"",""high nameability""]","right-left","[""orange"",""yellow""]","1","high nameability","2","right","iti",""
"html-button-response","31","1225854","0.0-23.0","CAN_127","127","","","","","","700","","0","darkgreenblue","lightred","[""darkgreenblue"",""lightred"",""low nameability""]","right-left","[""lightred"",""darkgreenblue""]","1","low nameability","3","right","trigger",""
"html-button-response","32","1226987","0.0-24.0-0.0","CAN_127","127","","","","","","1126","<button class=""jspsych-btn""><img src=""stimuli/darkgreenblue.png"" style=""width: 200px;height: 200px;""></button>","1","darkgreenblue","lightred","[""darkgreenblue"",""lightred"",""low nameability""]","right-left","[""lightred"",""darkgreenblue""]","1","low nameability","3","right","response","1"
"html-audio-button-response","33","1227198","0.0-24.0-1.0","CAN_127","127","","","","","","null","stimuli/bleep.m4a","null","darkgreenblue","lightred","[""darkgreenblue"",""lightred"",""low nameability""]","right-left","[""lightred"",""darkgreenblue""]","1","low nameability","3","right","audio_feedback","1"
"html-button-response","34","1227718","0.0-25.0","CAN_127","127","","","","","","null","<button class=""jspsych-btn""><img src=""stimuli/white_square.png"" style=""width: 200px;height: 200px;""></button>","null","darkgreenblue","lightred","[""darkgreenblue"",""lightred"",""low nameability""]","right-left","[""lightred"",""darkgreenblue""]","1","low nameability","3","right","iti",""
"html-button-response","35","1228774","0.0-26.0","CAN_127","127","","","","","","1030","","0","brown","yellow","[""brown"",""yellow"",""high nameability""]","right-left","[""yellow"",""brown""]","1","high nameability","4","right","trigger",""
"html-button-response","36","1229773","0.0-27.0-0.0","CAN_127","127","","","","","","990","<button class=""jspsych-btn""><img src=""stimuli/brown.png"" style=""width: 200px;height: 200px;""></button>","1","brown","yellow","[""brown"",""yellow"",""high nameability""]","right-left","[""yellow"",""brown""]","1","high nameability","4","right","response","1"
"html-audio-button-response","37","1229979","0.0-27.0-1.0","CAN_127","127","","","","","","null","stimuli/bleep.m4a","null","brown","yellow","[""brown"",""yellow"",""high nameability""]","right-left","[""yellow"",""brown""]","1","high nameability","4","right","audio_feedback","1"
"html-button-response","38","1230494","0.0-28.0","CAN_127","127","","","","","","null","<button class=""jspsych-btn""><img src=""stimuli/white_square.png"" style=""width: 200px;height: 200px;""></button>","null","brown","yellow","[""brown"",""yellow"",""high nameability""]","right-left","[""yellow"",""brown""]","1","high nameability","4","right","iti",""
"html-button-response","39","1231224","0.0-29.0","CAN_127","127","","","","","","715","","0","orange","brown","[""orange"",""brown"",""high nameability""]","left-right","[""orange"",""brown"",""high nameability""]","1","high nameability","5","left","trigger",""
"html-button-response","40","1231985","0.0-30.0-0.0","CAN_127","127","","","","","","753","<button class=""jspsych-btn""><img src=""stimuli/orange.png"" style=""width: 200px;height: 200px;""></button>","0","orange","brown","[""orange"",""brown"",""high nameability""]","left-right","[""orange"",""brown"",""high nameability""]","1","high nameability","5","left","response","1"
"html-audio-button-response","41","1232184","0.0-30.0-1.0","CAN_127","127","","","","","","null","stimuli/bleep.m4a","null","orange","brown","[""orange"",""brown"",""high nameability""]","left-right","[""orange"",""brown"",""high nameability""]","1","high nameability","5","left","audio_feedback","1"
"html-button-response","42","1232704","0.0-31.0","CAN_127","127","","","","","","null","<button class=""jspsych-btn""><img src=""stimuli/white_square.png"" style=""width: 200px;height: 200px;""></button>","null","orange","brown","[""orange"",""brown"",""high nameability""]","left-right","[""orange"",""brown"",""high nameability""]","1","high nameability","5","left","iti",""
"html-button-response","43","1233269","0.0-32.0","CAN_127","127","","","","","","545","","0","orange","blue","[""orange"",""blue"",""high nameability""]","left-right","[""orange"",""blue"",""high nameability""]","1","high nameability","6","left","trigger",""
"html-button-response","44","1233927","0.0-33.0-0.0","CAN_127","127","","","","","","650","<button class=""jspsych-btn""><img src=""stimuli/orange.png"" style=""width: 200px;height: 200px;""></button>","1","orange","blue","[""orange"",""blue"",""high nameability""]","left-right","[""orange"",""blue"",""high nameability""]","1","high nameability","6","left","response","0"
"html-audio-button-response","45","1234567","0.0-33.0-1.0","CAN_127","127","","","","","","null","stimuli/boing.m4a","null","orange","blue","[""orange"",""blue"",""high nameability""]","left-right","[""orange"",""blue"",""high nameability""]","1","high nameability","6","left","audio_feedback","0"
"html-button-response","46","1235436","0.0-33.1-0.1","CAN_127","127","","","","","","841","<button class=""jspsych-btn""><img src=""stimuli/orange.png"" style=""width: 200px;height: 200px;""></button>","0","orange","blue","[""orange"",""blue"",""high nameability""]","left-right","[""orange"",""blue"",""high nameability""]","1","high nameability","6","left","response","1"
"html-audio-button-response","47","1235641","0.0-33.1-1.1","CAN_127","127","","","","","","null","stimuli/bleep.m4a","null","orange","blue","[""orange"",""blue"",""high nameability""]","left-right","[""orange"",""blue"",""high nameability""]","1","high nameability","6","left","audio_feedback","1"
"html-button-response","48","1236160","0.0-34.0","CAN_127","127","","","","","","null","<button class=""jspsych-btn""><img src=""stimuli/white_square.png"" style=""width: 200px;height: 200px;""></button>","null","orange","blue","[""orange"",""blue"",""high nameability""]","left-right","[""orange"",""blue"",""high nameability""]","1","high nameability","6","left","iti",""
"html-button-response","49","1236914","0.0-35.0","CAN_127","127","","","","","","731","","0","lightred","pink","[""lightred"",""pink"",""low nameability""]","left-right","[""lightred"",""pink"",""low nameability""]","1","low nameability","7","left","trigger",""
"html-button-response","50","1238743","0.0-36.0-0.0","CAN_127","127","","","","","","1823","<button class=""jspsych-btn""><img src=""stimuli/lightred.png"" style=""width: 200px;height: 200px;""></button>","0","lightred","pink","[""lightred"",""pink"",""low nameability""]","left-right","[""lightred"",""pink"",""low nameability""]","1","low nameability","7","left","response","1"
"html-audio-button-response","51","1238947","0.0-36.0-1.0","CAN_127","127","","","","","","null","stimuli/bleep.m4a","null","lightred","pink","[""lightred"",""pink"",""low nameability""]","left-right","[""lightred"",""pink"",""low nameability""]","1","low nameability","7","left","audio_feedback","1"
"html-button-response","52","1239470","0.0-37.0","CAN_127","127","","","","","","null","<button class=""jspsych-btn""><img src=""stimuli/white_square.png"" style=""width: 200px;height: 200px;""></button>","null","lightred","pink","[""lightred"",""pink"",""low nameability""]","left-right","[""lightred"",""pink"",""low nameability""]","1","low nameability","7","left","iti",""
"html-button-response","53","1240189","0.0-38.0","CAN_127","127","","","","","","696","","0","red","orange","[""red"",""orange"",""high nameability""]","right-left","[""orange"",""red""]","1","high nameability","8","right","trigger",""
"html-button-response","54","1241028","0.0-39.0-0.0","CAN_127","127","","","","","","831","<button class=""jspsych-btn""><img src=""stimuli/red.png"" style=""width: 200px;height: 200px;""></button>","1","red","orange","[""red"",""orange"",""high nameability""]","right-left","[""orange"",""red""]","1","high nameability","8","right","response","1"
"html-audio-button-response","55","1241230","0.0-39.0-1.0","CAN_127","127","","","","","","null","stimuli/bleep.m4a","null","red","orange","[""red"",""orange"",""high nameability""]","right-left","[""orange"",""red""]","1","high nameability","8","right","audio_feedback","1"
"html-button-response","56","1241752","0.0-40.0","CAN_127","127","","","","","","null","<button class=""jspsych-btn""><img src=""stimuli/white_square.png"" style=""width: 200px;height: 200px;""></button>","null","red","orange","[""red"",""orange"",""high nameability""]","right-left","[""orange"",""red""]","1","high nameability","8","right","iti",""
"html-button-response","57","1242365","0.0-41.0","CAN_127","127","","","","","","605","","0","darkgreenblue","turquoise","[""darkgreenblue"",""turquoise"",""low nameability""]","right-left","[""turquoise"",""darkgreenblue""]","1","low nameability","9","right","trigger",""
"html-button-response","58","1243192","0.0-42.0-0.0","CAN_127","127","","","","","","819","<button class=""jspsych-btn""><img src=""stimuli/darkgreenblue.png"" style=""width: 200px;height: 200px;""></button>","1","darkgreenblue","turquoise","[""darkgreenblue"",""turquoise"",""low nameability""]","right-left","[""turquoise"",""darkgreenblue""]","1","low nameability","9","right","response","1"
"html-audio-button-response","59","1243397","0.0-42.0-1.0","CAN_127","127","","","","","","null","stimuli/bleep.m4a","null","darkgreenblue","turquoise","[""darkgreenblue"",""turquoise"",""low nameability""]","right-left","[""turquoise"",""darkgreenblue""]","1","low nameability","9","right","audio_feedback","1"
"html-button-response","60","1243915","0.0-43.0","CAN_127","127","","","","","","null","<button class=""jspsych-btn""><img src=""stimuli/white_square.png"" style=""width: 200px;height: 200px;""></button>","null","darkgreenblue","turquoise","[""darkgreenblue"",""turquoise"",""low nameability""]","right-left","[""turquoise"",""darkgreenblue""]","1","low nameability","9","right","iti",""
"html-button-response","61","1244457","0.0-44.0","CAN_127","127","","","","","","527","","0","brown","purple","[""brown"",""purple"",""high nameability""]","right-left","[""purple"",""brown""]","1","high nameability","10","right","trigger",""
"html-button-response","62","1245235","0.0-45.0-0.0","CAN_127","127","","","","","","771","<button class=""jspsych-btn""><img src=""stimuli/brown.png"" style=""width: 200px;height: 200px;""></button>","1","brown","purple","[""brown"",""purple"",""high nameability""]","right-left","[""purple"",""brown""]","1","high nameability","10","right","response","1"
"html-audio-button-response","63","1245440","0.0-45.0-1.0","CAN_127","127","","","","","","null","stimuli/bleep.m4a","null","brown","purple","[""brown"",""purple"",""high nameability""]","right-left","[""purple"",""brown""]","1","high nameability","10","right","audio_feedback","1"
"html-button-response","64","1245953","0.0-46.0","CAN_127","127","","","","","","null","<button class=""jspsych-btn""><img src=""stimuli/white_square.png"" style=""width: 200px;height: 200px;""></button>","null","brown","purple","[""brown"",""purple"",""high nameability""]","right-left","[""purple"",""brown""]","1","high nameability","10","right","iti",""
"pavlovia","65","1246059","0.0-47.0","CAN_127","127","","","","","","","","","","","","","","","","","","",""
"pavlovia","66","1246075","0.0-48.0","CAN_127","127","","","","","","","","","","","","","","","","","","",""
"html-audio-button-response","67","1247730","0.0-49.0","CAN_127","127","","","","","","1771","stimuli/tada.m4a","0","","","","","","","","","","",""
"html-button-response","68","1248560","0.0-50.0","CAN_127","127","","","","","","822","","0","","","","","","","","","","",""
"html-button-response","69","1249174","0.0-51.0","CAN_127","127","","","","","","607","","0","brown","blue","[""brown"",""blue"",""high nameability""]","left-right","[""brown"",""blue"",""high nameability""]","2","high nameability","11","left","trigger",""
"html-button-response","70","1250172","0.0-52.0-0.0","CAN_127","127","","","","","","991","<button class=""jspsych-btn""><img src=""stimuli/brown.png"" style=""width: 200px;height: 200px;""></button>","0","brown","blue","[""brown"",""blue"",""high nameability""]","left-right","[""brown"",""blue"",""high nameability""]","2","high nameability","11","left","response","1"
"html-audio-button-response","71","1250374","0.0-52.0-1.0","CAN_127","127","","","","","","null","stimuli/bleep.m4a","null","brown","blue","[""brown"",""blue"",""high nameability""]","left-right","[""brown"",""blue"",""high nameability""]","2","high nameability","11","left","audio_feedback","1"
"html-button-response","72","1250895","0.0-53.0","CAN_127","127","","","","","","null","<button class=""jspsych-btn""><img src=""stimuli/white_square.png"" style=""width: 200px;height: 200px;""></button>","null","brown","blue","[""brown"",""blue"",""high nameability""]","left-right","[""brown"",""blue"",""high nameability""]","2","high nameability","11","left","iti",""
"html-button-response","73","1251578","0.0-54.0","CAN_127","127","","","","","","665","","0","mustard","turquoise","[""mustard"",""turquoise"",""low nameability""]","right-left","[""turquoise"",""mustard""]","2","low nameability","12","right","trigger",""
"html-button-response","74","1252379","0.0-55.0-0.0","CAN_127","127","","","","","","794","<button class=""jspsych-btn""><img src=""stimuli/mustard.png"" style=""width: 200px;height: 200px;""></button>","1","mustard","turquoise","[""mustard"",""turquoise"",""low nameability""]","right-left","[""turquoise"",""mustard""]","2","low nameability","12","right","response","1"
"html-audio-button-response","75","1252581","0.0-55.0-1.0","CAN_127","127","","","","","","null","stimuli/bleep.m4a","null","mustard","turquoise","[""mustard"",""turquoise"",""low nameability""]","right-left","[""turquoise"",""mustard""]","2","low nameability","12","right","audio_feedback","1"
"html-button-response","76","1253099","0.0-56.0","CAN_127","127","","","","","","null","<button class=""jspsych-btn""><img src=""stimuli/white_square.png"" style=""width: 200px;height: 200px;""></button>","null","mustard","turquoise","[""mustard"",""turquoise"",""low nameability""]","right-left","[""turquoise"",""mustard""]","2","low nameability","12","right","iti",""
"html-button-response","77","1253649","0.0-57.0","CAN_127","127","","","","","","535","","0","pink","darkgreenblue","[""pink"",""darkgreenblue"",""low nameability""]","right-left","[""darkgreenblue"",""pink""]","2","low nameability","13","right","trigger",""
"html-button-response","78","1254316","0.0-58.0-0.0","CAN_127","127","","","","","","661","<button class=""jspsych-btn""><img src=""stimuli/pink.png"" style=""width: 200px;height: 200px;""></button>","1","pink","darkgreenblue","[""pink"",""darkgreenblue"",""low nameability""]","right-left","[""darkgreenblue"",""pink""]","2","low nameability","13","right","response","1"
"html-audio-button-response","79","1254517","0.0-58.0-1.0","CAN_127","127","","","","","","null","stimuli/bleep.m4a","null","pink","darkgreenblue","[""pink"",""darkgreenblue"",""low nameability""]","right-left","[""darkgreenblue"",""pink""]","2","low nameability","13","right","audio_feedback","1"
"html-button-response","80","1255041","0.0-59.0","CAN_127","127","","","","","","null","<button class=""jspsych-btn""><img src=""stimuli/white_square.png"" style=""width: 200px;height: 200px;""></button>","null","pink","darkgreenblue","[""pink"",""darkgreenblue"",""low nameability""]","right-left","[""darkgreenblue"",""pink""]","2","low nameability","13","right","iti",""
"html-button-response","81","1255685","0.0-60.0","CAN_127","127","","","","","","627","","0","turquoise","darkgreenblue","[""turquoise"",""darkgreenblue"",""low nameability""]","left-right","[""turquoise"",""darkgreenblue"",""low nameability""]","2","low nameability","14","left","trigger",""
"html-button-response","82","1256502","0.0-61.0-0.0","CAN_127","127","","","","","","810","<button class=""jspsych-btn""><img src=""stimuli/turquoise.png"" style=""width: 200px;height: 200px;""></button>","0","turquoise","darkgreenblue","[""turquoise"",""darkgreenblue"",""low nameability""]","left-right","[""turquoise"",""darkgreenblue"",""low nameability""]","2","low nameability","14","left","response","1"
"html-audio-button-response","83","1256707","0.0-61.0-1.0","CAN_127","127","","","","","","null","stimuli/bleep.m4a","null","turquoise","darkgreenblue","[""turquoise"",""darkgreenblue"",""low nameability""]","left-right","[""turquoise"",""darkgreenblue"",""low nameability""]","2","low nameability","14","left","audio_feedback","1"
"html-button-response","84","1257228","0.0-62.0","CAN_127","127","","","","","","null","<button class=""jspsych-btn""><img src=""stimuli/white_square.png"" style=""width: 200px;height: 200px;""></button>","null","turquoise","darkgreenblue","[""turquoise"",""darkgreenblue"",""low nameability""]","left-right","[""turquoise"",""darkgreenblue"",""low nameability""]","2","low nameability","14","left","iti",""
"html-button-response","85","1257704","0.0-63.0","CAN_127","127","","","","","","462","","0","pink","turquoise","[""pink"",""turquoise"",""low nameability""]","right-left","[""turquoise"",""pink""]","2","low nameability","15","right","trigger",""
"html-button-response","86","1258426","0.0-64.0-0.0","CAN_127","127","","","","","","714","<button class=""jspsych-btn""><img src=""stimuli/pink.png"" style=""width: 200px;height: 200px;""></button>","1","pink","turquoise","[""pink"",""turquoise"",""low nameability""]","right-left","[""turquoise"",""pink""]","2","low nameability","15","right","response","1"
"html-audio-button-response","87","1258629","0.0-64.0-1.0","CAN_127","127","","","","","","null","stimuli/bleep.m4a","null","pink","turquoise","[""pink"",""turquoise"",""low nameability""]","right-left","[""turquoise"",""pink""]","2","low nameability","15","right","audio_feedback","1"
"html-button-response","88","1259151","0.0-65.0","CAN_127","127","","","","","","null","<button class=""jspsych-btn""><img src=""stimuli/white_square.png"" style=""width: 200px;height: 200px;""></button>","null","pink","turquoise","[""pink"",""turquoise"",""low nameability""]","right-left","[""turquoise"",""pink""]","2","low nameability","15","right","iti",""
"html-button-response","89","1259689","0.0-66.0","CAN_127","127","","","","","","515","","0","blue","brown","[""blue"",""brown"",""high nameability""]","right-left","[""brown"",""blue""]","2","high nameability","16","right","trigger",""
"html-button-response","90","1260370","0.0-67.0-0.0","CAN_127","127","","","","","","670","<button class=""jspsych-btn""><img src=""stimuli/blue.png"" style=""width: 200px;height: 200px;""></button>","1","blue","brown","[""blue"",""brown"",""high nameability""]","right-left","[""brown"",""blue""]","2","high nameability","16","right","response","1"
"html-audio-button-response","91","1260572","0.0-67.0-1.0","CAN_127","127","","","","","","null","stimuli/bleep.m4a","null","blue","brown","[""blue"",""brown"",""high nameability""]","right-left","[""brown"",""blue""]","2","high nameability","16","right","audio_feedback","1"
"html-button-response","92","1261091","0.0-68.0","CAN_127","127","","","","","","null","<button class=""jspsych-btn""><img src=""stimuli/white_square.png"" style=""width: 200px;height: 200px;""></button>","null","blue","brown","[""blue"",""brown"",""high nameability""]","right-left","[""brown"",""blue""]","2","high nameability","16","right","iti",""
"html-button-response","93","1261575","0.0-69.0","CAN_127","127","","","","","","468","","0","neonyellow","pink","[""neonyellow"",""pink"",""low nameability""]","right-left","[""pink"",""neonyellow""]","2","low nameability","17","right","trigger",""
"html-button-response","94","1262264","0.0-70.0-0.0","CAN_127","127","","","","","","681","<button class=""jspsych-btn""><img src=""stimuli/neonyellow.png"" style=""width: 200px;height: 200px;""></button>","1","neonyellow","pink","[""neonyellow"",""pink"",""low nameability""]","right-left","[""pink"",""neonyellow""]","2","low nameability","17","right","response","1"
"html-audio-button-response","95","1262470","0.0-70.0-1.0","CAN_127","127","","","","","","null","stimuli/bleep.m4a","null","neonyellow","pink","[""neonyellow"",""pink"",""low nameability""]","right-left","[""pink"",""neonyellow""]","2","low nameability","17","right","audio_feedback","1"
"html-button-response","96","1262992","0.0-71.0","CAN_127","127","","","","","","null","<button class=""jspsych-btn""><img src=""stimuli/white_square.png"" style=""width: 200px;height: 200px;""></button>","null","neonyellow","pink","[""neonyellow"",""pink"",""low nameability""]","right-left","[""pink"",""neonyellow""]","2","low nameability","17","right","iti",""
"html-button-response","97","1263570","0.0-72.0","CAN_127","127","","","","","","560","","0","darkgreenblue","mustard","[""darkgreenblue"",""mustard"",""low nameability""]","right-left","[""mustard"",""darkgreenblue""]","2","low nameability","18","right","trigger",""
"html-button-response","98","1264253","0.0-73.0-0.0","CAN_127","127","","","","","","677","<button class=""jspsych-btn""><img src=""stimuli/darkgreenblue.png"" style=""width: 200px;height: 200px;""></button>","1","darkgreenblue","mustard","[""darkgreenblue"",""mustard"",""low nameability""]","right-left","[""mustard"",""darkgreenblue""]","2","low nameability","18","right","response","1"
"html-audio-button-response","99","1264455","0.0-73.0-1.0","CAN_127","127","","","","","","null","stimuli/bleep.m4a","null","darkgreenblue","mustard","[""darkgreenblue"",""mustard"",""low nameability""]","right-left","[""mustard"",""darkgreenblue""]","2","low nameability","18","right","audio_feedback","1"
"html-button-response","100","1264977","0.0-74.0","CAN_127","127","","","","","","null","<button class=""jspsych-btn""><img src=""stimuli/white_square.png"" style=""width: 200px;height: 200px;""></button>","null","darkgreenblue","mustard","[""darkgreenblue"",""mustard"",""low nameability""]","right-left","[""mustard"",""darkgreenblue""]","2","low nameability","18","right","iti",""
"html-button-response","101","1265485","0.0-75.0","CAN_127","127","","","","","","494","","0","mustard","darkgreenblue","[""mustard"",""darkgreenblue"",""low nameability""]","left-right","[""mustard"",""darkgreenblue"",""low nameability""]","2","low nameability","19","left","trigger",""
"html-button-response","102","1266354","0.0-76.0-0.0","CAN_127","127","","","","","","861","<button class=""jspsych-btn""><img src=""stimuli/mustard.png"" style=""width: 200px;height: 200px;""></button>","0","mustard","darkgreenblue","[""mustard"",""darkgreenblue"",""low nameability""]","left-right","[""mustard"",""darkgreenblue"",""low nameability""]","2","low nameability","19","left","response","1"
"html-audio-button-response","103","1266560","0.0-76.0-1.0","CAN_127","127","","","","","","null","stimuli/bleep.m4a","null","mustard","darkgreenblue","[""mustard"",""darkgreenblue"",""low nameability""]","left-right","[""mustard"",""darkgreenblue"",""low nameability""]","2","low nameability","19","left","audio_feedback","1"
"html-button-response","104","1267076","0.0-77.0","CAN_127","127","","","","","","null","<button class=""jspsych-btn""><img src=""stimuli/white_square.png"" style=""width: 200px;height: 200px;""></button>","null","mustard","darkgreenblue","[""mustard"",""darkgreenblue"",""low nameability""]","left-right","[""mustard"",""darkgreenblue"",""low nameability""]","2","low nameability","19","left","iti",""
"html-button-response","105","1267813","0.0-78.0","CAN_127","127","","","","","","719","","0","darkgreenblue","pink","[""darkgreenblue"",""pink"",""low nameability""]","right-left","[""pink"",""darkgreenblue""]","2","low nameability","20","right","trigger",""
"html-button-response","106","1268601","0.0-79.0-0.0","CAN_127","127","","","","","","779","<button class=""jspsych-btn""><img src=""stimuli/darkgreenblue.png"" style=""width: 200px;height: 200px;""></button>","1","darkgreenblue","pink","[""darkgreenblue"",""pink"",""low nameability""]","right-left","[""pink"",""darkgreenblue""]","2","low nameability","20","right","response","1"
"html-audio-button-response","107","1268806","0.0-79.0-1.0","CAN_127","127","","","","","","null","stimuli/bleep.m4a","null","darkgreenblue","pink","[""darkgreenblue"",""pink"",""low nameability""]","right-left","[""pink"",""darkgreenblue""]","2","low nameability","20","right","audio_feedback","1"
"html-button-response","108","1269327","0.0-80.0","CAN_127","127","","","","","","null","<button class=""jspsych-btn""><img src=""stimuli/white_square.png"" style=""width: 200px;height: 200px;""></button>","null","darkgreenblue","pink","[""darkgreenblue"",""pink"",""low nameability""]","right-left","[""pink"",""darkgreenblue""]","2","low nameability","20","right","iti",""
"pavlovia","109","1269402","0.0-81.0","CAN_127","127","","","","","","","","","","","","","","","","","","",""
"pavlovia","110","1269413","0.0-82.0","CAN_127","127","","","","","","","","","","","","","","","","","","",""
"html-audio-button-response","111","1270718","0.0-83.0","CAN_127","127","","","","","","1395","stimuli/tada.m4a","0","","","","","","","","","","",""
"html-button-response","112","1271499","0.0-84.0","CAN_127","127","","","","","","775","","0","","","","","","","","","","",""
"html-button-response","113","1272264","0.0-85.0","CAN_127","127","","","","","","757","","0","lightred","darkgreenblue","[""lightred"",""darkgreenblue"",""low nameability""]","right-left","[""darkgreenblue"",""lightred""]","3","low nameability","21","right","trigger",""
"html-button-response","114","1272903","0.0-86.0-0.0","CAN_127","127","","","","","","630","<button class=""jspsych-btn""><img src=""stimuli/lightred.png"" style=""width: 200px;height: 200px;""></button>","1","lightred","darkgreenblue","[""lightred"",""darkgreenblue"",""low nameability""]","right-left","[""darkgreenblue"",""lightred""]","3","low nameability","21","right","response","1"
"html-audio-button-response","115","1273109","0.0-86.0-1.0","CAN_127","127","","","","","","null","stimuli/bleep.m4a","null","lightred","darkgreenblue","[""lightred"",""darkgreenblue"",""low nameability""]","right-left","[""darkgreenblue"",""lightred""]","3","low nameability","21","right","audio_feedback","1"
"html-button-response","116","1273629","0.0-87.0","CAN_127","127","","","","","","null","<button class=""jspsych-btn""><img src=""stimuli/white_square.png"" style=""width: 200px;height: 200px;""></button>","null","lightred","darkgreenblue","[""lightred"",""darkgreenblue"",""low nameability""]","right-left","[""darkgreenblue"",""lightred""]","3","low nameability","21","right","iti",""
"html-button-response","117","1274194","0.0-88.0","CAN_127","127","","","","","","547","","0","red","yellow","[""red"",""yellow"",""high nameability""]","left-right","[""red"",""yellow"",""high nameability""]","3","high nameability","22","left","trigger",""
"html-button-response","118","1274992","0.0-89.0-0.0","CAN_127","127","","","","","","791","<button class=""jspsych-btn""><img src=""stimuli/red.png"" style=""width: 200px;height: 200px;""></button>","0","red","yellow","[""red"",""yellow"",""high nameability""]","left-right","[""red"",""yellow"",""high nameability""]","3","high nameability","22","left","response","1"
"html-audio-button-response","119","1275197","0.0-89.0-1.0","CAN_127","127","","","","","","null","stimuli/bleep.m4a","null","red","yellow","[""red"",""yellow"",""high nameability""]","left-right","[""red"",""yellow"",""high nameability""]","3","high nameability","22","left","audio_feedback","1"
"html-button-response","120","1275717","0.0-90.0","CAN_127","127","","","","","","null","<button class=""jspsych-btn""><img src=""stimuli/white_square.png"" style=""width: 200px;height: 200px;""></button>","null","red","yellow","[""red"",""yellow"",""high nameability""]","left-right","[""red"",""yellow"",""high nameability""]","3","high nameability","22","left","iti",""
"html-button-response","121","1276231","0.0-91.0","CAN_127","127","","","","","","499","","0","orange","yellow","[""orange"",""yellow"",""high nameability""]","left-right","[""orange"",""yellow"",""high nameability""]","3","high nameability","23","left","trigger",""
"html-button-response","122","1276966","0.0-92.0-0.0","CAN_127","127","","","","","","729","<button class=""jspsych-btn""><img src=""stimuli/orange.png"" style=""width: 200px;height: 200px;""></button>","0","orange","yellow","[""orange"",""yellow"",""high nameability""]","left-right","[""orange"",""yellow"",""high nameability""]","3","high nameability","23","left","response","1"
"html-audio-button-response","123","1277175","0.0-92.0-1.0","CAN_127","127","","","","","","null","stimuli/bleep.m4a","null","orange","yellow","[""orange"",""yellow"",""high nameability""]","left-right","[""orange"",""yellow"",""high nameability""]","3","high nameability","23","left","audio_feedback","1"
"html-button-response","124","1277695","0.0-93.0","CAN_127","127","","","","","","null","<button class=""jspsych-btn""><img src=""stimuli/white_square.png"" style=""width: 200px;height: 200px;""></button>","null","orange","yellow","[""orange"",""yellow"",""high nameability""]","left-right","[""orange"",""yellow"",""high nameability""]","3","high nameability","23","left","iti",""
"html-button-response","125","1278220","0.0-94.0","CAN_127","127","","","","","","507","","0","yellow","purple","[""yellow"",""purple"",""high nameability""]","left-right","[""yellow"",""purple"",""high nameability""]","3","high nameability","24","left","trigger",""
"html-button-response","126","1279068","0.0-95.0-0.0","CAN_127","127","","","","","","841","<button class=""jspsych-btn""><img src=""stimuli/yellow.png"" style=""width: 200px;height: 200px;""></button>","0","yellow","purple","[""yellow"",""purple"",""high nameability""]","left-right","[""yellow"",""purple"",""high nameability""]","3","high nameability","24","left","response","1"
"html-audio-button-response","127","1279274","0.0-95.0-1.0","CAN_127","127","","","","","","null","stimuli/bleep.m4a","null","yellow","purple","[""yellow"",""purple"",""high nameability""]","left-right","[""yellow"",""purple"",""high nameability""]","3","high nameability","24","left","audio_feedback","1"
"html-button-response","128","1279789","0.0-96.0","CAN_127","127","","","","","","null","<button class=""jspsych-btn""><img src=""stimuli/white_square.png"" style=""width: 200px;height: 200px;""></button>","null","yellow","purple","[""yellow"",""purple"",""high nameability""]","left-right","[""yellow"",""purple"",""high nameability""]","3","high nameability","24","left","iti",""
"html-button-response","129","1280223","0.0-97.0","CAN_127","127","","","","","","411","","0","orange","purple","[""orange"",""purple"",""high nameability""]","right-left","[""purple"",""orange""]","3","high nameability","25","right","trigger",""
"html-button-response","130","1280838","0.0-98.0-0.0","CAN_127","127","","","","","","605","<button class=""jspsych-btn""><img src=""stimuli/orange.png"" style=""width: 200px;height: 200px;""></button>","1","orange","purple","[""orange"",""purple"",""high nameability""]","right-left","[""purple"",""orange""]","3","high nameability","25","right","response","1"
"html-audio-button-response","131","1281042","0.0-98.0-1.0","CAN_127","127","","","","","","null","stimuli/bleep.m4a","null","orange","purple","[""orange"",""purple"",""high nameability""]","right-left","[""purple"",""orange""]","3","high nameability","25","right","audio_feedback","1"
"html-button-response","132","1281565","0.0-99.0","CAN_127","127","","","","","","null","<button class=""jspsych-btn""><img src=""stimuli/white_square.png"" style=""width: 200px;height: 200px;""></button>","null","orange","purple","[""orange"",""purple"",""high nameability""]","right-left","[""purple"",""orange""]","3","high nameability","25","right","iti",""
"html-button-response","133","1282041","0.0-100.0","CAN_127","127","","","","","","458","","0","turquoise","lightred","[""turquoise"",""lightred"",""low nameability""]","left-right","[""turquoise"",""lightred"",""low nameability""]","3","low nameability","26","left","trigger",""
"html-button-response","134","1282741","0.0-101.0-0.0","CAN_127","127","","","","","","691","<button class=""jspsych-btn""><img src=""stimuli/turquoise.png"" style=""width: 200px;height: 200px;""></button>","0","turquoise","lightred","[""turquoise"",""lightred"",""low nameability""]","left-right","[""turquoise"",""lightred"",""low nameability""]","3","low nameability","26","left","response","1"
"html-audio-button-response","135","1282945","0.0-101.0-1.0","CAN_127","127","","","","","","null","stimuli/bleep.m4a","null","turquoise","lightred","[""turquoise"",""lightred"",""low nameability""]","left-right","[""turquoise"",""lightred"",""low nameability""]","3","low nameability","26","left","audio_feedback","1"
"html-button-response","136","1283461","0.0-102.0","CAN_127","127","","","","","","null","<button class=""jspsych-btn""><img src=""stimuli/white_square.png"" style=""width: 200px;height: 200px;""></button>","null","turquoise","lightred","[""turquoise"",""lightred"",""low nameability""]","left-right","[""turquoise"",""lightred"",""low nameability""]","3","low nameability","26","left","iti",""
"html-button-response","137","1283954","0.0-103.0","CAN_127","127","","","","","","474","","0","neonyellow","mustard","[""neonyellow"",""mustard"",""low nameability""]","left-right","[""neonyellow"",""mustard"",""low nameability""]","3","low nameability","27","left","trigger",""
"html-button-response","138","1284736","0.0-104.0-0.0","CAN_127","127","","","","","","773","<button class=""jspsych-btn""><img src=""stimuli/neonyellow.png"" style=""width: 200px;height: 200px;""></button>","0","neonyellow","mustard","[""neonyellow"",""mustard"",""low nameability""]","left-right","[""neonyellow"",""mustard"",""low nameability""]","3","low nameability","27","left","response","1"
"html-audio-button-response","139","1284942","0.0-104.0-1.0","CAN_127","127","","","","","","null","stimuli/bleep.m4a","null","neonyellow","mustard","[""neonyellow"",""mustard"",""low nameability""]","left-right","[""neonyellow"",""mustard"",""low nameability""]","3","low nameability","27","left","audio_feedback","1"
"html-button-response","140","1285462","0.0-105.0","CAN_127","127","","","","","","null","<button class=""jspsych-btn""><img src=""stimuli/white_square.png"" style=""width: 200px;height: 200px;""></button>","null","neonyellow","mustard","[""neonyellow"",""mustard"",""low nameability""]","left-right","[""neonyellow"",""mustard"",""low nameability""]","3","low nameability","27","left","iti",""
"html-button-response","141","1285985","0.0-106.0","CAN_127","127","","","","","","503","","0","turquoise","mustard","[""turquoise"",""mustard"",""low nameability""]","left-right","[""turquoise"",""mustard"",""low nameability""]","3","low nameability","28","left","trigger",""
"html-button-response","142","1286720","0.0-107.0-0.0","CAN_127","127","","","","","","728","<button class=""jspsych-btn""><img src=""stimuli/turquoise.png"" style=""width: 200px;height: 200px;""></button>","0","turquoise","mustard","[""turquoise"",""mustard"",""low nameability""]","left-right","[""turquoise"",""mustard"",""low nameability""]","3","low nameability","28","left","response","1"
"html-audio-button-response","143","1286922","0.0-107.0-1.0","CAN_127","127","","","","","","null","stimuli/bleep.m4a","null","turquoise","mustard","[""turquoise"",""mustard"",""low nameability""]","left-right","[""turquoise"",""mustard"",""low nameability""]","3","low nameability","28","left","audio_feedback","1"
"html-button-response","144","1287446","0.0-108.0","CAN_127","127","","","","","","null","<button class=""jspsych-btn""><img src=""stimuli/white_square.png"" style=""width: 200px;height: 200px;""></button>","null","turquoise","mustard","[""turquoise"",""mustard"",""low nameability""]","left-right","[""turquoise"",""mustard"",""low nameability""]","3","low nameability","28","left","iti",""
"html-button-response","145","1288113","0.0-109.0","CAN_127","127","","","","","","649","","0","pink","lightred","[""pink"",""lightred"",""low nameability""]","left-right","[""pink"",""lightred"",""low nameability""]","3","low nameability","29","left","trigger",""
"html-button-response","146","1288822","0.0-110.0-0.0","CAN_127","127","","","","","","700","<button class=""jspsych-btn""><img src=""stimuli/pink.png"" style=""width: 200px;height: 200px;""></button>","0","pink","lightred","[""pink"",""lightred"",""low nameability""]","left-right","[""pink"",""lightred"",""low nameability""]","3","low nameability","29","left","response","1"
"html-audio-button-response","147","1289026","0.0-110.0-1.0","CAN_127","127","","","","","","null","stimuli/bleep.m4a","null","pink","lightred","[""pink"",""lightred"",""low nameability""]","left-right","[""pink"",""lightred"",""low nameability""]","3","low nameability","29","left","audio_feedback","1"
"html-button-response","148","1289548","0.0-111.0","CAN_127","127","","","","","","null","<button class=""jspsych-btn""><img src=""stimuli/white_square.png"" style=""width: 200px;height: 200px;""></button>","null","pink","lightred","[""pink"",""lightred"",""low nameability""]","left-right","[""pink"",""lightred"",""low nameability""]","3","low nameability","29","left","iti",""
"html-button-response","149","1290057","0.0-112.0","CAN_127","127","","","","","","484","","0","blue","purple","[""blue"",""purple"",""high nameability""]","right-left","[""purple"",""blue""]","3","high nameability","30","right","trigger",""
"html-button-response","150","1291475","0.0-113.0-0.0","CAN_127","127","","","","","","1410","<button class=""jspsych-btn""><img src=""stimuli/blue.png"" style=""width: 200px;height: 200px;""></button>","1","blue","purple","[""blue"",""purple"",""high nameability""]","right-left","[""purple"",""blue""]","3","high nameability","30","right","response","1"
"html-audio-button-response","151","1291682","0.0-113.0-1.0","CAN_127","127","","","","","","null","stimuli/bleep.m4a","null","blue","purple","[""blue"",""purple"",""high nameability""]","right-left","[""purple"",""blue""]","3","high nameability","30","right","audio_feedback","1"
"html-button-response","152","1292205","0.0-114.0","CAN_127","127","","","","","","null","<button class=""jspsych-btn""><img src=""stimuli/white_square.png"" style=""width: 200px;height: 200px;""></button>","null","blue","purple","[""blue"",""purple"",""high nameability""]","right-left","[""purple"",""blue""]","3","high nameability","30","right","iti",""
"pavlovia","153","1292281","0.0-115.0","CAN_127","127","","","","","","","","","","","","","","","","","","",""
"pavlovia","154","1292288","0.0-116.0","CAN_127","127","","","","","","","","","","","","","","","","","","",""
"html-audio-button-response","155","1293356","0.0-117.0","CAN_127","127","","","","","","1157","stimuli/tada.m4a","0","","","","","","","","","","",""
"html-button-response","156","1294040","0.0-118.0","CAN_127","127","","","","","","679","","0","","","","","","","","","","",""
"html-button-response","157","1294734","0.0-119.0","CAN_127","127","","","","","","686","","0","pink","mustard","[""pink"",""mustard"",""low nameability""]","left-right","[""pink"",""mustard"",""low nameability""]","4","low nameability","31","left","trigger",""
"html-button-response","158","1295455","0.0-120.0-0.0","CAN_127","127","","","","","","714","<button class=""jspsych-btn""><img src=""stimuli/pink.png"" style=""width: 200px;height: 200px;""></button>","0","pink","mustard","[""pink"",""mustard"",""low nameability""]","left-right","[""pink"",""mustard"",""low nameability""]","4","low nameability","31","left","response","1"
"html-audio-button-response","159","1295659","0.0-120.0-1.0","CAN_127","127","","","","","","null","stimuli/bleep.m4a","null","pink","mustard","[""pink"",""mustard"",""low nameability""]","left-right","[""pink"",""mustard"",""low nameability""]","4","low nameability","31","left","audio_feedback","1"
"html-button-response","160","1296187","0.0-121.0","CAN_127","127","","","","","","null","<button class=""jspsych-btn""><img src=""stimuli/white_square.png"" style=""width: 200px;height: 200px;""></button>","null","pink","mustard","[""pink"",""mustard"",""low nameability""]","left-right","[""pink"",""mustard"",""low nameability""]","4","low nameability","31","left","iti",""
"html-button-response","161","1296717","0.0-122.0","CAN_127","127","","","","","","504","","0","lightred","turquoise","[""lightred"",""turquoise"",""low nameability""]","right-left","[""turquoise"",""lightred""]","4","low nameability","32","right","trigger",""
"html-button-response","162","1297383","0.0-123.0-0.0","CAN_127","127","","","","","","653","<button class=""jspsych-btn""><img src=""stimuli/lightred.png"" style=""width: 200px;height: 200px;""></button>","1","lightred","turquoise","[""lightred"",""turquoise"",""low nameability""]","right-left","[""turquoise"",""lightred""]","4","low nameability","32","right","response","1"
"html-audio-button-response","163","1297597","0.0-123.0-1.0","CAN_127","127","","","","","","null","stimuli/bleep.m4a","null","lightred","turquoise","[""lightred"",""turquoise"",""low nameability""]","right-left","[""turquoise"",""lightred""]","4","low nameability","32","right","audio_feedback","1"
"html-button-response","164","1298131","0.0-124.0","CAN_127","127","","","","","","null","<button class=""jspsych-btn""><img src=""stimuli/white_square.png"" style=""width: 200px;height: 200px;""></button>","null","lightred","turquoise","[""lightred"",""turquoise"",""low nameability""]","right-left","[""turquoise"",""lightred""]","4","low nameability","32","right","iti",""
"html-button-response","165","1298640","0.0-125.0","CAN_127","127","","","","","","480","","0","yellow","brown","[""yellow"",""brown"",""high nameability""]","right-left","[""brown"",""yellow""]","4","high nameability","33","right","trigger",""
"html-button-response","166","1299334","0.0-126.0-0.0","CAN_127","127","","","","","","684","<button class=""jspsych-btn""><img src=""stimuli/yellow.png"" style=""width: 200px;height: 200px;""></button>","1","yellow","brown","[""yellow"",""brown"",""high nameability""]","right-left","[""brown"",""yellow""]","4","high nameability","33","right","response","1"
"html-audio-button-response","167","1299541","0.0-126.0-1.0","CAN_127","127","","","","","","null","stimuli/bleep.m4a","null","yellow","brown","[""yellow"",""brown"",""high nameability""]","right-left","[""brown"",""yellow""]","4","high nameability","33","right","audio_feedback","1"
"html-button-response","168","1300066","0.0-127.0","CAN_127","127","","","","","","null","<button class=""jspsych-btn""><img src=""stimuli/white_square.png"" style=""width: 200px;height: 200px;""></button>","null","yellow","brown","[""yellow"",""brown"",""high nameability""]","right-left","[""brown"",""yellow""]","4","high nameability","33","right","iti",""
"html-button-response","169","1300529","0.0-128.0","CAN_127","127","","","","","","443","","0","neonyellow","turquoise","[""neonyellow"",""turquoise"",""low nameability""]","left-right","[""neonyellow"",""turquoise"",""low nameability""]","4","low nameability","34","left","trigger",""
"html-button-response","170","1301304","0.0-129.0-0.0","CAN_127","127","","","","","","765","<button class=""jspsych-btn""><img src=""stimuli/neonyellow.png"" style=""width: 200px;height: 200px;""></button>","0","neonyellow","turquoise","[""neonyellow"",""turquoise"",""low nameability""]","left-right","[""neonyellow"",""turquoise"",""low nameability""]","4","low nameability","34","left","response","1"
"html-audio-button-response","171","1301522","0.0-129.0-1.0","CAN_127","127","","","","","","null","stimuli/bleep.m4a","null","neonyellow","turquoise","[""neonyellow"",""turquoise"",""low nameability""]","left-right","[""neonyellow"",""turquoise"",""low nameability""]","4","low nameability","34","left","audio_feedback","1"
"html-button-response","172","1302062","0.0-130.0","CAN_127","127","","","","","","null","<button class=""jspsych-btn""><img src=""stimuli/white_square.png"" style=""width: 200px;height: 200px;""></button>","null","neonyellow","turquoise","[""neonyellow"",""turquoise"",""low nameability""]","left-right","[""neonyellow"",""turquoise"",""low nameability""]","4","low nameability","34","left","iti",""
"html-button-response","173","1302609","0.0-131.0","CAN_127","127","","","","","","518","","0","lightred","neonyellow","[""lightred"",""neonyellow"",""low nameability""]","left-right","[""lightred"",""neonyellow"",""low nameability""]","4","low nameability","35","left","trigger",""
"html-button-response","174","1303587","0.0-132.0-0.0","CAN_127","127","","","","","","967","<button class=""jspsych-btn""><img src=""stimuli/lightred.png"" style=""width: 200px;height: 200px;""></button>","0","lightred","neonyellow","[""lightred"",""neonyellow"",""low nameability""]","left-right","[""lightred"",""neonyellow"",""low nameability""]","4","low nameability","35","left","response","1"
"html-audio-button-response","175","1303798","0.0-132.0-1.0","CAN_127","127","","","","","","null","stimuli/bleep.m4a","null","lightred","neonyellow","[""lightred"",""neonyellow"",""low nameability""]","left-right","[""lightred"",""neonyellow"",""low nameability""]","4","low nameability","35","left","audio_feedback","1"
"html-button-response","176","1304319","0.0-133.0","CAN_127","127","","","","","","null","<button class=""jspsych-btn""><img src=""stimuli/white_square.png"" style=""width: 200px;height: 200px;""></button>","null","lightred","neonyellow","[""lightred"",""neonyellow"",""low nameability""]","left-right","[""lightred"",""neonyellow"",""low nameability""]","4","low nameability","35","left","iti",""
"html-button-response","177","1304797","0.0-134.0","CAN_127","127","","","","","","444","","0","yellow","red","[""yellow"",""red"",""high nameability""]","right-left","[""red"",""yellow""]","4","high nameability","36","right","trigger",""
"html-button-response","178","1305588","0.0-135.0-0.0","CAN_127","127","","","","","","778","<button class=""jspsych-btn""><img src=""stimuli/yellow.png"" style=""width: 200px;height: 200px;""></button>","1","yellow","red","[""yellow"",""red"",""high nameability""]","right-left","[""red"",""yellow""]","4","high nameability","36","right","response","1"
"html-audio-button-response","179","1305794","0.0-135.0-1.0","CAN_127","127","","","","","","null","stimuli/bleep.m4a","null","yellow","red","[""yellow"",""red"",""high nameability""]","right-left","[""red"",""yellow""]","4","high nameability","36","right","audio_feedback","1"
"html-button-response","180","1306320","0.0-136.0","CAN_127","127","","","","","","null","<button class=""jspsych-btn""><img src=""stimuli/white_square.png"" style=""width: 200px;height: 200px;""></button>","null","yellow","red","[""yellow"",""red"",""high nameability""]","right-left","[""red"",""yellow""]","4","high nameability","36","right","iti",""
"html-button-response","181","1306759","0.0-137.0","CAN_127","127","","","","","","415","","0","purple","orange","[""purple"",""orange"",""high nameability""]","right-left","[""orange"",""purple""]","4","high nameability","37","right","trigger",""
"html-button-response","182","1307306","0.0-138.0-0.0","CAN_127","127","","","","","","540","<button class=""jspsych-btn""><img src=""stimuli/purple.png"" style=""width: 200px;height: 200px;""></button>","1","purple","orange","[""purple"",""orange"",""high nameability""]","right-left","[""orange"",""purple""]","4","high nameability","37","right","response","1"
"html-audio-button-response","183","1307513","0.0-138.0-1.0","CAN_127","127","","","","","","null","stimuli/bleep.m4a","null","purple","orange","[""purple"",""orange"",""high nameability""]","right-left","[""orange"",""purple""]","4","high nameability","37","right","audio_feedback","1"
"html-button-response","184","1308036","0.0-139.0","CAN_127","127","","","","","","null","<button class=""jspsych-btn""><img src=""stimuli/white_square.png"" style=""width: 200px;height: 200px;""></button>","null","purple","orange","[""purple"",""orange"",""high nameability""]","right-left","[""orange"",""purple""]","4","high nameability","37","right","iti",""
"html-button-response","185","1308512","0.0-140.0","CAN_127","127","","","","","","457","","0","mustard","lightred","[""mustard"",""lightred"",""low nameability""]","left-right","[""mustard"",""lightred"",""low nameability""]","4","low nameability","38","left","trigger",""
"html-button-response","186","1309207","0.0-141.0-0.0","CAN_127","127","","","","","","687","<button class=""jspsych-btn""><img src=""stimuli/mustard.png"" style=""width: 200px;height: 200px;""></button>","0","mustard","lightred","[""mustard"",""lightred"",""low nameability""]","left-right","[""mustard"",""lightred"",""low nameability""]","4","low nameability","38","left","response","1"
"html-audio-button-response","187","1309409","0.0-141.0-1.0","CAN_127","127","","","","","","null","stimuli/bleep.m4a","null","mustard","lightred","[""mustard"",""lightred"",""low nameability""]","left-right","[""mustard"",""lightred"",""low nameability""]","4","low nameability","38","left","audio_feedback","1"
"html-button-response","188","1309936","0.0-142.0","CAN_127","127","","","","","","null","<button class=""jspsych-btn""><img src=""stimuli/white_square.png"" style=""width: 200px;height: 200px;""></button>","null","mustard","lightred","[""mustard"",""lightred"",""low nameability""]","left-right","[""mustard"",""lightred"",""low nameability""]","4","low nameability","38","left","iti",""
"html-button-response","189","1310148","0.0-143.0","CAN_127","127","","","","","","196","","0","purple","yellow","[""purple"",""yellow"",""high nameability""]","left-right","[""purple"",""yellow"",""high nameability""]","4","high nameability","39","left","trigger",""
"html-button-response","190","1310972","0.0-144.0-0.0","CAN_127","127","","","","","","815","<button class=""jspsych-btn""><img src=""stimuli/purple.png"" style=""width: 200px;height: 200px;""></button>","0","purple","yellow","[""purple"",""yellow"",""high nameability""]","left-right","[""purple"",""yellow"",""high nameability""]","4","high nameability","39","left","response","1"
"html-audio-button-response","191","1311178","0.0-144.0-1.0","CAN_127","127","","","","","","null","stimuli/bleep.m4a","null","purple","yellow","[""purple"",""yellow"",""high nameability""]","left-right","[""purple"",""yellow"",""high nameability""]","4","high nameability","39","left","audio_feedback","1"
"html-button-response","192","1311701","0.0-145.0","CAN_127","127","","","","","","null","<button class=""jspsych-btn""><img src=""stimuli/white_square.png"" style=""width: 200px;height: 200px;""></button>","null","purple","yellow","[""purple"",""yellow"",""high nameability""]","left-right","[""purple"",""yellow"",""high nameability""]","4","high nameability","39","left","iti",""
"html-button-response","193","1312176","0.0-146.0","CAN_127","127","","","","","","439","","0","orange","red","[""orange"",""red"",""high nameability""]","left-right","[""orange"",""red"",""high nameability""]","4","high nameability","40","left","trigger",""
"html-button-response","194","1313107","0.0-147.0-0.0","CAN_127","127","","","","","","924","<button class=""jspsych-btn""><img src=""stimuli/orange.png"" style=""width: 200px;height: 200px;""></button>","0","orange","red","[""orange"",""red"",""high nameability""]","left-right","[""orange"",""red"",""high nameability""]","4","high nameability","40","left","response","1"
"html-audio-button-response","195","1313310","0.0-147.0-1.0","CAN_127","127","","","","","","null","stimuli/bleep.m4a","null","orange","red","[""orange"",""red"",""high nameability""]","left-right","[""orange"",""red"",""high nameability""]","4","high nameability","40","left","audio_feedback","1"
"html-button-response","196","1313834","0.0-148.0","CAN_127","127","","","","","","null","<button class=""jspsych-btn""><img src=""stimuli/white_square.png"" style=""width: 200px;height: 200px;""></button>","null","orange","red","[""orange"",""red"",""high nameability""]","left-right","[""orange"",""red"",""high nameability""]","4","high nameability","40","left","iti",""
"pavlovia","197","1313948","0.0-149.0","CAN_127","127","","","","","","","","","","","","","","","","","","",""
"pavlovia","198","1313964","0.0-150.0","CAN_127","127","","","","","","","","","","","","","","","","","","",""
"html-audio-button-response","199","1315237","0.0-151.0","CAN_127","127","","","","","","1395","stimuli/tada.m4a","0","","","","","","","","","","",""
"html-button-response","200","1315932","0.0-152.0","CAN_127","127","","","","","","686","","0","","","","","","","","","","",""
"html-button-response","201","1316763","0.0-153.0","CAN_127","127","","","","","","821","","0","red","brown","[""red"",""brown"",""high nameability""]","right-left","[""brown"",""red""]","5","high nameability","41","right","trigger",""
"html-button-response","202","1317518","0.0-154.0-0.0","CAN_127","127","","","","","","745","<button class=""jspsych-btn""><img src=""stimuli/red.png"" style=""width: 200px;height: 200px;""></button>","1","red","brown","[""red"",""brown"",""high nameability""]","right-left","[""brown"",""red""]","5","high nameability","41","right","response","1"
"html-audio-button-response","203","1317722","0.0-154.0-1.0","CAN_127","127","","","","","","null","stimuli/bleep.m4a","null","red","brown","[""red"",""brown"",""high nameability""]","right-left","[""brown"",""red""]","5","high nameability","41","right","audio_feedback","1"
"html-button-response","204","1318239","0.0-155.0","CAN_127","127","","","","","","null","<button class=""jspsych-btn""><img src=""stimuli/white_square.png"" style=""width: 200px;height: 200px;""></button>","null","red","brown","[""red"",""brown"",""high nameability""]","right-left","[""brown"",""red""]","5","high nameability","41","right","iti",""
"html-button-response","205","1318713","0.0-156.0","CAN_127","127","","","","","","457","","0","neonyellow","lightred","[""neonyellow"",""lightred"",""low nameability""]","left-right","[""neonyellow"",""lightred"",""low nameability""]","5","low nameability","42","left","trigger",""
"html-button-response","206","1319413","0.0-157.0-0.0","CAN_127","127","","","","","","691","<button class=""jspsych-btn""><img src=""stimuli/neonyellow.png"" style=""width: 200px;height: 200px;""></button>","0","neonyellow","lightred","[""neonyellow"",""lightred"",""low nameability""]","left-right","[""neonyellow"",""lightred"",""low nameability""]","5","low nameability","42","left","response","1"
"html-audio-button-response","207","1319619","0.0-157.0-1.0","CAN_127","127","","","","","","null","stimuli/bleep.m4a","null","neonyellow","lightred","[""neonyellow"",""lightred"",""low nameability""]","left-right","[""neonyellow"",""lightred"",""low nameability""]","5","low nameability","42","left","audio_feedback","1"
"html-button-response","208","1320135","0.0-158.0","CAN_127","127","","","","","","null","<button class=""jspsych-btn""><img src=""stimuli/white_square.png"" style=""width: 200px;height: 200px;""></button>","null","neonyellow","lightred","[""neonyellow"",""lightred"",""low nameability""]","left-right","[""neonyellow"",""lightred"",""low nameability""]","5","low nameability","42","left","iti",""
"html-button-response","209","1320674","0.0-159.0","CAN_127","127","","","","","","521","","0","purple","red","[""purple"",""red"",""high nameability""]","left-right","[""purple"",""red"",""high nameability""]","5","high nameability","43","left","trigger",""
"html-button-response","210","1321336","0.0-160.0-0.0","CAN_127","127","","","","","","654","<button class=""jspsych-btn""><img src=""stimuli/purple.png"" style=""width: 200px;height: 200px;""></button>","0","purple","red","[""purple"",""red"",""high nameability""]","left-right","[""purple"",""red"",""high nameability""]","5","high nameability","43","left","response","1"
"html-audio-button-response","211","1321540","0.0-160.0-1.0","CAN_127","127","","","","","","null","stimuli/bleep.m4a","null","purple","red","[""purple"",""red"",""high nameability""]","left-right","[""purple"",""red"",""high nameability""]","5","high nameability","43","left","audio_feedback","1"
"html-button-response","212","1322057","0.0-161.0","CAN_127","127","","","","","","null","<button class=""jspsych-btn""><img src=""stimuli/white_square.png"" style=""width: 200px;height: 200px;""></button>","null","purple","red","[""purple"",""red"",""high nameability""]","left-right","[""purple"",""red"",""high nameability""]","5","high nameability","43","left","iti",""
"html-button-response","213","1322581","0.0-162.0","CAN_127","127","","","","","","506","","0","red","purple","[""red"",""purple"",""high nameability""]","left-right","[""red"",""purple"",""high nameability""]","5","high nameability","44","left","trigger",""
"html-button-response","214","1323256","0.0-163.0-0.0","CAN_127","127","","","","","","670","<button class=""jspsych-btn""><img src=""stimuli/red.png"" style=""width: 200px;height: 200px;""></button>","0","red","purple","[""red"",""purple"",""high nameability""]","left-right","[""red"",""purple"",""high nameability""]","5","high nameability","44","left","response","1"
"html-audio-button-response","215","1323458","0.0-163.0-1.0","CAN_127","127","","","","","","null","stimuli/bleep.m4a","null","red","purple","[""red"",""purple"",""high nameability""]","left-right","[""red"",""purple"",""high nameability""]","5","high nameability","44","left","audio_feedback","1"
"html-button-response","216","1323980","0.0-164.0","CAN_127","127","","","","","","null","<button class=""jspsych-btn""><img src=""stimuli/white_square.png"" style=""width: 200px;height: 200px;""></button>","null","red","purple","[""red"",""purple"",""high nameability""]","left-right","[""red"",""purple"",""high nameability""]","5","high nameability","44","left","iti",""
"html-button-response","217","1324502","0.0-165.0","CAN_127","127","","","","","","503","","0","pink","neonyellow","[""pink"",""neonyellow"",""low nameability""]","left-right","[""pink"",""neonyellow"",""low nameability""]","5","low nameability","45","left","trigger",""
"html-button-response","218","1325110","0.0-166.0-0.0","CAN_127","127","","","","","","600","<button class=""jspsych-btn""><img src=""stimuli/pink.png"" style=""width: 200px;height: 200px;""></button>","0","pink","neonyellow","[""pink"",""neonyellow"",""low nameability""]","left-right","[""pink"",""neonyellow"",""low nameability""]","5","low nameability","45","left","response","1"
"html-audio-button-response","219","1325314","0.0-166.0-1.0","CAN_127","127","","","","","","null","stimuli/bleep.m4a","null","pink","neonyellow","[""pink"",""neonyellow"",""low nameability""]","left-right","[""pink"",""neonyellow"",""low nameability""]","5","low nameability","45","left","audio_feedback","1"
"html-button-response","220","1325838","0.0-167.0","CAN_127","127","","","","","","null","<button class=""jspsych-btn""><img src=""stimuli/white_square.png"" style=""width: 200px;height: 200px;""></button>","null","pink","neonyellow","[""pink"",""neonyellow"",""low nameability""]","left-right","[""pink"",""neonyellow"",""low nameability""]","5","low nameability","45","left","iti",""
"html-button-response","221","1326355","0.0-168.0","CAN_127","127","","","","","","499","","0","turquoise","neonyellow","[""turquoise"",""neonyellow"",""low nameability""]","left-right","[""turquoise"",""neonyellow"",""low nameability""]","5","low nameability","46","left","trigger",""
"html-button-response","222","1327018","0.0-169.0-0.0","CAN_127","127","","","","","","658","<button class=""jspsych-btn""><img src=""stimuli/turquoise.png"" style=""width: 200px;height: 200px;""></button>","0","turquoise","neonyellow","[""turquoise"",""neonyellow"",""low nameability""]","left-right","[""turquoise"",""neonyellow"",""low nameability""]","5","low nameability","46","left","response","1"
"html-audio-button-response","223","1327225","0.0-169.0-1.0","CAN_127","127","","","","","","null","stimuli/bleep.m4a","null","turquoise","neonyellow","[""turquoise"",""neonyellow"",""low nameability""]","left-right","[""turquoise"",""neonyellow"",""low nameability""]","5","low nameability","46","left","audio_feedback","1"
"html-button-response","224","1327740","0.0-170.0","CAN_127","127","","","","","","null","<button class=""jspsych-btn""><img src=""stimuli/white_square.png"" style=""width: 200px;height: 200px;""></button>","null","turquoise","neonyellow","[""turquoise"",""neonyellow"",""low nameability""]","left-right","[""turquoise"",""neonyellow"",""low nameability""]","5","low nameability","46","left","iti",""
"html-button-response","225","1328980","0.0-171.0","CAN_127","127","","","","","","1225","","0","lightred","mustard","[""lightred"",""mustard"",""low nameability""]","right-left","[""mustard"",""lightred""]","5","low nameability","47","right","trigger",""
"html-button-response","226","1329766","0.0-172.0-0.0","CAN_127","127","","","","","","777","<button class=""jspsych-btn""><img src=""stimuli/lightred.png"" style=""width: 200px;height: 200px;""></button>","1","lightred","mustard","[""lightred"",""mustard"",""low nameability""]","right-left","[""mustard"",""lightred""]","5","low nameability","47","right","response","1"
"html-audio-button-response","227","1329970","0.0-172.0-1.0","CAN_127","127","","","","","","null","stimuli/bleep.m4a","null","lightred","mustard","[""lightred"",""mustard"",""low nameability""]","right-left","[""mustard"",""lightred""]","5","low nameability","47","right","audio_feedback","1"
"html-button-response","228","1330487","0.0-173.0","CAN_127","127","","","","","","null","<button class=""jspsych-btn""><img src=""stimuli/white_square.png"" style=""width: 200px;height: 200px;""></button>","null","lightred","mustard","[""lightred"",""mustard"",""low nameability""]","right-left","[""mustard"",""lightred""]","5","low nameability","47","right","iti",""
"html-button-response","229","1331130","0.0-174.0","CAN_127","127","","","","","","627","","0","mustard","pink","[""mustard"",""pink"",""low nameability""]","left-right","[""mustard"",""pink"",""low nameability""]","5","low nameability","48","left","trigger",""
"html-button-response","230","1331915","0.0-175.0-0.0","CAN_127","127","","","","","","776","<button class=""jspsych-btn""><img src=""stimuli/mustard.png"" style=""width: 200px;height: 200px;""></button>","0","mustard","pink","[""mustard"",""pink"",""low nameability""]","left-right","[""mustard"",""pink"",""low nameability""]","5","low nameability","48","left","response","1"
"html-audio-button-response","231","1332123","0.0-175.0-1.0","CAN_127","127","","","","","","null","stimuli/bleep.m4a","null","mustard","pink","[""mustard"",""pink"",""low nameability""]","left-right","[""mustard"",""pink"",""low nameability""]","5","low nameability","48","left","audio_feedback","1"
"html-button-response","232","1332646","0.0-176.0","CAN_127","127","","","","","","null","<button class=""jspsych-btn""><img src=""stimuli/white_square.png"" style=""width: 200px;height: 200px;""></button>","null","mustard","pink","[""mustard"",""pink"",""low nameability""]","left-right","[""mustard"",""pink"",""low nameability""]","5","low nameability","48","left","iti",""
"html-button-response","233","1333189","0.0-177.0","CAN_127","127","","","","","","528","","0","blue","red","[""blue"",""red"",""high nameability""]","right-left","[""red"",""blue""]","5","high nameability","49","right","trigger",""
"html-button-response","234","1333905","0.0-178.0-0.0","CAN_127","127","","","","","","707","<button class=""jspsych-btn""><img src=""stimuli/blue.png"" style=""width: 200px;height: 200px;""></button>","1","blue","red","[""blue"",""red"",""high nameability""]","right-left","[""red"",""blue""]","5","high nameability","49","right","response","1"
"html-audio-button-response","235","1334110","0.0-178.0-1.0","CAN_127","127","","","","","","null","stimuli/bleep.m4a","null","blue","red","[""blue"",""red"",""high nameability""]","right-left","[""red"",""blue""]","5","high nameability","49","right","audio_feedback","1"
"html-button-response","236","1334627","0.0-179.0","CAN_127","127","","","","","","null","<button class=""jspsych-btn""><img src=""stimuli/white_square.png"" style=""width: 200px;height: 200px;""></button>","null","blue","red","[""blue"",""red"",""high nameability""]","right-left","[""red"",""blue""]","5","high nameability","49","right","iti",""
"html-button-response","237","1335258","0.0-180.0","CAN_127","127","","","","","","615","","0","darkgreenblue","neonyellow","[""darkgreenblue"",""neonyellow"",""low nameability""]","right-left","[""neonyellow"",""darkgreenblue""]","5","low nameability","50","right","trigger",""
"html-button-response","238","1336089","0.0-181.0-0.0","CAN_127","127","","","","","","823","<button class=""jspsych-btn""><img src=""stimuli/darkgreenblue.png"" style=""width: 200px;height: 200px;""></button>","1","darkgreenblue","neonyellow","[""darkgreenblue"",""neonyellow"",""low nameability""]","right-left","[""neonyellow"",""darkgreenblue""]","5","low nameability","50","right","response","1"
"html-audio-button-response","239","1336291","0.0-181.0-1.0","CAN_127","127","","","","","","null","stimuli/bleep.m4a","null","darkgreenblue","neonyellow","[""darkgreenblue"",""neonyellow"",""low nameability""]","right-left","[""neonyellow"",""darkgreenblue""]","5","low nameability","50","right","audio_feedback","1"
"html-button-response","240","1336810","0.0-182.0","CAN_127","127","","","","","","null","<button class=""jspsych-btn""><img src=""stimuli/white_square.png"" style=""width: 200px;height: 200px;""></button>","null","darkgreenblue","neonyellow","[""darkgreenblue"",""neonyellow"",""low nameability""]","right-left","[""neonyellow"",""darkgreenblue""]","5","low nameability","50","right","iti",""
"pavlovia","241","1336899","0.0-183.0","CAN_127","127","","","","","","","","","","","","","","","","","","",""
"pavlovia","242","1336908","0.0-184.0","CAN_127","127","","","","","","","","","","","","","","","","","","",""
"html-audio-button-response","243","1339076","0.0-185.0","CAN_127","127","","","","","","2269","stimuli/tada.m4a","0","","","","","","","","","","",""
"html-button-response","244","1339905","0.0-186.0","CAN_127","127","","","","","","823","","0","","","","","","","","","","",""
"html-button-response","245","1340640","0.0-187.0","CAN_127","127","","","","","","728","","0","red","blue","[""red"",""blue"",""high nameability""]","right-left","[""blue"",""red""]","6","high nameability","51","right","trigger",""
"html-button-response","246","1341896","0.0-188.0-0.0","CAN_127","127","","","","","","1250","<button class=""jspsych-btn""><img src=""stimuli/red.png"" style=""width: 200px;height: 200px;""></button>","1","red","blue","[""red"",""blue"",""high nameability""]","right-left","[""blue"",""red""]","6","high nameability","51","right","response","1"
"html-audio-button-response","247","1342101","0.0-188.0-1.0","CAN_127","127","","","","","","null","stimuli/bleep.m4a","null","red","blue","[""red"",""blue"",""high nameability""]","right-left","[""blue"",""red""]","6","high nameability","51","right","audio_feedback","1"
"html-button-response","248","1342625","0.0-189.0","CAN_127","127","","","","","","null","<button class=""jspsych-btn""><img src=""stimuli/white_square.png"" style=""width: 200px;height: 200px;""></button>","null","red","blue","[""red"",""blue"",""high nameability""]","right-left","[""blue"",""red""]","6","high nameability","51","right","iti",""
"html-button-response","249","1343101","0.0-190.0","CAN_127","127","","","","","","460","","0","mustard","neonyellow","[""mustard"",""neonyellow"",""low nameability""]","left-right","[""mustard"",""neonyellow"",""low nameability""]","6","low nameability","52","left","trigger",""
"html-button-response","250","1343828","0.0-191.0-0.0","CAN_127","127","","","","","","720","<button class=""jspsych-btn""><img src=""stimuli/mustard.png"" style=""width: 200px;height: 200px;""></button>","0","mustard","neonyellow","[""mustard"",""neonyellow"",""low nameability""]","left-right","[""mustard"",""neonyellow"",""low nameability""]","6","low nameability","52","left","response","1"
"html-audio-button-response","251","1344035","0.0-191.0-1.0","CAN_127","127","","","","","","null","stimuli/bleep.m4a","null","mustard","neonyellow","[""mustard"",""neonyellow"",""low nameability""]","left-right","[""mustard"",""neonyellow"",""low nameability""]","6","low nameability","52","left","audio_feedback","1"
"html-button-response","252","1344554","0.0-192.0","CAN_127","127","","","","","","null","<button class=""jspsych-btn""><img src=""stimuli/white_square.png"" style=""width: 200px;height: 200px;""></button>","null","mustard","neonyellow","[""mustard"",""neonyellow"",""low nameability""]","left-right","[""mustard"",""neonyellow"",""low nameability""]","6","low nameability","52","left","iti",""
"html-button-response","253","1345046","0.0-193.0","CAN_127","127","","","","","","474","","0","blue","yellow","[""blue"",""yellow"",""high nameability""]","left-right","[""blue"",""yellow"",""high nameability""]","6","high nameability","53","left","trigger",""
"html-button-response","254","1345756","0.0-194.0-0.0","CAN_127","127","","","","","","704","<button class=""jspsych-btn""><img src=""stimuli/blue.png"" style=""width: 200px;height: 200px;""></button>","0","blue","yellow","[""blue"",""yellow"",""high nameability""]","left-right","[""blue"",""yellow"",""high nameability""]","6","high nameability","53","left","response","1"
"html-audio-button-response","255","1345961","0.0-194.0-1.0","CAN_127","127","","","","","","null","stimuli/bleep.m4a","null","blue","yellow","[""blue"",""yellow"",""high nameability""]","left-right","[""blue"",""yellow"",""high nameability""]","6","high nameability","53","left","audio_feedback","1"
"html-button-response","256","1346475","0.0-195.0","CAN_127","127","","","","","","null","<button class=""jspsych-btn""><img src=""stimuli/white_square.png"" style=""width: 200px;height: 200px;""></button>","null","blue","yellow","[""blue"",""yellow"",""high nameability""]","left-right","[""blue"",""yellow"",""high nameability""]","6","high nameability","53","left","iti",""
"html-button-response","257","1346997","0.0-196.0","CAN_127","127","","","","","","505","","0","brown","orange","[""brown"",""orange"",""high nameability""]","left-right","[""brown"",""orange"",""high nameability""]","6","high nameability","54","left","trigger",""
"html-button-response","258","1347703","0.0-197.0-0.0","CAN_127","127","","","","","","697","<button class=""jspsych-btn""><img src=""stimuli/brown.png"" style=""width: 200px;height: 200px;""></button>","0","brown","orange","[""brown"",""orange"",""high nameability""]","left-right","[""brown"",""orange"",""high nameability""]","6","high nameability","54","left","response","1"
"html-audio-button-response","259","1347906","0.0-197.0-1.0","CAN_127","127","","","","","","null","stimuli/bleep.m4a","null","brown","orange","[""brown"",""orange"",""high nameability""]","left-right","[""brown"",""orange"",""high nameability""]","6","high nameability","54","left","audio_feedback","1"
"html-button-response","260","1348428","0.0-198.0","CAN_127","127","","","","","","null","<button class=""jspsych-btn""><img src=""stimuli/white_square.png"" style=""width: 200px;height: 200px;""></button>","null","brown","orange","[""brown"",""orange"",""high nameability""]","left-right","[""brown"",""orange"",""high nameability""]","6","high nameability","54","left","iti",""
"html-button-response","261","1348920","0.0-199.0","CAN_127","127","","","","","","473","","0","yellow","blue","[""yellow"",""blue"",""high nameability""]","right-left","[""blue"",""yellow""]","6","high nameability","55","right","trigger",""
"html-button-response","262","1349691","0.0-200.0-0.0","CAN_127","127","","","","","","763","<button class=""jspsych-btn""><img src=""stimuli/yellow.png"" style=""width: 200px;height: 200px;""></button>","1","yellow","blue","[""yellow"",""blue"",""high nameability""]","right-left","[""blue"",""yellow""]","6","high nameability","55","right","response","1"
"html-audio-button-response","263","1349894","0.0-200.0-1.0","CAN_127","127","","","","","","null","stimuli/bleep.m4a","null","yellow","blue","[""yellow"",""blue"",""high nameability""]","right-left","[""blue"",""yellow""]","6","high nameability","55","right","audio_feedback","1"
"html-button-response","264","1350426","0.0-201.0","CAN_127","127","","","","","","null","<button class=""jspsych-btn""><img src=""stimuli/white_square.png"" style=""width: 200px;height: 200px;""></button>","null","yellow","blue","[""yellow"",""blue"",""high nameability""]","right-left","[""blue"",""yellow""]","6","high nameability","55","right","iti",""
"html-button-response","265","1351153","0.0-202.0","CAN_127","127","","","","","","698","","0","turquoise","pink","[""turquoise"",""pink"",""low nameability""]","left-right","[""turquoise"",""pink"",""low nameability""]","6","low nameability","56","left","trigger",""
"html-button-response","266","1351887","0.0-203.0-0.0","CAN_127","127","","","","","","727","<button class=""jspsych-btn""><img src=""stimuli/turquoise.png"" style=""width: 200px;height: 200px;""></button>","0","turquoise","pink","[""turquoise"",""pink"",""low nameability""]","left-right","[""turquoise"",""pink"",""low nameability""]","6","low nameability","56","left","response","1"
"html-audio-button-response","267","1352090","0.0-203.0-1.0","CAN_127","127","","","","","","null","stimuli/bleep.m4a","null","turquoise","pink","[""turquoise"",""pink"",""low nameability""]","left-right","[""turquoise"",""pink"",""low nameability""]","6","low nameability","56","left","audio_feedback","1"
"html-button-response","268","1352608","0.0-204.0","CAN_127","127","","","","","","null","<button class=""jspsych-btn""><img src=""stimuli/white_square.png"" style=""width: 200px;height: 200px;""></button>","null","turquoise","pink","[""turquoise"",""pink"",""low nameability""]","left-right","[""turquoise"",""pink"",""low nameability""]","6","low nameability","56","left","iti",""
"html-button-response","269","1353137","0.0-205.0","CAN_127","127","","","","","","513","","0","neonyellow","darkgreenblue","[""neonyellow"",""darkgreenblue"",""low nameability""]","right-left","[""darkgreenblue"",""neonyellow""]","6","low nameability","57","right","trigger",""
"html-button-response","270","1353763","0.0-206.0-0.0","CAN_127","127","","","","","","611","<button class=""jspsych-btn""><img src=""stimuli/neonyellow.png"" style=""width: 200px;height: 200px;""></button>","1","neonyellow","darkgreenblue","[""neonyellow"",""darkgreenblue"",""low nameability""]","right-left","[""darkgreenblue"",""neonyellow""]","6","low nameability","57","right","response","1"
"html-audio-button-response","271","1353988","0.0-206.0-1.0","CAN_127","127","","","","","","null","stimuli/bleep.m4a","null","neonyellow","darkgreenblue","[""neonyellow"",""darkgreenblue"",""low nameability""]","right-left","[""darkgreenblue"",""neonyellow""]","6","low nameability","57","right","audio_feedback","1"
"html-button-response","272","1354518","0.0-207.0","CAN_127","127","","","","","","null","<button class=""jspsych-btn""><img src=""stimuli/white_square.png"" style=""width: 200px;height: 200px;""></button>","null","neonyellow","darkgreenblue","[""neonyellow"",""darkgreenblue"",""low nameability""]","right-left","[""darkgreenblue"",""neonyellow""]","6","low nameability","57","right","iti",""
"html-button-response","273","1355065","0.0-208.0","CAN_127","127","","","","","","522","","0","brown","red","[""brown"",""red"",""high nameability""]","right-left","[""red"",""brown""]","6","high nameability","58","right","trigger",""
"html-button-response","274","1355790","0.0-209.0-0.0","CAN_127","127","","","","","","716","<button class=""jspsych-btn""><img src=""stimuli/brown.png"" style=""width: 200px;height: 200px;""></button>","1","brown","red","[""brown"",""red"",""high nameability""]","right-left","[""red"",""brown""]","6","high nameability","58","right","response","1"
"html-audio-button-response","275","1355999","0.0-209.0-1.0","CAN_127","127","","","","","","null","stimuli/bleep.m4a","null","brown","red","[""brown"",""red"",""high nameability""]","right-left","[""red"",""brown""]","6","high nameability","58","right","audio_feedback","1"
"html-button-response","276","1356527","0.0-210.0","CAN_127","127","","","","","","null","<button class=""jspsych-btn""><img src=""stimuli/white_square.png"" style=""width: 200px;height: 200px;""></button>","null","brown","red","[""brown"",""red"",""high nameability""]","right-left","[""red"",""brown""]","6","high nameability","58","right","iti",""
"html-button-response","277","1357082","0.0-211.0","CAN_127","127","","","","","","531","","0","blue","orange","[""blue"",""orange"",""high nameability""]","right-left","[""orange"",""blue""]","6","high nameability","59","right","trigger",""
"html-button-response","278","1357798","0.0-212.0-0.0","CAN_127","127","","","","","","701","<button class=""jspsych-btn""><img src=""stimuli/blue.png"" style=""width: 200px;height: 200px;""></button>","1","blue","orange","[""blue"",""orange"",""high nameability""]","right-left","[""orange"",""blue""]","6","high nameability","59","right","response","1"
"html-audio-button-response","279","1358011","0.0-212.0-1.0","CAN_127","127","","","","","","null","stimuli/bleep.m4a","null","blue","orange","[""blue"",""orange"",""high nameability""]","right-left","[""orange"",""blue""]","6","high nameability","59","right","audio_feedback","1"
"html-button-response","280","1358544","0.0-213.0","CAN_127","127","","","","","","null","<button class=""jspsych-btn""><img src=""stimuli/white_square.png"" style=""width: 200px;height: 200px;""></button>","null","blue","orange","[""blue"",""orange"",""high nameability""]","right-left","[""orange"",""blue""]","6","high nameability","59","right","iti",""
"html-button-response","281","1359128","0.0-214.0","CAN_127","127","","","","","","558","","0","purple","blue","[""purple"",""blue"",""high nameability""]","right-left","[""blue"",""purple""]","6","high nameability","60","right","trigger",""
"html-button-response","282","1360091","0.0-215.0-0.0","CAN_127","127","","","","","","950","<button class=""jspsych-btn""><img src=""stimuli/purple.png"" style=""width: 200px;height: 200px;""></button>","1","purple","blue","[""purple"",""blue"",""high nameability""]","right-left","[""blue"",""purple""]","6","high nameability","60","right","response","1"
"html-audio-button-response","283","1360308","0.0-215.0-1.0","CAN_127","127","","","","","","null","stimuli/bleep.m4a","null","purple","blue","[""purple"",""blue"",""high nameability""]","right-left","[""blue"",""purple""]","6","high nameability","60","right","audio_feedback","1"
"html-button-response","284","1360837","0.0-216.0","CAN_127","127","","","","","","null","<button class=""jspsych-btn""><img src=""stimuli/white_square.png"" style=""width: 200px;height: 200px;""></button>","null","purple","blue","[""purple"",""blue"",""high nameability""]","right-left","[""blue"",""purple""]","6","high nameability","60","right","iti",""
