"trial_type","trial_index","time_elapsed","internal_node_id","subject_id","seed","success","timeout","failed_images","failed_audio","failed_video","rt","stimulus","response","target","foil","choices","combination_order","choices_in_order","round","condition","trial_counter","target_location","trial_kind","correct"
"pavlovia","0","22","0.0-0.0","CAN_119","119","","","","","","","","","","","","","","","","","","",""
"preload","1","704","0.0-1.0","CAN_119","119","true","false","[]","[]","[]","","","","","","","","","","","","","",""
"fullscreen","2","2908","0.0-2.0","CAN_119","119","true","","","","","","","","","","","","","","","","","",""
"html-button-response","3","25356","0.0-3.0","CAN_119","119","","","","","","22425","","0","","","","","","","","","","",""
"html-button-response","4","28573","0.0-4.0","CAN_119","119","","","","","","3208","","0","star","square","[""square"",""star""]","left-right","[""square"",""star""]","1","practice","1","right","trigger",""
"html-button-response","5","35663","0.0-5.0-0.0","CAN_119","119","","","","","","7076","<button class=""jspsych-btn""><img src=""stimuli/star.png"" style=""width: 200px;height: 200px;""></button>","1","star","square","[""square"",""star""]","left-right","[""square"",""star""]","1","practice","1","right","response","1"
"html-audio-button-response","6","35871","0.0-5.0-1.0","CAN_119","119","","","","","","null","stimuli/bleep.m4a","null","star","square","[""square"",""star""]","left-right","[""square"",""star""]","1","practice","1","right","audio_feedback","1"
"html-button-response","7","36400","0.0-6.0","CAN_119","119","","","","","","null","<button class=""jspsych-btn""><img src=""stimuli/white_square.png"" style=""width: 200px;height: 200px;""></button>","null","star","square","[""square"",""star""]","left-right","[""square"",""star""]","1","practice","1","right","iti",""
"html-button-response","8","39697","0.0-7.0","CAN_119","119","","","","","","3275","","0","triangle","pentagram","[""triangle"",""pentagram""]","left-right","[""triangle"",""pentagram""]","1","practice","1","left","trigger",""
"html-button-response","9","40782","0.0-8.0-0.0","CAN_119","119","","","","","","1070","<button class=""jspsych-btn""><img src=""stimuli/triangle.png"" style=""width: 200px;height: 200px;""></button>","0","triangle","pentagram","[""triangle"",""pentagram""]","left-right","[""triangle"",""pentagram""]","1","practice","1","left","response","1"
"html-audio-button-response","10","40991","0.0-8.0-1.0","CAN_119","119","","","","","","null","stimuli/bleep.m4a","null","triangle","pentagram","[""triangle"",""pentagram""]","left-right","[""triangle"",""pentagram""]","1","practice","1","left","audio_feedback","1"
"html-button-response","11","41508","0.0-9.0","CAN_119","119","","","","","","null","<button class=""jspsych-btn""><img src=""stimuli/white_square.png"" style=""width: 200px;height: 200px;""></button>","null","triangle","pentagram","[""triangle"",""pentagram""]","left-right","[""triangle"",""pentagram""]","1","practice","1","left","iti",""
"html-button-response","12","42811","0.0-10.0","CAN_119","119","","","","","","1295","","0","diamond","rectangle","[""rectangle"",""diamond""]","left-right","[""rectangle"",""diamond""]","1","practice","1","right","trigger",""
"html-button-response","13","43674","0.0-11.0-0.0","CAN_119","119","","","","","","852","<button class=""jspsych-btn""><img src=""stimuli/diamond.png"" style=""width: 200px;height: 200px;""></button>","1","diamond","rectangle","[""rectangle"",""diamond""]","left-right","[""rectangle"",""diamond""]","1","practice","1","right","response","1"
"html-audio-button-response","14","43883","0.0-11.0-1.0","CAN_119","119","","","","","","null","stimuli/bleep.m4a","null","diamond","rectangle","[""rectangle"",""diamond""]","left-right","[""rectangle"",""diamond""]","1","practice","1","right","audio_feedback","1"
"html-button-response","15","44408","0.0-12.0","CAN_119","119","","","","","","null","<button class=""jspsych-btn""><img src=""stimuli/white_square.png"" style=""width: 200px;height: 200px;""></button>","null","diamond","rectangle","[""rectangle"",""diamond""]","left-right","[""rectangle"",""diamond""]","1","practice","1","right","iti",""
"html-button-response","16","45542","0.0-13.0","CAN_119","119","","","","","","1108","","0","pentagram","star","[""pentagram"",""star""]","left-right","[""pentagram"",""star""]","1","practice","1","left","trigger",""
"html-button-response","17","46424","0.0-14.0-0.0","CAN_119","119","","","","","","874","<button class=""jspsych-btn""><img src=""stimuli/pentagram.png"" style=""width: 200px;height: 200px;""></button>","0","pentagram","star","[""pentagram"",""star""]","left-right","[""pentagram"",""star""]","1","practice","1","left","response","1"
"html-audio-button-response","18","46632","0.0-14.0-1.0","CAN_119","119","","","","","","null","stimuli/bleep.m4a","null","pentagram","star","[""pentagram"",""star""]","left-right","[""pentagram"",""star""]","1","practice","1","left","audio_feedback","1"
"html-button-response","19","47151","0.0-15.0","CAN_119","119","","","","","","null","<button class=""jspsych-btn""><img src=""stimuli/white_square.png"" style=""width: 200px;height: 200px;""></button>","null","pentagram","star","[""pentagram"",""star""]","left-right","[""pentagram"",""star""]","1","practice","1","left","iti",""
"html-button-response","20","50347","0.0-16.0","CAN_119","119","","","","","","3187","","0","","","","","","","","","","",""
"html-button-response","21","51737","0.0-17.0","CAN_119","119","","","","","","1375","","0","lightred","neonyellow","[""lightred"",""neonyellow"",""low nameability""]","right-left","[""neonyellow"",""lightred""]","1","low nameability","1","right","trigger",""
"html-button-response","22","52484","0.0-18.0-0.0","CAN_119","119","","","","","","734","<button class=""jspsych-btn""><img src=""stimuli/lightred.png"" style=""width: 200px;height: 200px;""></button>","1","lightred","neonyellow","[""lightred"",""neonyellow"",""low nameability""]","right-left","[""neonyellow"",""lightred""]","1","low nameability","1","right","response","1"
"html-audio-button-response","23","52687","0.0-18.0-1.0","CAN_119","119","","","","","","null","stimuli/bleep.m4a","null","lightred","neonyellow","[""lightred"",""neonyellow"",""low nameability""]","right-left","[""neonyellow"",""lightred""]","1","low nameability","1","right","audio_feedback","1"
"html-button-response","24","53208","0.0-19.0","CAN_119","119","","","","","","null","<button class=""jspsych-btn""><img src=""stimuli/white_square.png"" style=""width: 200px;height: 200px;""></button>","null","lightred","neonyellow","[""lightred"",""neonyellow"",""low nameability""]","right-left","[""neonyellow"",""lightred""]","1","low nameability","1","right","iti",""
"html-button-response","25","54256","0.0-20.0","CAN_119","119","","","","","","1028","","0","pink","lightred","[""pink"",""lightred"",""low nameability""]","left-right","[""pink"",""lightred"",""low nameability""]","1","low nameability","2","left","trigger",""
"html-button-response","26","55135","0.0-21.0-0.0","CAN_119","119","","","","","","866","<button class=""jspsych-btn""><img src=""stimuli/pink.png"" style=""width: 200px;height: 200px;""></button>","0","pink","lightred","[""pink"",""lightred"",""low nameability""]","left-right","[""pink"",""lightred"",""low nameability""]","1","low nameability","2","left","response","1"
"html-audio-button-response","27","55336","0.0-21.0-1.0","CAN_119","119","","","","","","null","stimuli/bleep.m4a","null","pink","lightred","[""pink"",""lightred"",""low nameability""]","left-right","[""pink"",""lightred"",""low nameability""]","1","low nameability","2","left","audio_feedback","1"
"html-button-response","28","55860","0.0-22.0","CAN_119","119","","","","","","null","<button class=""jspsych-btn""><img src=""stimuli/white_square.png"" style=""width: 200px;height: 200px;""></button>","null","pink","lightred","[""pink"",""lightred"",""low nameability""]","left-right","[""pink"",""lightred"",""low nameability""]","1","low nameability","2","left","iti",""
"html-button-response","29","56858","0.0-23.0","CAN_119","119","","","","","","993","","0","brown","orange","[""brown"",""orange"",""high nameability""]","right-left","[""orange"",""brown""]","1","high nameability","3","right","trigger",""
"html-button-response","30","57549","0.0-24.0-0.0","CAN_119","119","","","","","","684","<button class=""jspsych-btn""><img src=""stimuli/brown.png"" style=""width: 200px;height: 200px;""></button>","1","brown","orange","[""brown"",""orange"",""high nameability""]","right-left","[""orange"",""brown""]","1","high nameability","3","right","response","1"
"html-audio-button-response","31","57751","0.0-24.0-1.0","CAN_119","119","","","","","","null","stimuli/bleep.m4a","null","brown","orange","[""brown"",""orange"",""high nameability""]","right-left","[""orange"",""brown""]","1","high nameability","3","right","audio_feedback","1"
"html-button-response","32","58270","0.0-25.0","CAN_119","119","","","","","","null","<button class=""jspsych-btn""><img src=""stimuli/white_square.png"" style=""width: 200px;height: 200px;""></button>","null","brown","orange","[""brown"",""orange"",""high nameability""]","right-left","[""orange"",""brown""]","1","high nameability","3","right","iti",""
"html-button-response","33","59350","0.0-26.0","CAN_119","119","","","","","","1073","","0","turquoise","pink","[""turquoise"",""pink"",""low nameability""]","left-right","[""turquoise"",""pink"",""low nameability""]","1","low nameability","4","left","trigger",""
"html-button-response","34","60070","0.0-27.0-0.0","CAN_119","119","","","","","","710","<button class=""jspsych-btn""><img src=""stimuli/turquoise.png"" style=""width: 200px;height: 200px;""></button>","0","turquoise","pink","[""turquoise"",""pink"",""low nameability""]","left-right","[""turquoise"",""pink"",""low nameability""]","1","low nameability","4","left","response","1"
"html-audio-button-response","35","60270","0.0-27.0-1.0","CAN_119","119","","","","","","null","stimuli/bleep.m4a","null","turquoise","pink","[""turquoise"",""pink"",""low nameability""]","left-right","[""turquoise"",""pink"",""low nameability""]","1","low nameability","4","left","audio_feedback","1"
"html-button-response","36","60777","0.0-28.0","CAN_119","119","","","","","","null","<button class=""jspsych-btn""><img src=""stimuli/white_square.png"" style=""width: 200px;height: 200px;""></button>","null","turquoise","pink","[""turquoise"",""pink"",""low nameability""]","left-right","[""turquoise"",""pink"",""low nameability""]","1","low nameability","4","left","iti",""
"html-button-response","37","61812","0.0-29.0","CAN_119","119","","","","","","1030","","0","pink","turquoise","[""pink"",""turquoise"",""low nameability""]","left-right","[""pink"",""turquoise"",""low nameability""]","1","low nameability","5","left","trigger",""
"html-button-response","38","62520","0.0-30.0-0.0","CAN_119","119","","","","","","700","<button class=""jspsych-btn""><img src=""stimuli/pink.png"" style=""width: 200px;height: 200px;""></button>","0","pink","turquoise","[""pink"",""turquoise"",""low nameability""]","left-right","[""pink"",""turquoise"",""low nameability""]","1","low nameability","5","left","response","1"
"html-audio-button-response","39","62722","0.0-30.0-1.0","CAN_119","119","","","","","","null","stimuli/bleep.m4a","null","pink","turquoise","[""pink"",""turquoise"",""low nameability""]","left-right","[""pink"",""turquoise"",""low nameability""]","1","low nameability","5","left","audio_feedback","1"
"html-button-response","40","63235","0.0-31.0","CAN_119","119","","","","","","null","<button class=""jspsych-btn""><img src=""stimuli/white_square.png"" style=""width: 200px;height: 200px;""></button>","null","pink","turquoise","[""pink"",""turquoise"",""low nameability""]","left-right","[""pink"",""turquoise"",""low nameability""]","1","low nameability","5","left","iti",""
"html-button-response","41","64132","0.0-32.0","CAN_119","119","","","","","","891","","0","turquoise","lightred","[""turquoise"",""lightred"",""low nameability""]","right-left","[""lightred"",""turquoise""]","1","low nameability","6","right","trigger",""
"html-button-response","42","64876","0.0-33.0-0.0","CAN_119","119","","","","","","732","<button class=""jspsych-btn""><img src=""stimuli/turquoise.png"" style=""width: 200px;height: 200px;""></button>","1","turquoise","lightred","[""turquoise"",""lightred"",""low nameability""]","right-left","[""lightred"",""turquoise""]","1","low nameability","6","right","response","1"
"html-audio-button-response","43","65084","0.0-33.0-1.0","CAN_119","119","","","","","","null","stimuli/bleep.m4a","null","turquoise","lightred","[""turquoise"",""lightred"",""low nameability""]","right-left","[""lightred"",""turquoise""]","1","low nameability","6","right","audio_feedback","1"
"html-button-response","44","65603","0.0-34.0","CAN_119","119","","","","","","null","<button class=""jspsych-btn""><img src=""stimuli/white_square.png"" style=""width: 200px;height: 200px;""></button>","null","turquoise","lightred","[""turquoise"",""lightred"",""low nameability""]","right-left","[""lightred"",""turquoise""]","1","low nameability","6","right","iti",""
"html-button-response","45","66684","0.0-35.0","CAN_119","119","","","","","","1064","","0","mustard","turquoise","[""mustard"",""turquoise"",""low nameability""]","right-left","[""turquoise"",""mustard""]","1","low nameability","7","right","trigger",""
"html-button-response","46","67337","0.0-36.0-0.0","CAN_119","119","","","","","","645","<button class=""jspsych-btn""><img src=""stimuli/mustard.png"" style=""width: 200px;height: 200px;""></button>","1","mustard","turquoise","[""mustard"",""turquoise"",""low nameability""]","right-left","[""turquoise"",""mustard""]","1","low nameability","7","right","response","1"
"html-audio-button-response","47","67552","0.0-36.0-1.0","CAN_119","119","","","","","","null","stimuli/bleep.m4a","null","mustard","turquoise","[""mustard"",""turquoise"",""low nameability""]","right-left","[""turquoise"",""mustard""]","1","low nameability","7","right","audio_feedback","1"
"html-button-response","48","68075","0.0-37.0","CAN_119","119","","","","","","null","<button class=""jspsych-btn""><img src=""stimuli/white_square.png"" style=""width: 200px;height: 200px;""></button>","null","mustard","turquoise","[""mustard"",""turquoise"",""low nameability""]","right-left","[""turquoise"",""mustard""]","1","low nameability","7","right","iti",""
"html-button-response","49","68838","0.0-38.0","CAN_119","119","","","","","","747","","0","mustard","neonyellow","[""mustard"",""neonyellow"",""low nameability""]","right-left","[""neonyellow"",""mustard""]","1","low nameability","8","right","trigger",""
"html-button-response","50","69539","0.0-39.0-0.0","CAN_119","119","","","","","","688","<button class=""jspsych-btn""><img src=""stimuli/mustard.png"" style=""width: 200px;height: 200px;""></button>","1","mustard","neonyellow","[""mustard"",""neonyellow"",""low nameability""]","right-left","[""neonyellow"",""mustard""]","1","low nameability","8","right","response","1"
"html-audio-button-response","51","69753","0.0-39.0-1.0","CAN_119","119","","","","","","null","stimuli/bleep.m4a","null","mustard","neonyellow","[""mustard"",""neonyellow"",""low nameability""]","right-left","[""neonyellow"",""mustard""]","1","low nameability","8","right","audio_feedback","1"
"html-button-response","52","70273","0.0-40.0","CAN_119","119","","","","","","null","<button class=""jspsych-btn""><img src=""stimuli/white_square.png"" style=""width: 200px;height: 200px;""></button>","null","mustard","neonyellow","[""mustard"",""neonyellow"",""low nameability""]","right-left","[""neonyellow"",""mustard""]","1","low nameability","8","right","iti",""
"html-button-response","53","71062","0.0-41.0","CAN_119","119","","","","","","773","","0","lightred","turquoise","[""lightred"",""turquoise"",""low nameability""]","left-right","[""lightred"",""turquoise"",""low nameability""]","1","low nameability","9","left","trigger",""
"html-button-response","54","71800","0.0-42.0-0.0","CAN_119","119","","","","","","729","<button class=""jspsych-btn""><img src=""stimuli/lightred.png"" style=""width: 200px;height: 200px;""></button>","0","lightred","turquoise","[""lightred"",""turquoise"",""low nameability""]","left-right","[""lightred"",""turquoise"",""low nameability""]","1","low nameability","9","left","response","1"
"html-audio-button-response","55","72007","0.0-42.0-1.0","CAN_119","119","","","","","","null","stimuli/bleep.m4a","null","lightred","turquoise","[""lightred"",""turquoise"",""low nameability""]","left-right","[""lightred"",""turquoise"",""low nameability""]","1","low nameability","9","left","audio_feedback","1"
"html-button-response","56","72527","0.0-43.0","CAN_119","119","","","","","","null","<button class=""jspsych-btn""><img src=""stimuli/white_square.png"" style=""width: 200px;height: 200px;""></button>","null","lightred","turquoise","[""lightred"",""turquoise"",""low nameability""]","left-right","[""lightred"",""turquoise"",""low nameability""]","1","low nameability","9","left","iti",""
"html-button-response","57","73240","0.0-44.0","CAN_119","119","","","","","","691","","0","pink","neonyellow","[""pink"",""neonyellow"",""low nameability""]","left-right","[""pink"",""neonyellow"",""low nameability""]","1","low nameability","10","left","trigger",""
"html-button-response","58","73963","0.0-45.0-0.0","CAN_119","119","","","","","","714","<button class=""jspsych-btn""><img src=""stimuli/pink.png"" style=""width: 200px;height: 200px;""></button>","0","pink","neonyellow","[""pink"",""neonyellow"",""low nameability""]","left-right","[""pink"",""neonyellow"",""low nameability""]","1","low nameability","10","left","response","1"
"html-audio-button-response","59","74167","0.0-45.0-1.0","CAN_119","119","","","","","","null","stimuli/bleep.m4a","null","pink","neonyellow","[""pink"",""neonyellow"",""low nameability""]","left-right","[""pink"",""neonyellow"",""low nameability""]","1","low nameability","10","left","audio_feedback","1"
"html-button-response","60","74689","0.0-46.0","CAN_119","119","","","","","","null","<button class=""jspsych-btn""><img src=""stimuli/white_square.png"" style=""width: 200px;height: 200px;""></button>","null","pink","neonyellow","[""pink"",""neonyellow"",""low nameability""]","left-right","[""pink"",""neonyellow"",""low nameability""]","1","low nameability","10","left","iti",""
"pavlovia","61","74821","0.0-47.0","CAN_119","119","","","","","","","","","","","","","","","","","","",""
"pavlovia","62","74830","0.0-48.0","CAN_119","119","","","","","","","","","","","","","","","","","","",""
"html-audio-button-response","63","76619","0.0-49.0","CAN_119","119","","","","","","1931","stimuli/tada.m4a","0","","","","","","","","","","",""
"html-button-response","64","77067","0.0-50.0","CAN_119","119","","","","","","440","","0","","","","","","","","","","",""
"html-button-response","65","78303","0.0-51.0","CAN_119","119","","","","","","1226","","0","orange","purple","[""orange"",""purple"",""high nameability""]","left-right","[""orange"",""purple"",""high nameability""]","2","high nameability","11","left","trigger",""
"html-button-response","66","79051","0.0-52.0-0.0","CAN_119","119","","","","","","739","<button class=""jspsych-btn""><img src=""stimuli/orange.png"" style=""width: 200px;height: 200px;""></button>","0","orange","purple","[""orange"",""purple"",""high nameability""]","left-right","[""orange"",""purple"",""high nameability""]","2","high nameability","11","left","response","1"
"html-audio-button-response","67","79255","0.0-52.0-1.0","CAN_119","119","","","","","","null","stimuli/bleep.m4a","null","orange","purple","[""orange"",""purple"",""high nameability""]","left-right","[""orange"",""purple"",""high nameability""]","2","high nameability","11","left","audio_feedback","1"
"html-button-response","68","79779","0.0-53.0","CAN_119","119","","","","","","null","<button class=""jspsych-btn""><img src=""stimuli/white_square.png"" style=""width: 200px;height: 200px;""></button>","null","orange","purple","[""orange"",""purple"",""high nameability""]","left-right","[""orange"",""purple"",""high nameability""]","2","high nameability","11","left","iti",""
"html-button-response","69","80670","0.0-54.0","CAN_119","119","","","","","","870","","0","purple","blue","[""purple"",""blue"",""high nameability""]","right-left","[""blue"",""purple""]","2","high nameability","12","right","trigger",""
"html-button-response","70","81338","0.0-55.0-0.0","CAN_119","119","","","","","","657","<button class=""jspsych-btn""><img src=""stimuli/purple.png"" style=""width: 200px;height: 200px;""></button>","1","purple","blue","[""purple"",""blue"",""high nameability""]","right-left","[""blue"",""purple""]","2","high nameability","12","right","response","1"
"html-audio-button-response","71","81548","0.0-55.0-1.0","CAN_119","119","","","","","","null","stimuli/bleep.m4a","null","purple","blue","[""purple"",""blue"",""high nameability""]","right-left","[""blue"",""purple""]","2","high nameability","12","right","audio_feedback","1"
"html-button-response","72","82065","0.0-56.0","CAN_119","119","","","","","","null","<button class=""jspsych-btn""><img src=""stimuli/white_square.png"" style=""width: 200px;height: 200px;""></button>","null","purple","blue","[""purple"",""blue"",""high nameability""]","right-left","[""blue"",""purple""]","2","high nameability","12","right","iti",""
"html-button-response","73","82832","0.0-57.0","CAN_119","119","","","","","","748","","0","red","brown","[""red"",""brown"",""high nameability""]","right-left","[""brown"",""red""]","2","high nameability","13","right","trigger",""
"html-button-response","74","83447","0.0-58.0-0.0","CAN_119","119","","","","","","607","<button class=""jspsych-btn""><img src=""stimuli/red.png"" style=""width: 200px;height: 200px;""></button>","1","red","brown","[""red"",""brown"",""high nameability""]","right-left","[""brown"",""red""]","2","high nameability","13","right","response","1"
"html-audio-button-response","75","83655","0.0-58.0-1.0","CAN_119","119","","","","","","null","stimuli/bleep.m4a","null","red","brown","[""red"",""brown"",""high nameability""]","right-left","[""brown"",""red""]","2","high nameability","13","right","audio_feedback","1"
"html-button-response","76","84175","0.0-59.0","CAN_119","119","","","","","","null","<button class=""jspsych-btn""><img src=""stimuli/white_square.png"" style=""width: 200px;height: 200px;""></button>","null","red","brown","[""red"",""brown"",""high nameability""]","right-left","[""brown"",""red""]","2","high nameability","13","right","iti",""
"html-button-response","77","84878","0.0-60.0","CAN_119","119","","","","","","676","","0","lightred","mustard","[""lightred"",""mustard"",""low nameability""]","left-right","[""lightred"",""mustard"",""low nameability""]","2","low nameability","14","left","trigger",""
"html-button-response","78","85601","0.0-61.0-0.0","CAN_119","119","","","","","","713","<button class=""jspsych-btn""><img src=""stimuli/lightred.png"" style=""width: 200px;height: 200px;""></button>","0","lightred","mustard","[""lightred"",""mustard"",""low nameability""]","left-right","[""lightred"",""mustard"",""low nameability""]","2","low nameability","14","left","response","1"
"html-audio-button-response","79","85807","0.0-61.0-1.0","CAN_119","119","","","","","","null","stimuli/bleep.m4a","null","lightred","mustard","[""lightred"",""mustard"",""low nameability""]","left-right","[""lightred"",""mustard"",""low nameability""]","2","low nameability","14","left","audio_feedback","1"
"html-button-response","80","86324","0.0-62.0","CAN_119","119","","","","","","null","<button class=""jspsych-btn""><img src=""stimuli/white_square.png"" style=""width: 200px;height: 200px;""></button>","null","lightred","mustard","[""lightred"",""mustard"",""low nameability""]","left-right","[""lightred"",""mustard"",""low nameability""]","2","low nameability","14","left","iti",""
"html-button-response","81","86995","0.0-63.0","CAN_119","119","","","","","","644","","0","orange","yellow","[""orange"",""yellow"",""high nameability""]","left-right","[""orange"",""yellow"",""high nameability""]","2","high nameability","15","left","trigger",""
"html-button-response","82","87706","0.0-64.0-0.0","CAN_119","119","","","","","","702","<button class=""jspsych-btn""><img src=""stimuli/orange.png"" style=""width: 200px;height: 200px;""></button>","0","orange","yellow","[""orange"",""yellow"",""high nameability""]","left-right","[""orange"",""yellow"",""high nameability""]","2","high nameability","15","left","response","1"
"html-audio-button-response","83","87912","0.0-64.0-1.0","CAN_119","119","","","","","","null","stimuli/bleep.m4a","null","orange","yellow","[""orange"",""yellow"",""high nameability""]","left-right","[""orange"",""yellow"",""high nameability""]","2","high nameability","15","left","audio_feedback","1"
"html-button-response","84","88431","0.0-65.0","CAN_119","119","","","","","","null","<button class=""jspsych-btn""><img src=""stimuli/white_square.png"" style=""width: 200px;height: 200px;""></button>","null","orange","yellow","[""orange"",""yellow"",""high nameability""]","left-right","[""orange"",""yellow"",""high nameability""]","2","high nameability","15","left","iti",""
"html-button-response","85","89037","0.0-66.0","CAN_119","119","","","","","","586","","0","darkgreenblue","lightred","[""darkgreenblue"",""lightred"",""low nameability""]","left-right","[""darkgreenblue"",""lightred"",""low nameability""]","2","low nameability","16","left","trigger",""
"html-button-response","86","89753","0.0-67.0-0.0","CAN_119","119","","","","","","707","<button class=""jspsych-btn""><img src=""stimuli/darkgreenblue.png"" style=""width: 200px;height: 200px;""></button>","0","darkgreenblue","lightred","[""darkgreenblue"",""lightred"",""low nameability""]","left-right","[""darkgreenblue"",""lightred"",""low nameability""]","2","low nameability","16","left","response","1"
"html-audio-button-response","87","89955","0.0-67.0-1.0","CAN_119","119","","","","","","null","stimuli/bleep.m4a","null","darkgreenblue","lightred","[""darkgreenblue"",""lightred"",""low nameability""]","left-right","[""darkgreenblue"",""lightred"",""low nameability""]","2","low nameability","16","left","audio_feedback","1"
"html-button-response","88","90477","0.0-68.0","CAN_119","119","","","","","","null","<button class=""jspsych-btn""><img src=""stimuli/white_square.png"" style=""width: 200px;height: 200px;""></button>","null","darkgreenblue","lightred","[""darkgreenblue"",""lightred"",""low nameability""]","left-right","[""darkgreenblue"",""lightred"",""low nameability""]","2","low nameability","16","left","iti",""
"html-button-response","89","91299","0.0-69.0","CAN_119","119","","","","","","802","","0","red","blue","[""red"",""blue"",""high nameability""]","right-left","[""blue"",""red""]","2","high nameability","17","right","trigger",""
"html-button-response","90","91920","0.0-70.0-0.0","CAN_119","119","","","","","","611","<button class=""jspsych-btn""><img src=""stimuli/red.png"" style=""width: 200px;height: 200px;""></button>","1","red","blue","[""red"",""blue"",""high nameability""]","right-left","[""blue"",""red""]","2","high nameability","17","right","response","1"
"html-audio-button-response","91","92123","0.0-70.0-1.0","CAN_119","119","","","","","","null","stimuli/bleep.m4a","null","red","blue","[""red"",""blue"",""high nameability""]","right-left","[""blue"",""red""]","2","high nameability","17","right","audio_feedback","1"
"html-button-response","92","92645","0.0-71.0","CAN_119","119","","","","","","null","<button class=""jspsych-btn""><img src=""stimuli/white_square.png"" style=""width: 200px;height: 200px;""></button>","null","red","blue","[""red"",""blue"",""high nameability""]","right-left","[""blue"",""red""]","2","high nameability","17","right","iti",""
"html-button-response","93","93354","0.0-72.0","CAN_119","119","","","","","","688","","0","purple","red","[""purple"",""red"",""high nameability""]","left-right","[""purple"",""red"",""high nameability""]","2","high nameability","18","left","trigger",""
"html-button-response","94","94067","0.0-73.0-0.0","CAN_119","119","","","","","","705","<button class=""jspsych-btn""><img src=""stimuli/purple.png"" style=""width: 200px;height: 200px;""></button>","0","purple","red","[""purple"",""red"",""high nameability""]","left-right","[""purple"",""red"",""high nameability""]","2","high nameability","18","left","response","1"
"html-audio-button-response","95","94271","0.0-73.0-1.0","CAN_119","119","","","","","","null","stimuli/bleep.m4a","null","purple","red","[""purple"",""red"",""high nameability""]","left-right","[""purple"",""red"",""high nameability""]","2","high nameability","18","left","audio_feedback","1"
"html-button-response","96","94795","0.0-74.0","CAN_119","119","","","","","","null","<button class=""jspsych-btn""><img src=""stimuli/white_square.png"" style=""width: 200px;height: 200px;""></button>","null","purple","red","[""purple"",""red"",""high nameability""]","left-right","[""purple"",""red"",""high nameability""]","2","high nameability","18","left","iti",""
"html-button-response","97","95533","0.0-75.0","CAN_119","119","","","","","","718","","0","turquoise","neonyellow","[""turquoise"",""neonyellow"",""low nameability""]","left-right","[""turquoise"",""neonyellow"",""low nameability""]","2","low nameability","19","left","trigger",""
"html-button-response","98","96256","0.0-76.0-0.0","CAN_119","119","","","","","","713","<button class=""jspsych-btn""><img src=""stimuli/turquoise.png"" style=""width: 200px;height: 200px;""></button>","0","turquoise","neonyellow","[""turquoise"",""neonyellow"",""low nameability""]","left-right","[""turquoise"",""neonyellow"",""low nameability""]","2","low nameability","19","left","response","1"
"html-audio-button-response","99","96464","0.0-76.0-1.0","CAN_119","119","","","","","","null","stimuli/bleep.m4a","null","turquoise","neonyellow","[""turquoise"",""neonyellow"",""low nameability""]","left-right","[""turquoise"",""neonyellow"",""low nameability""]","2","low nameability","19","left","audio_feedback","1"
"html-button-response","100","96984","0.0-77.0","CAN_119","119","","","","","","null","<button class=""jspsych-btn""><img src=""stimuli/white_square.png"" style=""width: 200px;height: 200px;""></button>","null","turquoise","neonyellow","[""turquoise"",""neonyellow"",""low nameability""]","left-right","[""turquoise"",""neonyellow"",""low nameability""]","2","low nameability","19","left","iti",""
"html-button-response","101","97660","0.0-78.0","CAN_119","119","","","","","","660","","0","blue","brown","[""blue"",""brown"",""high nameability""]","left-right","[""blue"",""brown"",""high nameability""]","2","high nameability","20","left","trigger",""
"html-button-response","102","98385","0.0-79.0-0.0","CAN_119","119","","","","","","716","<button class=""jspsych-btn""><img src=""stimuli/blue.png"" style=""width: 200px;height: 200px;""></button>","0","blue","brown","[""blue"",""brown"",""high nameability""]","left-right","[""blue"",""brown"",""high nameability""]","2","high nameability","20","left","response","1"
"html-audio-button-response","103","98588","0.0-79.0-1.0","CAN_119","119","","","","","","null","stimuli/bleep.m4a","null","blue","brown","[""blue"",""brown"",""high nameability""]","left-right","[""blue"",""brown"",""high nameability""]","2","high nameability","20","left","audio_feedback","1"
"html-button-response","104","99108","0.0-80.0","CAN_119","119","","","","","","null","<button class=""jspsych-btn""><img src=""stimuli/white_square.png"" style=""width: 200px;height: 200px;""></button>","null","blue","brown","[""blue"",""brown"",""high nameability""]","left-right","[""blue"",""brown"",""high nameability""]","2","high nameability","20","left","iti",""
"pavlovia","105","99167","0.0-81.0","CAN_119","119","","","","","","","","","","","","","","","","","","",""
"pavlovia","106","99177","0.0-82.0","CAN_119","119","","","","","","","","","","","","","","","","","","",""
"html-audio-button-response","107","100907","0.0-83.0","CAN_119","119","","","","","","1795","stimuli/tada.m4a","0","","","","","","","","","","",""
"html-button-response","108","101318","0.0-84.0","CAN_119","119","","","","","","405","","0","","","","","","","","","","",""
"html-button-response","109","102234","0.0-85.0","CAN_119","119","","","","","","906","","0","pink","mustard","[""pink"",""mustard"",""low nameability""]","left-right","[""pink"",""mustard"",""low nameability""]","3","low nameability","21","left","trigger",""
"html-button-response","110","102905","0.0-86.0-0.0","CAN_119","119","","","","","","664","<button class=""jspsych-btn""><img src=""stimuli/pink.png"" style=""width: 200px;height: 200px;""></button>","0","pink","mustard","[""pink"",""mustard"",""low nameability""]","left-right","[""pink"",""mustard"",""low nameability""]","3","low nameability","21","left","response","1"
"html-audio-button-response","111","103108","0.0-86.0-1.0","CAN_119","119","","","","","","null","stimuli/bleep.m4a","null","pink","mustard","[""pink"",""mustard"",""low nameability""]","left-right","[""pink"",""mustard"",""low nameability""]","3","low nameability","21","left","audio_feedback","1"
"html-button-response","112","103624","0.0-87.0","CAN_119","119","","","","","","null","<button class=""jspsych-btn""><img src=""stimuli/white_square.png"" style=""width: 200px;height: 200px;""></button>","null","pink","mustard","[""pink"",""mustard"",""low nameability""]","left-right","[""pink"",""mustard"",""low nameability""]","3","low nameability","21","left","iti",""
"html-button-response","113","104291","0.0-88.0","CAN_119","119","","","","","","650","","0","lightred","darkgreenblue","[""lightred"",""darkgreenblue"",""low nameability""]","left-right","[""lightred"",""darkgreenblue"",""low nameability""]","3","low nameability","22","left","trigger",""
"html-button-response","114","105028","0.0-89.0-0.0","CAN_119","119","","","","","","728","<button class=""jspsych-btn""><img src=""stimuli/lightred.png"" style=""width: 200px;height: 200px;""></button>","0","lightred","darkgreenblue","[""lightred"",""darkgreenblue"",""low nameability""]","left-right","[""lightred"",""darkgreenblue"",""low nameability""]","3","low nameability","22","left","response","1"
"html-audio-button-response","115","105235","0.0-89.0-1.0","CAN_119","119","","","","","","null","stimuli/bleep.m4a","null","lightred","darkgreenblue","[""lightred"",""darkgreenblue"",""low nameability""]","left-right","[""lightred"",""darkgreenblue"",""low nameability""]","3","low nameability","22","left","audio_feedback","1"
"html-button-response","116","105757","0.0-90.0","CAN_119","119","","","","","","null","<button class=""jspsych-btn""><img src=""stimuli/white_square.png"" style=""width: 200px;height: 200px;""></button>","null","lightred","darkgreenblue","[""lightred"",""darkgreenblue"",""low nameability""]","left-right","[""lightred"",""darkgreenblue"",""low nameability""]","3","low nameability","22","left","iti",""
"html-button-response","117","106464","0.0-91.0","CAN_119","119","","","","","","687","","0","turquoise","mustard","[""turquoise"",""mustard"",""low nameability""]","right-left","[""mustard"",""turquoise""]","3","low nameability","23","right","trigger",""
"html-button-response","118","107134","0.0-92.0-0.0","CAN_119","119","","","","","","661","<button class=""jspsych-btn""><img src=""stimuli/turquoise.png"" style=""width: 200px;height: 200px;""></button>","1","turquoise","mustard","[""turquoise"",""mustard"",""low nameability""]","right-left","[""mustard"",""turquoise""]","3","low nameability","23","right","response","1"
"html-audio-button-response","119","107340","0.0-92.0-1.0","CAN_119","119","","","","","","null","stimuli/bleep.m4a","null","turquoise","mustard","[""turquoise"",""mustard"",""low nameability""]","right-left","[""mustard"",""turquoise""]","3","low nameability","23","right","audio_feedback","1"
"html-button-response","120","107860","0.0-93.0","CAN_119","119","","","","","","null","<button class=""jspsych-btn""><img src=""stimuli/white_square.png"" style=""width: 200px;height: 200px;""></button>","null","turquoise","mustard","[""turquoise"",""mustard"",""low nameability""]","right-left","[""mustard"",""turquoise""]","3","low nameability","23","right","iti",""
"html-button-response","121","108551","0.0-94.0","CAN_119","119","","","","","","670","","0","brown","yellow","[""brown"",""yellow"",""high nameability""]","left-right","[""brown"",""yellow"",""high nameability""]","3","high nameability","24","left","trigger",""
"html-button-response","122","109274","0.0-95.0-0.0","CAN_119","119","","","","","","713","<button class=""jspsych-btn""><img src=""stimuli/brown.png"" style=""width: 200px;height: 200px;""></button>","0","brown","yellow","[""brown"",""yellow"",""high nameability""]","left-right","[""brown"",""yellow"",""high nameability""]","3","high nameability","24","left","response","1"
"html-audio-button-response","123","109480","0.0-95.0-1.0","CAN_119","119","","","","","","null","stimuli/bleep.m4a","null","brown","yellow","[""brown"",""yellow"",""high nameability""]","left-right","[""brown"",""yellow"",""high nameability""]","3","high nameability","24","left","audio_feedback","1"
"html-button-response","124","109996","0.0-96.0","CAN_119","119","","","","","","null","<button class=""jspsych-btn""><img src=""stimuli/white_square.png"" style=""width: 200px;height: 200px;""></button>","null","brown","yellow","[""brown"",""yellow"",""high nameability""]","left-right","[""brown"",""yellow"",""high nameability""]","3","high nameability","24","left","iti",""
"html-button-response","125","110676","0.0-97.0","CAN_119","119","","","","","","660","","0","mustard","darkgreenblue","[""mustard"",""darkgreenblue"",""low nameability""]","right-left","[""darkgreenblue"",""mustard""]","3","low nameability","25","right","trigger",""
"html-button-response","126","111296","0.0-98.0-0.0","CAN_119","119","","","","","","612","<button class=""jspsych-btn""><img src=""stimuli/mustard.png"" style=""width: 200px;height: 200px;""></button>","1","mustard","darkgreenblue","[""mustard"",""darkgreenblue"",""low nameability""]","right-left","[""darkgreenblue"",""mustard""]","3","low nameability","25","right","response","1"
"html-audio-button-response","127","111503","0.0-98.0-1.0","CAN_119","119","","","","","","null","stimuli/bleep.m4a","null","mustard","darkgreenblue","[""mustard"",""darkgreenblue"",""low nameability""]","right-left","[""darkgreenblue"",""mustard""]","3","low nameability","25","right","audio_feedback","1"
"html-button-response","128","112028","0.0-99.0","CAN_119","119","","","","","","null","<button class=""jspsych-btn""><img src=""stimuli/white_square.png"" style=""width: 200px;height: 200px;""></button>","null","mustard","darkgreenblue","[""mustard"",""darkgreenblue"",""low nameability""]","right-left","[""darkgreenblue"",""mustard""]","3","low nameability","25","right","iti",""
"html-button-response","129","112756","0.0-100.0","CAN_119","119","","","","","","712","","0","purple","orange","[""purple"",""orange"",""high nameability""]","right-left","[""orange"",""purple""]","3","high nameability","26","right","trigger",""
"html-button-response","130","113410","0.0-101.0-0.0","CAN_119","119","","","","","","644","<button class=""jspsych-btn""><img src=""stimuli/purple.png"" style=""width: 200px;height: 200px;""></button>","1","purple","orange","[""purple"",""orange"",""high nameability""]","right-left","[""orange"",""purple""]","3","high nameability","26","right","response","1"
"html-audio-button-response","131","113619","0.0-101.0-1.0","CAN_119","119","","","","","","null","stimuli/bleep.m4a","null","purple","orange","[""purple"",""orange"",""high nameability""]","right-left","[""orange"",""purple""]","3","high nameability","26","right","audio_feedback","1"
"html-button-response","132","114141","0.0-102.0","CAN_119","119","","","","","","null","<button class=""jspsych-btn""><img src=""stimuli/white_square.png"" style=""width: 200px;height: 200px;""></button>","null","purple","orange","[""purple"",""orange"",""high nameability""]","right-left","[""orange"",""purple""]","3","high nameability","26","right","iti",""
"html-button-response","133","114814","0.0-103.0","CAN_119","119","","","","","","647","","0","darkgreenblue","turquoise","[""darkgreenblue"",""turquoise"",""low nameability""]","right-left","[""turquoise"",""darkgreenblue""]","3","low nameability","27","right","trigger",""
"html-button-response","134","115479","0.0-104.0-0.0","CAN_119","119","","","","","","659","<button class=""jspsych-btn""><img src=""stimuli/darkgreenblue.png"" style=""width: 200px;height: 200px;""></button>","1","darkgreenblue","turquoise","[""darkgreenblue"",""turquoise"",""low nameability""]","right-left","[""turquoise"",""darkgreenblue""]","3","low nameability","27","right","response","1"
"html-audio-button-response","135","115683","0.0-104.0-1.0","CAN_119","119","","","","","","null","stimuli/bleep.m4a","null","darkgreenblue","turquoise","[""darkgreenblue"",""turquoise"",""low nameability""]","right-left","[""turquoise"",""darkgreenblue""]","3","low nameability","27","right","audio_feedback","1"
"html-button-response","136","116199","0.0-105.0","CAN_119","119","","","","","","null","<button class=""jspsych-btn""><img src=""stimuli/white_square.png"" style=""width: 200px;height: 200px;""></button>","null","darkgreenblue","turquoise","[""darkgreenblue"",""turquoise"",""low nameability""]","right-left","[""turquoise"",""darkgreenblue""]","3","low nameability","27","right","iti",""
"html-button-response","137","116847","0.0-106.0","CAN_119","119","","","","","","625","","0","neonyellow","turquoise","[""neonyellow"",""turquoise"",""low nameability""]","right-left","[""turquoise"",""neonyellow""]","3","low nameability","28","right","trigger",""
"html-button-response","138","117584","0.0-107.0-0.0","CAN_119","119","","","","","","728","<button class=""jspsych-btn""><img src=""stimuli/neonyellow.png"" style=""width: 200px;height: 200px;""></button>","1","neonyellow","turquoise","[""neonyellow"",""turquoise"",""low nameability""]","right-left","[""turquoise"",""neonyellow""]","3","low nameability","28","right","response","1"
"html-audio-button-response","139","117787","0.0-107.0-1.0","CAN_119","119","","","","","","null","stimuli/bleep.m4a","null","neonyellow","turquoise","[""neonyellow"",""turquoise"",""low nameability""]","right-left","[""turquoise"",""neonyellow""]","3","low nameability","28","right","audio_feedback","1"
"html-button-response","140","118306","0.0-108.0","CAN_119","119","","","","","","null","<button class=""jspsych-btn""><img src=""stimuli/white_square.png"" style=""width: 200px;height: 200px;""></button>","null","neonyellow","turquoise","[""neonyellow"",""turquoise"",""low nameability""]","right-left","[""turquoise"",""neonyellow""]","3","low nameability","28","right","iti",""
"html-button-response","141","118998","0.0-109.0","CAN_119","119","","","","","","676","","0","yellow","blue","[""yellow"",""blue"",""high nameability""]","right-left","[""blue"",""yellow""]","3","high nameability","29","right","trigger",""
"html-button-response","142","119807","0.0-110.0-0.0","CAN_119","119","","","","","","797","<button class=""jspsych-btn""><img src=""stimuli/yellow.png"" style=""width: 200px;height: 200px;""></button>","1","yellow","blue","[""yellow"",""blue"",""high nameability""]","right-left","[""blue"",""yellow""]","3","high nameability","29","right","response","1"
"html-audio-button-response","143","120011","0.0-110.0-1.0","CAN_119","119","","","","","","null","stimuli/bleep.m4a","null","yellow","blue","[""yellow"",""blue"",""high nameability""]","right-left","[""blue"",""yellow""]","3","high nameability","29","right","audio_feedback","1"
"html-button-response","144","120524","0.0-111.0","CAN_119","119","","","","","","null","<button class=""jspsych-btn""><img src=""stimuli/white_square.png"" style=""width: 200px;height: 200px;""></button>","null","yellow","blue","[""yellow"",""blue"",""high nameability""]","right-left","[""blue"",""yellow""]","3","high nameability","29","right","iti",""
"html-button-response","145","121187","0.0-112.0","CAN_119","119","","","","","","646","","0","red","orange","[""red"",""orange"",""high nameability""]","right-left","[""orange"",""red""]","3","high nameability","30","right","trigger",""
"html-button-response","146","121959","0.0-113.0-0.0","CAN_119","119","","","","","","764","<button class=""jspsych-btn""><img src=""stimuli/red.png"" style=""width: 200px;height: 200px;""></button>","1","red","orange","[""red"",""orange"",""high nameability""]","right-left","[""orange"",""red""]","3","high nameability","30","right","response","1"
"html-audio-button-response","147","122168","0.0-113.0-1.0","CAN_119","119","","","","","","null","stimuli/bleep.m4a","null","red","orange","[""red"",""orange"",""high nameability""]","right-left","[""orange"",""red""]","3","high nameability","30","right","audio_feedback","1"
"html-button-response","148","122685","0.0-114.0","CAN_119","119","","","","","","null","<button class=""jspsych-btn""><img src=""stimuli/white_square.png"" style=""width: 200px;height: 200px;""></button>","null","red","orange","[""red"",""orange"",""high nameability""]","right-left","[""orange"",""red""]","3","high nameability","30","right","iti",""
"pavlovia","149","122788","0.0-115.0","CAN_119","119","","","","","","","","","","","","","","","","","","",""
"pavlovia","150","122805","0.0-116.0","CAN_119","119","","","","","","","","","","","","","","","","","","",""
"html-audio-button-response","151","124258","0.0-117.0","CAN_119","119","","","","","","1571","stimuli/tada.m4a","0","","","","","","","","","","",""
"html-button-response","152","124839","0.0-118.0","CAN_119","119","","","","","","574","","0","","","","","","","","","","",""
"html-button-response","153","125861","0.0-119.0","CAN_119","119","","","","","","1013","","0","orange","blue","[""orange"",""blue"",""high nameability""]","right-left","[""blue"",""orange""]","4","high nameability","31","right","trigger",""
"html-button-response","154","126764","0.0-120.0-0.0","CAN_119","119","","","","","","893","<button class=""jspsych-btn""><img src=""stimuli/orange.png"" style=""width: 200px;height: 200px;""></button>","1","orange","blue","[""orange"",""blue"",""high nameability""]","right-left","[""blue"",""orange""]","4","high nameability","31","right","response","1"
"html-audio-button-response","155","126968","0.0-120.0-1.0","CAN_119","119","","","","","","null","stimuli/bleep.m4a","null","orange","blue","[""orange"",""blue"",""high nameability""]","right-left","[""blue"",""orange""]","4","high nameability","31","right","audio_feedback","1"
"html-button-response","156","127484","0.0-121.0","CAN_119","119","","","","","","null","<button class=""jspsych-btn""><img src=""stimuli/white_square.png"" style=""width: 200px;height: 200px;""></button>","null","orange","blue","[""orange"",""blue"",""high nameability""]","right-left","[""blue"",""orange""]","4","high nameability","31","right","iti",""
"html-button-response","157","128444","0.0-122.0","CAN_119","119","","","","","","938","","0","purple","brown","[""purple"",""brown"",""high nameability""]","left-right","[""purple"",""brown"",""high nameability""]","4","high nameability","32","left","trigger",""
"html-button-response","158","129263","0.0-123.0-0.0","CAN_119","119","","","","","","810","<button class=""jspsych-btn""><img src=""stimuli/purple.png"" style=""width: 200px;height: 200px;""></button>","0","purple","brown","[""purple"",""brown"",""high nameability""]","left-right","[""purple"",""brown"",""high nameability""]","4","high nameability","32","left","response","1"
"html-audio-button-response","159","129468","0.0-123.0-1.0","CAN_119","119","","","","","","null","stimuli/bleep.m4a","null","purple","brown","[""purple"",""brown"",""high nameability""]","left-right","[""purple"",""brown"",""high nameability""]","4","high nameability","32","left","audio_feedback","1"
"html-button-response","160","129989","0.0-124.0","CAN_119","119","","","","","","null","<button class=""jspsych-btn""><img src=""stimuli/white_square.png"" style=""width: 200px;height: 200px;""></button>","null","purple","brown","[""purple"",""brown"",""high nameability""]","left-right","[""purple"",""brown"",""high nameability""]","4","high nameability","32","left","iti",""
"html-button-response","161","130819","0.0-125.0","CAN_119","119","","","","","","808","","0","pink","darkgreenblue","[""pink"",""darkgreenblue"",""low nameability""]","left-right","[""pink"",""darkgreenblue"",""low nameability""]","4","low nameability","33","left","trigger",""
"html-button-response","162","131618","0.0-126.0-0.0","CAN_119","119","","","","","","789","<button class=""jspsych-btn""><img src=""stimuli/pink.png"" style=""width: 200px;height: 200px;""></button>","0","pink","darkgreenblue","[""pink"",""darkgreenblue"",""low nameability""]","left-right","[""pink"",""darkgreenblue"",""low nameability""]","4","low nameability","33","left","response","1"
"html-audio-button-response","163","131824","0.0-126.0-1.0","CAN_119","119","","","","","","null","stimuli/bleep.m4a","null","pink","darkgreenblue","[""pink"",""darkgreenblue"",""low nameability""]","left-right","[""pink"",""darkgreenblue"",""low nameability""]","4","low nameability","33","left","audio_feedback","1"
"html-button-response","164","132344","0.0-127.0","CAN_119","119","","","","","","null","<button class=""jspsych-btn""><img src=""stimuli/white_square.png"" style=""width: 200px;height: 200px;""></button>","null","pink","darkgreenblue","[""pink"",""darkgreenblue"",""low nameability""]","left-right","[""pink"",""darkgreenblue"",""low nameability""]","4","low nameability","33","left","iti",""
"html-button-response","165","133109","0.0-128.0","CAN_119","119","","","","","","747","","0","blue","purple","[""blue"",""purple"",""high nameability""]","left-right","[""blue"",""purple"",""high nameability""]","4","high nameability","34","left","trigger",""
"html-button-response","166","133845","0.0-129.0-0.0","CAN_119","119","","","","","","727","<button class=""jspsych-btn""><img src=""stimuli/blue.png"" style=""width: 200px;height: 200px;""></button>","0","blue","purple","[""blue"",""purple"",""high nameability""]","left-right","[""blue"",""purple"",""high nameability""]","4","high nameability","34","left","response","1"
"html-audio-button-response","167","134055","0.0-129.0-1.0","CAN_119","119","","","","","","null","stimuli/bleep.m4a","null","blue","purple","[""blue"",""purple"",""high nameability""]","left-right","[""blue"",""purple"",""high nameability""]","4","high nameability","34","left","audio_feedback","1"
"html-button-response","168","134583","0.0-130.0","CAN_119","119","","","","","","null","<button class=""jspsych-btn""><img src=""stimuli/white_square.png"" style=""width: 200px;height: 200px;""></button>","null","blue","purple","[""blue"",""purple"",""high nameability""]","left-right","[""blue"",""purple"",""high nameability""]","4","high nameability","34","left","iti",""
"html-button-response","169","135354","0.0-131.0","CAN_119","119","","","","","","749","","0","yellow","brown","[""yellow"",""brown"",""high nameability""]","left-right","[""yellow"",""brown"",""high nameability""]","4","high nameability","35","left","trigger",""
"html-button-response","170","135981","0.0-132.0-0.0","CAN_119","119","","","","","","618","<button class=""jspsych-btn""><img src=""stimuli/yellow.png"" style=""width: 200px;height: 200px;""></button>","0","yellow","brown","[""yellow"",""brown"",""high nameability""]","left-right","[""yellow"",""brown"",""high nameability""]","4","high nameability","35","left","response","1"
"html-audio-button-response","171","136188","0.0-132.0-1.0","CAN_119","119","","","","","","null","stimuli/bleep.m4a","null","yellow","brown","[""yellow"",""brown"",""high nameability""]","left-right","[""yellow"",""brown"",""high nameability""]","4","high nameability","35","left","audio_feedback","1"
"html-button-response","172","136702","0.0-133.0","CAN_119","119","","","","","","null","<button class=""jspsych-btn""><img src=""stimuli/white_square.png"" style=""width: 200px;height: 200px;""></button>","null","yellow","brown","[""yellow"",""brown"",""high nameability""]","left-right","[""yellow"",""brown"",""high nameability""]","4","high nameability","35","left","iti",""
"html-button-response","173","137503","0.0-134.0","CAN_119","119","","","","","","795","","0","neonyellow","darkgreenblue","[""neonyellow"",""darkgreenblue"",""low nameability""]","left-right","[""neonyellow"",""darkgreenblue"",""low nameability""]","4","low nameability","36","left","trigger",""
"html-button-response","174","138183","0.0-135.0-0.0","CAN_119","119","","","","","","672","<button class=""jspsych-btn""><img src=""stimuli/neonyellow.png"" style=""width: 200px;height: 200px;""></button>","0","neonyellow","darkgreenblue","[""neonyellow"",""darkgreenblue"",""low nameability""]","left-right","[""neonyellow"",""darkgreenblue"",""low nameability""]","4","low nameability","36","left","response","1"
"html-audio-button-response","175","138388","0.0-135.0-1.0","CAN_119","119","","","","","","null","stimuli/bleep.m4a","null","neonyellow","darkgreenblue","[""neonyellow"",""darkgreenblue"",""low nameability""]","left-right","[""neonyellow"",""darkgreenblue"",""low nameability""]","4","low nameability","36","left","audio_feedback","1"
"html-button-response","176","138909","0.0-136.0","CAN_119","119","","","","","","null","<button class=""jspsych-btn""><img src=""stimuli/white_square.png"" style=""width: 200px;height: 200px;""></button>","null","neonyellow","darkgreenblue","[""neonyellow"",""darkgreenblue"",""low nameability""]","left-right","[""neonyellow"",""darkgreenblue"",""low nameability""]","4","low nameability","36","left","iti",""
"html-button-response","177","139612","0.0-137.0","CAN_119","119","","","","","","684","","0","neonyellow","mustard","[""neonyellow"",""mustard"",""low nameability""]","right-left","[""mustard"",""neonyellow""]","4","low nameability","37","right","trigger",""
"html-button-response","178","140324","0.0-138.0-0.0","CAN_119","119","","","","","","705","<button class=""jspsych-btn""><img src=""stimuli/neonyellow.png"" style=""width: 200px;height: 200px;""></button>","1","neonyellow","mustard","[""neonyellow"",""mustard"",""low nameability""]","right-left","[""mustard"",""neonyellow""]","4","low nameability","37","right","response","1"
"html-audio-button-response","179","140530","0.0-138.0-1.0","CAN_119","119","","","","","","null","stimuli/bleep.m4a","null","neonyellow","mustard","[""neonyellow"",""mustard"",""low nameability""]","right-left","[""mustard"",""neonyellow""]","4","low nameability","37","right","audio_feedback","1"
"html-button-response","180","141055","0.0-139.0","CAN_119","119","","","","","","null","<button class=""jspsych-btn""><img src=""stimuli/white_square.png"" style=""width: 200px;height: 200px;""></button>","null","neonyellow","mustard","[""neonyellow"",""mustard"",""low nameability""]","right-left","[""mustard"",""neonyellow""]","4","low nameability","37","right","iti",""
"html-button-response","181","141739","0.0-140.0","CAN_119","119","","","","","","654","","0","blue","yellow","[""blue"",""yellow"",""high nameability""]","left-right","[""blue"",""yellow"",""high nameability""]","4","high nameability","38","left","trigger",""
"html-button-response","182","142547","0.0-141.0-0.0","CAN_119","119","","","","","","792","<button class=""jspsych-btn""><img src=""stimuli/blue.png"" style=""width: 200px;height: 200px;""></button>","0","blue","yellow","[""blue"",""yellow"",""high nameability""]","left-right","[""blue"",""yellow"",""high nameability""]","4","high nameability","38","left","response","1"
"html-audio-button-response","183","142755","0.0-141.0-1.0","CAN_119","119","","","","","","null","stimuli/bleep.m4a","null","blue","yellow","[""blue"",""yellow"",""high nameability""]","left-right","[""blue"",""yellow"",""high nameability""]","4","high nameability","38","left","audio_feedback","1"
"html-button-response","184","143275","0.0-142.0","CAN_119","119","","","","","","null","<button class=""jspsych-btn""><img src=""stimuli/white_square.png"" style=""width: 200px;height: 200px;""></button>","null","blue","yellow","[""blue"",""yellow"",""high nameability""]","left-right","[""blue"",""yellow"",""high nameability""]","4","high nameability","38","left","iti",""
"html-button-response","185","143929","0.0-143.0","CAN_119","119","","","","","","636","","0","orange","red","[""orange"",""red"",""high nameability""]","right-left","[""red"",""orange""]","4","high nameability","39","right","trigger",""
"html-button-response","186","144591","0.0-144.0-0.0","CAN_119","119","","","","","","654","<button class=""jspsych-btn""><img src=""stimuli/orange.png"" style=""width: 200px;height: 200px;""></button>","1","orange","red","[""orange"",""red"",""high nameability""]","right-left","[""red"",""orange""]","4","high nameability","39","right","response","1"
"html-audio-button-response","187","144799","0.0-144.0-1.0","CAN_119","119","","","","","","null","stimuli/bleep.m4a","null","orange","red","[""orange"",""red"",""high nameability""]","right-left","[""red"",""orange""]","4","high nameability","39","right","audio_feedback","1"
"html-button-response","188","145316","0.0-145.0","CAN_119","119","","","","","","null","<button class=""jspsych-btn""><img src=""stimuli/white_square.png"" style=""width: 200px;height: 200px;""></button>","null","orange","red","[""orange"",""red"",""high nameability""]","right-left","[""red"",""orange""]","4","high nameability","39","right","iti",""
"html-button-response","189","145983","0.0-146.0","CAN_119","119","","","","","","656","","0","mustard","lightred","[""mustard"",""lightred"",""low nameability""]","left-right","[""mustard"",""lightred"",""low nameability""]","4","low nameability","40","left","trigger",""
"html-button-response","190","146733","0.0-147.0-0.0","CAN_119","119","","","","","","741","<button class=""jspsych-btn""><img src=""stimuli/mustard.png"" style=""width: 200px;height: 200px;""></button>","0","mustard","lightred","[""mustard"",""lightred"",""low nameability""]","left-right","[""mustard"",""lightred"",""low nameability""]","4","low nameability","40","left","response","1"
"html-audio-button-response","191","146936","0.0-147.0-1.0","CAN_119","119","","","","","","null","stimuli/bleep.m4a","null","mustard","lightred","[""mustard"",""lightred"",""low nameability""]","left-right","[""mustard"",""lightred"",""low nameability""]","4","low nameability","40","left","audio_feedback","1"
"html-button-response","192","147459","0.0-148.0","CAN_119","119","","","","","","null","<button class=""jspsych-btn""><img src=""stimuli/white_square.png"" style=""width: 200px;height: 200px;""></button>","null","mustard","lightred","[""mustard"",""lightred"",""low nameability""]","left-right","[""mustard"",""lightred"",""low nameability""]","4","low nameability","40","left","iti",""
"pavlovia","193","147537","0.0-149.0","CAN_119","119","","","","","","","","","","","","","","","","","","",""
"pavlovia","194","147545","0.0-150.0","CAN_119","119","","","","","","","","","","","","","","","","","","",""
"html-audio-button-response","195","150068","0.0-151.0","CAN_119","119","","","","","","2611","stimuli/tada.m4a","0","","","","","","","","","","",""
"html-button-response","196","150594","0.0-152.0","CAN_119","119","","","","","","519","","0","","","","","","","","","","",""
"html-button-response","197","151800","0.0-153.0","CAN_119","119","","","","","","1199","","0","blue","red","[""blue"",""red"",""high nameability""]","left-right","[""blue"",""red"",""high nameability""]","5","high nameability","41","left","trigger",""
"html-button-response","198","152522","0.0-154.0-0.0","CAN_119","119","","","","","","713","<button class=""jspsych-btn""><img src=""stimuli/blue.png"" style=""width: 200px;height: 200px;""></button>","0","blue","red","[""blue"",""red"",""high nameability""]","left-right","[""blue"",""red"",""high nameability""]","5","high nameability","41","left","response","1"
"html-audio-button-response","199","152727","0.0-154.0-1.0","CAN_119","119","","","","","","null","stimuli/bleep.m4a","null","blue","red","[""blue"",""red"",""high nameability""]","left-right","[""blue"",""red"",""high nameability""]","5","high nameability","41","left","audio_feedback","1"
"html-button-response","200","153242","0.0-155.0","CAN_119","119","","","","","","null","<button class=""jspsych-btn""><img src=""stimuli/white_square.png"" style=""width: 200px;height: 200px;""></button>","null","blue","red","[""blue"",""red"",""high nameability""]","left-right","[""blue"",""red"",""high nameability""]","5","high nameability","41","left","iti",""
"html-button-response","201","154098","0.0-156.0","CAN_119","119","","","","","","832","","0","purple","yellow","[""purple"",""yellow"",""high nameability""]","left-right","[""purple"",""yellow"",""high nameability""]","5","high nameability","42","left","trigger",""
"html-button-response","202","154701","0.0-157.0-0.0","CAN_119","119","","","","","","590","<button class=""jspsych-btn""><img src=""stimuli/purple.png"" style=""width: 200px;height: 200px;""></button>","0","purple","yellow","[""purple"",""yellow"",""high nameability""]","left-right","[""purple"",""yellow"",""high nameability""]","5","high nameability","42","left","response","1"
"html-audio-button-response","203","154903","0.0-157.0-1.0","CAN_119","119","","","","","","null","stimuli/bleep.m4a","null","purple","yellow","[""purple"",""yellow"",""high nameability""]","left-right","[""purple"",""yellow"",""high nameability""]","5","high nameability","42","left","audio_feedback","1"
"html-button-response","204","155421","0.0-158.0","CAN_119","119","","","","","","null","<button class=""jspsych-btn""><img src=""stimuli/white_square.png"" style=""width: 200px;height: 200px;""></button>","null","purple","yellow","[""purple"",""yellow"",""high nameability""]","left-right","[""purple"",""yellow"",""high nameability""]","5","high nameability","42","left","iti",""
"html-button-response","205","156221","0.0-159.0","CAN_119","119","","","","","","783","","0","orange","brown","[""orange"",""brown"",""high nameability""]","right-left","[""brown"",""orange""]","5","high nameability","43","right","trigger",""
"html-button-response","206","156804","0.0-160.0-0.0","CAN_119","119","","","","","","575","<button class=""jspsych-btn""><img src=""stimuli/orange.png"" style=""width: 200px;height: 200px;""></button>","1","orange","brown","[""orange"",""brown"",""high nameability""]","right-left","[""brown"",""orange""]","5","high nameability","43","right","response","1"
"html-audio-button-response","207","157008","0.0-160.0-1.0","CAN_119","119","","","","","","null","stimuli/bleep.m4a","null","orange","brown","[""orange"",""brown"",""high nameability""]","right-left","[""brown"",""orange""]","5","high nameability","43","right","audio_feedback","1"
"html-button-response","208","157523","0.0-161.0","CAN_119","119","","","","","","null","<button class=""jspsych-btn""><img src=""stimuli/white_square.png"" style=""width: 200px;height: 200px;""></button>","null","orange","brown","[""orange"",""brown"",""high nameability""]","right-left","[""brown"",""orange""]","5","high nameability","43","right","iti",""
"html-button-response","209","158220","0.0-162.0","CAN_119","119","","","","","","684","","0","brown","red","[""brown"",""red"",""high nameability""]","right-left","[""red"",""brown""]","5","high nameability","44","right","trigger",""
"html-button-response","210","158910","0.0-163.0-0.0","CAN_119","119","","","","","","681","<button class=""jspsych-btn""><img src=""stimuli/brown.png"" style=""width: 200px;height: 200px;""></button>","1","brown","red","[""brown"",""red"",""high nameability""]","right-left","[""red"",""brown""]","5","high nameability","44","right","response","1"
"html-audio-button-response","211","159115","0.0-163.0-1.0","CAN_119","119","","","","","","null","stimuli/bleep.m4a","null","brown","red","[""brown"",""red"",""high nameability""]","right-left","[""red"",""brown""]","5","high nameability","44","right","audio_feedback","1"
"html-button-response","212","159637","0.0-164.0","CAN_119","119","","","","","","null","<button class=""jspsych-btn""><img src=""stimuli/white_square.png"" style=""width: 200px;height: 200px;""></button>","null","brown","red","[""brown"",""red"",""high nameability""]","right-left","[""red"",""brown""]","5","high nameability","44","right","iti",""
"html-button-response","213","160427","0.0-165.0","CAN_119","119","","","","","","771","","0","neonyellow","lightred","[""neonyellow"",""lightred"",""low nameability""]","left-right","[""neonyellow"",""lightred"",""low nameability""]","5","low nameability","45","left","trigger",""
"html-button-response","214","161120","0.0-166.0-0.0","CAN_119","119","","","","","","685","<button class=""jspsych-btn""><img src=""stimuli/neonyellow.png"" style=""width: 200px;height: 200px;""></button>","0","neonyellow","lightred","[""neonyellow"",""lightred"",""low nameability""]","left-right","[""neonyellow"",""lightred"",""low nameability""]","5","low nameability","45","left","response","1"
"html-audio-button-response","215","161324","0.0-166.0-1.0","CAN_119","119","","","","","","null","stimuli/bleep.m4a","null","neonyellow","lightred","[""neonyellow"",""lightred"",""low nameability""]","left-right","[""neonyellow"",""lightred"",""low nameability""]","5","low nameability","45","left","audio_feedback","1"
"html-button-response","216","161842","0.0-167.0","CAN_119","119","","","","","","null","<button class=""jspsych-btn""><img src=""stimuli/white_square.png"" style=""width: 200px;height: 200px;""></button>","null","neonyellow","lightred","[""neonyellow"",""lightred"",""low nameability""]","left-right","[""neonyellow"",""lightred"",""low nameability""]","5","low nameability","45","left","iti",""
"html-button-response","217","162642","0.0-168.0","CAN_119","119","","","","","","780","","0","yellow","red","[""yellow"",""red"",""high nameability""]","left-right","[""yellow"",""red"",""high nameability""]","5","high nameability","46","left","trigger",""
"html-button-response","218","163344","0.0-169.0-0.0","CAN_119","119","","","","","","693","<button class=""jspsych-btn""><img src=""stimuli/yellow.png"" style=""width: 200px;height: 200px;""></button>","0","yellow","red","[""yellow"",""red"",""high nameability""]","left-right","[""yellow"",""red"",""high nameability""]","5","high nameability","46","left","response","1"
"html-audio-button-response","219","163548","0.0-169.0-1.0","CAN_119","119","","","","","","null","stimuli/bleep.m4a","null","yellow","red","[""yellow"",""red"",""high nameability""]","left-right","[""yellow"",""red"",""high nameability""]","5","high nameability","46","left","audio_feedback","1"
"html-button-response","220","164068","0.0-170.0","CAN_119","119","","","","","","null","<button class=""jspsych-btn""><img src=""stimuli/white_square.png"" style=""width: 200px;height: 200px;""></button>","null","yellow","red","[""yellow"",""red"",""high nameability""]","left-right","[""yellow"",""red"",""high nameability""]","5","high nameability","46","left","iti",""
"html-button-response","221","164773","0.0-171.0","CAN_119","119","","","","","","692","","0","mustard","pink","[""mustard"",""pink"",""low nameability""]","left-right","[""mustard"",""pink"",""low nameability""]","5","low nameability","47","left","trigger",""
"html-button-response","222","165518","0.0-172.0-0.0","CAN_119","119","","","","","","737","<button class=""jspsych-btn""><img src=""stimuli/mustard.png"" style=""width: 200px;height: 200px;""></button>","0","mustard","pink","[""mustard"",""pink"",""low nameability""]","left-right","[""mustard"",""pink"",""low nameability""]","5","low nameability","47","left","response","1"
"html-audio-button-response","223","165728","0.0-172.0-1.0","CAN_119","119","","","","","","null","stimuli/bleep.m4a","null","mustard","pink","[""mustard"",""pink"",""low nameability""]","left-right","[""mustard"",""pink"",""low nameability""]","5","low nameability","47","left","audio_feedback","1"
"html-button-response","224","166252","0.0-173.0","CAN_119","119","","","","","","null","<button class=""jspsych-btn""><img src=""stimuli/white_square.png"" style=""width: 200px;height: 200px;""></button>","null","mustard","pink","[""mustard"",""pink"",""low nameability""]","left-right","[""mustard"",""pink"",""low nameability""]","5","low nameability","47","left","iti",""
"html-button-response","225","167066","0.0-174.0","CAN_119","119","","","","","","786","","0","brown","blue","[""brown"",""blue"",""high nameability""]","right-left","[""blue"",""brown""]","5","high nameability","48","right","trigger",""
"html-button-response","226","167694","0.0-175.0-0.0","CAN_119","119","","","","","","615","<button class=""jspsych-btn""><img src=""stimuli/brown.png"" style=""width: 200px;height: 200px;""></button>","1","brown","blue","[""brown"",""blue"",""high nameability""]","right-left","[""blue"",""brown""]","5","high nameability","48","right","response","1"
"html-audio-button-response","227","167901","0.0-175.0-1.0","CAN_119","119","","","","","","null","stimuli/bleep.m4a","null","brown","blue","[""brown"",""blue"",""high nameability""]","right-left","[""blue"",""brown""]","5","high nameability","48","right","audio_feedback","1"
"html-button-response","228","168415","0.0-176.0","CAN_119","119","","","","","","null","<button class=""jspsych-btn""><img src=""stimuli/white_square.png"" style=""width: 200px;height: 200px;""></button>","null","brown","blue","[""brown"",""blue"",""high nameability""]","right-left","[""blue"",""brown""]","5","high nameability","48","right","iti",""
"html-button-response","229","169158","0.0-177.0","CAN_119","119","","","","","","733","","0","lightred","pink","[""lightred"",""pink"",""low nameability""]","left-right","[""lightred"",""pink"",""low nameability""]","5","low nameability","49","left","trigger",""
"html-button-response","230","169774","0.0-178.0-0.0","CAN_119","119","","","","","","608","<button class=""jspsych-btn""><img src=""stimuli/lightred.png"" style=""width: 200px;height: 200px;""></button>","0","lightred","pink","[""lightred"",""pink"",""low nameability""]","left-right","[""lightred"",""pink"",""low nameability""]","5","low nameability","49","left","response","1"
"html-audio-button-response","231","169975","0.0-178.0-1.0","CAN_119","119","","","","","","null","stimuli/bleep.m4a","null","lightred","pink","[""lightred"",""pink"",""low nameability""]","left-right","[""lightred"",""pink"",""low nameability""]","5","low nameability","49","left","audio_feedback","1"
"html-button-response","232","170493","0.0-179.0","CAN_119","119","","","","","","null","<button class=""jspsych-btn""><img src=""stimuli/white_square.png"" style=""width: 200px;height: 200px;""></button>","null","lightred","pink","[""lightred"",""pink"",""low nameability""]","left-right","[""lightred"",""pink"",""low nameability""]","5","low nameability","49","left","iti",""
"html-button-response","233","171229","0.0-180.0","CAN_119","119","","","","","","712","","0","darkgreenblue","neonyellow","[""darkgreenblue"",""neonyellow"",""low nameability""]","right-left","[""neonyellow"",""darkgreenblue""]","5","low nameability","50","right","trigger",""
"html-button-response","234","171844","0.0-181.0-0.0","CAN_119","119","","","","","","608","<button class=""jspsych-btn""><img src=""stimuli/darkgreenblue.png"" style=""width: 200px;height: 200px;""></button>","1","darkgreenblue","neonyellow","[""darkgreenblue"",""neonyellow"",""low nameability""]","right-left","[""neonyellow"",""darkgreenblue""]","5","low nameability","50","right","response","1"
"html-audio-button-response","235","172047","0.0-181.0-1.0","CAN_119","119","","","","","","null","stimuli/bleep.m4a","null","darkgreenblue","neonyellow","[""darkgreenblue"",""neonyellow"",""low nameability""]","right-left","[""neonyellow"",""darkgreenblue""]","5","low nameability","50","right","audio_feedback","1"
"html-button-response","236","172565","0.0-182.0","CAN_119","119","","","","","","null","<button class=""jspsych-btn""><img src=""stimuli/white_square.png"" style=""width: 200px;height: 200px;""></button>","null","darkgreenblue","neonyellow","[""darkgreenblue"",""neonyellow"",""low nameability""]","right-left","[""neonyellow"",""darkgreenblue""]","5","low nameability","50","right","iti",""
"pavlovia","237","172610","0.0-183.0","CAN_119","119","","","","","","","","","","","","","","","","","","",""
"pavlovia","238","172618","0.0-184.0","CAN_119","119","","","","","","","","","","","","","","","","","","",""
"html-audio-button-response","239","175402","0.0-185.0","CAN_119","119","","","","","","2837","stimuli/tada.m4a","0","","","","","","","","","","",""
"html-button-response","240","176041","0.0-186.0","CAN_119","119","","","","","","632","","0","","","","","","","","","","",""
"html-button-response","241","177263","0.0-187.0","CAN_119","119","","","","","","1212","","0","darkgreenblue","pink","[""darkgreenblue"",""pink"",""low nameability""]","right-left","[""pink"",""darkgreenblue""]","6","low nameability","51","right","trigger",""
"html-button-response","242","177943","0.0-188.0-0.0","CAN_119","119","","","","","","675","<button class=""jspsych-btn""><img src=""stimuli/darkgreenblue.png"" style=""width: 200px;height: 200px;""></button>","1","darkgreenblue","pink","[""darkgreenblue"",""pink"",""low nameability""]","right-left","[""pink"",""darkgreenblue""]","6","low nameability","51","right","response","1"
"html-audio-button-response","243","178147","0.0-188.0-1.0","CAN_119","119","","","","","","null","stimuli/bleep.m4a","null","darkgreenblue","pink","[""darkgreenblue"",""pink"",""low nameability""]","right-left","[""pink"",""darkgreenblue""]","6","low nameability","51","right","audio_feedback","1"
"html-button-response","244","178661","0.0-189.0","CAN_119","119","","","","","","null","<button class=""jspsych-btn""><img src=""stimuli/white_square.png"" style=""width: 200px;height: 200px;""></button>","null","darkgreenblue","pink","[""darkgreenblue"",""pink"",""low nameability""]","right-left","[""pink"",""darkgreenblue""]","6","low nameability","51","right","iti",""
"html-button-response","245","179435","0.0-190.0","CAN_119","119","","","","","","752","","0","red","yellow","[""red"",""yellow"",""high nameability""]","right-left","[""yellow"",""red""]","6","high nameability","52","right","trigger",""
"html-button-response","246","180120","0.0-191.0-0.0","CAN_119","119","","","","","","677","<button class=""jspsych-btn""><img src=""stimuli/red.png"" style=""width: 200px;height: 200px;""></button>","1","red","yellow","[""red"",""yellow"",""high nameability""]","right-left","[""yellow"",""red""]","6","high nameability","52","right","response","1"
"html-audio-button-response","247","180323","0.0-191.0-1.0","CAN_119","119","","","","","","null","stimuli/bleep.m4a","null","red","yellow","[""red"",""yellow"",""high nameability""]","right-left","[""yellow"",""red""]","6","high nameability","52","right","audio_feedback","1"
"html-button-response","248","180838","0.0-192.0","CAN_119","119","","","","","","null","<button class=""jspsych-btn""><img src=""stimuli/white_square.png"" style=""width: 200px;height: 200px;""></button>","null","red","yellow","[""red"",""yellow"",""high nameability""]","right-left","[""yellow"",""red""]","6","high nameability","52","right","iti",""
"html-button-response","249","181562","0.0-193.0","CAN_119","119","","","","","","706","","0","blue","orange","[""blue"",""orange"",""high nameability""]","right-left","[""orange"",""blue""]","6","high nameability","53","right","trigger",""
"html-button-response","250","182192","0.0-194.0-0.0","CAN_119","119","","","","","","622","<button class=""jspsych-btn""><img src=""stimuli/blue.png"" style=""width: 200px;height: 200px;""></button>","1","blue","orange","[""blue"",""orange"",""high nameability""]","right-left","[""orange"",""blue""]","6","high nameability","53","right","response","1"
"html-audio-button-response","251","182395","0.0-194.0-1.0","CAN_119","119","","","","","","null","stimuli/bleep.m4a","null","blue","orange","[""blue"",""orange"",""high nameability""]","right-left","[""orange"",""blue""]","6","high nameability","53","right","audio_feedback","1"
"html-button-response","252","182915","0.0-195.0","CAN_119","119","","","","","","null","<button class=""jspsych-btn""><img src=""stimuli/white_square.png"" style=""width: 200px;height: 200px;""></button>","null","blue","orange","[""blue"",""orange"",""high nameability""]","right-left","[""orange"",""blue""]","6","high nameability","53","right","iti",""
"html-button-response","253","183591","0.0-196.0","CAN_119","119","","","","","","655","","0","turquoise","darkgreenblue","[""turquoise"",""darkgreenblue"",""low nameability""]","right-left","[""darkgreenblue"",""turquoise""]","6","low nameability","54","right","trigger",""
"html-button-response","254","184260","0.0-197.0-0.0","CAN_119","119","","","","","","662","<button class=""jspsych-btn""><img src=""stimuli/turquoise.png"" style=""width: 200px;height: 200px;""></button>","0","turquoise","darkgreenblue","[""turquoise"",""darkgreenblue"",""low nameability""]","right-left","[""darkgreenblue"",""turquoise""]","6","low nameability","54","right","response","0"
"html-audio-button-response","255","184892","0.0-197.0-1.0","CAN_119","119","","","","","","null","stimuli/boing.m4a","null","turquoise","darkgreenblue","[""turquoise"",""darkgreenblue"",""low nameability""]","right-left","[""darkgreenblue"",""turquoise""]","6","low nameability","54","right","audio_feedback","0"
"html-button-response","256","185900","0.0-197.1-0.1","CAN_119","119","","","","","","978","<button class=""jspsych-btn""><img src=""stimuli/turquoise.png"" style=""width: 200px;height: 200px;""></button>","1","turquoise","darkgreenblue","[""turquoise"",""darkgreenblue"",""low nameability""]","right-left","[""darkgreenblue"",""turquoise""]","6","low nameability","54","right","response","1"
"html-audio-button-response","257","186104","0.0-197.1-1.1","CAN_119","119","","","","","","null","stimuli/bleep.m4a","null","turquoise","darkgreenblue","[""turquoise"",""darkgreenblue"",""low nameability""]","right-left","[""darkgreenblue"",""turquoise""]","6","low nameability","54","right","audio_feedback","1"
"html-button-response","258","186628","0.0-198.0","CAN_119","119","","","","","","null","<button class=""jspsych-btn""><img src=""stimuli/white_square.png"" style=""width: 200px;height: 200px;""></button>","null","turquoise","darkgreenblue","[""turquoise"",""darkgreenblue"",""low nameability""]","right-left","[""darkgreenblue"",""turquoise""]","6","low nameability","54","right","iti",""
"html-button-response","259","187744","0.0-199.0","CAN_119","119","","","","","","1098","","0","red","purple","[""red"",""purple"",""high nameability""]","right-left","[""purple"",""red""]","6","high nameability","55","right","trigger",""
"html-button-response","260","188361","0.0-200.0-0.0","CAN_119","119","","","","","","609","<button class=""jspsych-btn""><img src=""stimuli/red.png"" style=""width: 200px;height: 200px;""></button>","1","red","purple","[""red"",""purple"",""high nameability""]","right-left","[""purple"",""red""]","6","high nameability","55","right","response","1"
"html-audio-button-response","261","188564","0.0-200.0-1.0","CAN_119","119","","","","","","null","stimuli/bleep.m4a","null","red","purple","[""red"",""purple"",""high nameability""]","right-left","[""purple"",""red""]","6","high nameability","55","right","audio_feedback","1"
"html-button-response","262","189084","0.0-201.0","CAN_119","119","","","","","","null","<button class=""jspsych-btn""><img src=""stimuli/white_square.png"" style=""width: 200px;height: 200px;""></button>","null","red","purple","[""red"",""purple"",""high nameability""]","right-left","[""purple"",""red""]","6","high nameability","55","right","iti",""
"html-button-response","263","189763","0.0-202.0","CAN_119","119","","","","","","662","","0","darkgreenblue","mustard","[""darkgreenblue"",""mustard"",""low nameability""]","right-left","[""mustard"",""darkgreenblue""]","6","low nameability","56","right","trigger",""
"html-button-response","264","190405","0.0-203.0-0.0","CAN_119","119","","","","","","633","<button class=""jspsych-btn""><img src=""stimuli/darkgreenblue.png"" style=""width: 200px;height: 200px;""></button>","1","darkgreenblue","mustard","[""darkgreenblue"",""mustard"",""low nameability""]","right-left","[""mustard"",""darkgreenblue""]","6","low nameability","56","right","response","1"
"html-audio-button-response","265","190608","0.0-203.0-1.0","CAN_119","119","","","","","","null","stimuli/bleep.m4a","null","darkgreenblue","mustard","[""darkgreenblue"",""mustard"",""low nameability""]","right-left","[""mustard"",""darkgreenblue""]","6","low nameability","56","right","audio_feedback","1"
"html-button-response","266","191131","0.0-204.0","CAN_119","119","","","","","","null","<button class=""jspsych-btn""><img src=""stimuli/white_square.png"" style=""width: 200px;height: 200px;""></button>","null","darkgreenblue","mustard","[""darkgreenblue"",""mustard"",""low nameability""]","right-left","[""mustard"",""darkgreenblue""]","6","low nameability","56","right","iti",""
"html-button-response","267","191799","0.0-205.0","CAN_119","119","","","","","","648","","0","yellow","purple","[""yellow"",""purple"",""high nameability""]","right-left","[""purple"",""yellow""]","6","high nameability","57","right","trigger",""
"html-button-response","268","192466","0.0-206.0-0.0","CAN_119","119","","","","","","658","<button class=""jspsych-btn""><img src=""stimuli/yellow.png"" style=""width: 200px;height: 200px;""></button>","1","yellow","purple","[""yellow"",""purple"",""high nameability""]","right-left","[""purple"",""yellow""]","6","high nameability","57","right","response","1"
"html-audio-button-response","269","192668","0.0-206.0-1.0","CAN_119","119","","","","","","null","stimuli/bleep.m4a","null","yellow","purple","[""yellow"",""purple"",""high nameability""]","right-left","[""purple"",""yellow""]","6","high nameability","57","right","audio_feedback","1"
"html-button-response","270","193191","0.0-207.0","CAN_119","119","","","","","","null","<button class=""jspsych-btn""><img src=""stimuli/white_square.png"" style=""width: 200px;height: 200px;""></button>","null","yellow","purple","[""yellow"",""purple"",""high nameability""]","right-left","[""purple"",""yellow""]","6","high nameability","57","right","iti",""
"html-button-response","271","193864","0.0-208.0","CAN_119","119","","","","","","655","","0","yellow","orange","[""yellow"",""orange"",""high nameability""]","right-left","[""orange"",""yellow""]","6","high nameability","58","right","trigger",""
"html-button-response","272","194523","0.0-209.0-0.0","CAN_119","119","","","","","","652","<button class=""jspsych-btn""><img src=""stimuli/yellow.png"" style=""width: 200px;height: 200px;""></button>","1","yellow","orange","[""yellow"",""orange"",""high nameability""]","right-left","[""orange"",""yellow""]","6","high nameability","58","right","response","1"
"html-audio-button-response","273","194728","0.0-209.0-1.0","CAN_119","119","","","","","","null","stimuli/bleep.m4a","null","yellow","orange","[""yellow"",""orange"",""high nameability""]","right-left","[""orange"",""yellow""]","6","high nameability","58","right","audio_feedback","1"
"html-button-response","274","195248","0.0-210.0","CAN_119","119","","","","","","null","<button class=""jspsych-btn""><img src=""stimuli/white_square.png"" style=""width: 200px;height: 200px;""></button>","null","yellow","orange","[""yellow"",""orange"",""high nameability""]","right-left","[""orange"",""yellow""]","6","high nameability","58","right","iti",""
"html-button-response","275","195934","0.0-211.0","CAN_119","119","","","","","","671","","0","brown","purple","[""brown"",""purple"",""high nameability""]","left-right","[""brown"",""purple"",""high nameability""]","6","high nameability","59","left","trigger",""
"html-button-response","276","196634","0.0-212.0-0.0","CAN_119","119","","","","","","691","<button class=""jspsych-btn""><img src=""stimuli/brown.png"" style=""width: 200px;height: 200px;""></button>","0","brown","purple","[""brown"",""purple"",""high nameability""]","left-right","[""brown"",""purple"",""high nameability""]","6","high nameability","59","left","response","1"
"html-audio-button-response","277","196836","0.0-212.0-1.0","CAN_119","119","","","","","","null","stimuli/bleep.m4a","null","brown","purple","[""brown"",""purple"",""high nameability""]","left-right","[""brown"",""purple"",""high nameability""]","6","high nameability","59","left","audio_feedback","1"
"html-button-response","278","197356","0.0-213.0","CAN_119","119","","","","","","null","<button class=""jspsych-btn""><img src=""stimuli/white_square.png"" style=""width: 200px;height: 200px;""></button>","null","brown","purple","[""brown"",""purple"",""high nameability""]","left-right","[""brown"",""purple"",""high nameability""]","6","high nameability","59","left","iti",""
"html-button-response","279","197925","0.0-214.0","CAN_119","119","","","","","","545","","0","neonyellow","pink","[""neonyellow"",""pink"",""low nameability""]","left-right","[""neonyellow"",""pink"",""low nameability""]","6","low nameability","60","left","trigger",""
"html-button-response","280","198586","0.0-215.0-0.0","CAN_119","119","","","","","","653","<button class=""jspsych-btn""><img src=""stimuli/neonyellow.png"" style=""width: 200px;height: 200px;""></button>","0","neonyellow","pink","[""neonyellow"",""pink"",""low nameability""]","left-right","[""neonyellow"",""pink"",""low nameability""]","6","low nameability","60","left","response","1"
"html-audio-button-response","281","198792","0.0-215.0-1.0","CAN_119","119","","","","","","null","stimuli/bleep.m4a","null","neonyellow","pink","[""neonyellow"",""pink"",""low nameability""]","left-right","[""neonyellow"",""pink"",""low nameability""]","6","low nameability","60","left","audio_feedback","1"
"html-button-response","282","199309","0.0-216.0","CAN_119","119","","","","","","null","<button class=""jspsych-btn""><img src=""stimuli/white_square.png"" style=""width: 200px;height: 200px;""></button>","null","neonyellow","pink","[""neonyellow"",""pink"",""low nameability""]","left-right","[""neonyellow"",""pink"",""low nameability""]","6","low nameability","60","left","iti",""
