"trial_type","trial_index","time_elapsed","internal_node_id","subject_id","seed","success","timeout","failed_images","failed_audio","failed_video","rt","stimulus","response","target","foil","choices","combination_order","choices_in_order","round","condition","trial_counter","target_location","trial_kind","correct"
"pavlovia","0","23","0.0-0.0","CAN_129","129","","","","","","","","","","","","","","","","","","",""
"preload","1","1144","0.0-1.0","CAN_129","129","true","false","[]","[]","[]","","","","","","","","","","","","","",""
"fullscreen","2","605088","0.0-2.0","CAN_129","129","true","","","","","","","","","","","","","","","","","",""
"html-button-response","3","639301","0.0-3.0","CAN_129","129","","","","","","34182","","0","","","","","","","","","","",""
"html-button-response","4","641666","0.0-4.0","CAN_129","129","","","","","","2353","","0","star","square","[""square"",""star""]","left-right","[""square"",""star""]","1","practice","1","right","trigger",""
"html-button-response","5","646509","0.0-5.0-0.0","CAN_129","129","","","","","","4824","<button class=""jspsych-btn""><img src=""stimuli/star.png"" style=""width: 200px;height: 200px;""></button>","1","star","square","[""square"",""star""]","left-right","[""square"",""star""]","1","practice","1","right","response","1"
"html-audio-button-response","6","646722","0.0-5.0-1.0","CAN_129","129","","","","","","null","stimuli/bleep.m4a","null","star","square","[""square"",""star""]","left-right","[""square"",""star""]","1","practice","1","right","audio_feedback","1"
"html-button-response","7","647255","0.0-6.0","CAN_129","129","","","","","","null","<button class=""jspsych-btn""><img src=""stimuli/white_square.png"" style=""width: 200px;height: 200px;""></button>","null","star","square","[""square"",""star""]","left-right","[""square"",""star""]","1","practice","1","right","iti",""
"html-button-response","8","653606","0.0-7.0","CAN_129","129","","","","","","6326","","0","triangle","pentagram","[""triangle"",""pentagram""]","left-right","[""triangle"",""pentagram""]","1","practice","1","left","trigger",""
"html-button-response","9","654941","0.0-8.0-0.0","CAN_129","129","","","","","","1328","<button class=""jspsych-btn""><img src=""stimuli/triangle.png"" style=""width: 200px;height: 200px;""></button>","0","triangle","pentagram","[""triangle"",""pentagram""]","left-right","[""triangle"",""pentagram""]","1","practice","1","left","response","1"
"html-audio-button-response","10","655156","0.0-8.0-1.0","CAN_129","129","","","","","","null","stimuli/bleep.m4a","null","triangle","pentagram","[""triangle"",""pentagram""]","left-right","[""triangle"",""pentagram""]","1","practice","1","left","audio_feedback","1"
"html-button-response","11","655675","0.0-9.0","CAN_129","129","","","","","","null","<button class=""jspsych-btn""><img src=""stimuli/white_square.png"" style=""width: 200px;height: 200px;""></button>","null","triangle","pentagram","[""triangle"",""pentagram""]","left-right","[""triangle"",""pentagram""]","1","practice","1","left","iti",""
"html-button-response","12","657106","0.0-10.0","CAN_129","129","","","","","","1409","","0","diamond","rectangle","[""rectangle"",""diamond""]","left-right","[""rectangle"",""diamond""]","1","practice","1","right","trigger",""
"html-button-response","13","658268","0.0-11.0-0.0","CAN_129","129","","","","","","1149","<button class=""jspsych-btn""><img src=""stimuli/diamond.png"" style=""width: 200px;height: 200px;""></button>","1","diamond","rectangle","[""rectangle"",""diamond""]","left-right","[""rectangle"",""diamond""]","1","practice","1","right","response","1"
"html-audio-button-response","14","658476","0.0-11.0-1.0","CAN_129","129","","","","","","null","stimuli/bleep.m4a","null","diamond","rectangle","[""rectangle"",""diamond""]","left-right","[""rectangle"",""diamond""]","1","practice","1","right","audio_feedback","1"
"html-button-response","15","659000","0.0-12.0","CAN_129","129","","","","","","null","<button class=""jspsych-btn""><img src=""stimuli/white_square.png"" style=""width: 200px;height: 200px;""></button>","null","diamond","rectangle","[""rectangle"",""diamond""]","left-right","[""rectangle"",""diamond""]","1","practice","1","right","iti",""
"html-button-response","16","660041","0.0-13.0","CAN_129","129","","","","","","1013","","0","pentagram","star","[""pentagram"",""star""]","left-right","[""pentagram"",""star""]","1","practice","1","left","trigger",""
"html-button-response","17","661097","0.0-14.0-0.0","CAN_129","129","","","","","","1046","<button class=""jspsych-btn""><img src=""stimuli/pentagram.png"" style=""width: 200px;height: 200px;""></button>","0","pentagram","star","[""pentagram"",""star""]","left-right","[""pentagram"",""star""]","1","practice","1","left","response","1"
"html-audio-button-response","18","661301","0.0-14.0-1.0","CAN_129","129","","","","","","null","stimuli/bleep.m4a","null","pentagram","star","[""pentagram"",""star""]","left-right","[""pentagram"",""star""]","1","practice","1","left","audio_feedback","1"
"html-button-response","19","661817","0.0-15.0","CAN_129","129","","","","","","null","<button class=""jspsych-btn""><img src=""stimuli/white_square.png"" style=""width: 200px;height: 200px;""></button>","null","pentagram","star","[""pentagram"",""star""]","left-right","[""pentagram"",""star""]","1","practice","1","left","iti",""
"html-button-response","20","668967","0.0-16.0","CAN_129","129","","","","","","7136","","0","","","","","","","","","","",""
"html-button-response","21","670447","0.0-17.0","CAN_129","129","","","","","","1470","","0","red","yellow","[""red"",""yellow"",""high nameability""]","left-right","[""red"",""yellow"",""high nameability""]","1","high nameability","1","left","trigger",""
"html-button-response","22","671408","0.0-18.0-0.0","CAN_129","129","","","","","","949","<button class=""jspsych-btn""><img src=""stimuli/red.png"" style=""width: 200px;height: 200px;""></button>","0","red","yellow","[""red"",""yellow"",""high nameability""]","left-right","[""red"",""yellow"",""high nameability""]","1","high nameability","1","left","response","1"
"html-audio-button-response","23","671616","0.0-18.0-1.0","CAN_129","129","","","","","","null","stimuli/bleep.m4a","null","red","yellow","[""red"",""yellow"",""high nameability""]","left-right","[""red"",""yellow"",""high nameability""]","1","high nameability","1","left","audio_feedback","1"
"html-button-response","24","672139","0.0-19.0","CAN_129","129","","","","","","null","<button class=""jspsych-btn""><img src=""stimuli/white_square.png"" style=""width: 200px;height: 200px;""></button>","null","red","yellow","[""red"",""yellow"",""high nameability""]","left-right","[""red"",""yellow"",""high nameability""]","1","high nameability","1","left","iti",""
"html-button-response","25","673027","0.0-20.0","CAN_129","129","","","","","","873","","0","pink","lightred","[""pink"",""lightred"",""low nameability""]","right-left","[""lightred"",""pink""]","1","low nameability","2","right","trigger",""
"html-button-response","26","673991","0.0-21.0-0.0","CAN_129","129","","","","","","958","<button class=""jspsych-btn""><img src=""stimuli/pink.png"" style=""width: 200px;height: 200px;""></button>","1","pink","lightred","[""pink"",""lightred"",""low nameability""]","right-left","[""lightred"",""pink""]","1","low nameability","2","right","response","1"
"html-audio-button-response","27","674196","0.0-21.0-1.0","CAN_129","129","","","","","","null","stimuli/bleep.m4a","null","pink","lightred","[""pink"",""lightred"",""low nameability""]","right-left","[""lightred"",""pink""]","1","low nameability","2","right","audio_feedback","1"
"html-button-response","28","674720","0.0-22.0","CAN_129","129","","","","","","null","<button class=""jspsych-btn""><img src=""stimuli/white_square.png"" style=""width: 200px;height: 200px;""></button>","null","pink","lightred","[""pink"",""lightred"",""low nameability""]","right-left","[""lightred"",""pink""]","1","low nameability","2","right","iti",""
"html-button-response","29","675634","0.0-23.0","CAN_129","129","","","","","","893","","0","lightred","darkgreenblue","[""lightred"",""darkgreenblue"",""low nameability""]","right-left","[""darkgreenblue"",""lightred""]","1","low nameability","3","right","trigger",""
"html-button-response","30","676566","0.0-24.0-0.0","CAN_129","129","","","","","","921","<button class=""jspsych-btn""><img src=""stimuli/lightred.png"" style=""width: 200px;height: 200px;""></button>","1","lightred","darkgreenblue","[""lightred"",""darkgreenblue"",""low nameability""]","right-left","[""darkgreenblue"",""lightred""]","1","low nameability","3","right","response","1"
"html-audio-button-response","31","676784","0.0-24.0-1.0","CAN_129","129","","","","","","null","stimuli/bleep.m4a","null","lightred","darkgreenblue","[""lightred"",""darkgreenblue"",""low nameability""]","right-left","[""darkgreenblue"",""lightred""]","1","low nameability","3","right","audio_feedback","1"
"html-button-response","32","677313","0.0-25.0","CAN_129","129","","","","","","null","<button class=""jspsych-btn""><img src=""stimuli/white_square.png"" style=""width: 200px;height: 200px;""></button>","null","lightred","darkgreenblue","[""lightred"",""darkgreenblue"",""low nameability""]","right-left","[""darkgreenblue"",""lightred""]","1","low nameability","3","right","iti",""
"html-button-response","33","678160","0.0-26.0","CAN_129","129","","","","","","821","","0","pink","neonyellow","[""pink"",""neonyellow"",""low nameability""]","left-right","[""pink"",""neonyellow"",""low nameability""]","1","low nameability","4","left","trigger",""
"html-button-response","34","679138","0.0-27.0-0.0","CAN_129","129","","","","","","968","<button class=""jspsych-btn""><img src=""stimuli/pink.png"" style=""width: 200px;height: 200px;""></button>","0","pink","neonyellow","[""pink"",""neonyellow"",""low nameability""]","left-right","[""pink"",""neonyellow"",""low nameability""]","1","low nameability","4","left","response","1"
"html-audio-button-response","35","679356","0.0-27.0-1.0","CAN_129","129","","","","","","null","stimuli/bleep.m4a","null","pink","neonyellow","[""pink"",""neonyellow"",""low nameability""]","left-right","[""pink"",""neonyellow"",""low nameability""]","1","low nameability","4","left","audio_feedback","1"
"html-button-response","36","679879","0.0-28.0","CAN_129","129","","","","","","null","<button class=""jspsych-btn""><img src=""stimuli/white_square.png"" style=""width: 200px;height: 200px;""></button>","null","pink","neonyellow","[""pink"",""neonyellow"",""low nameability""]","left-right","[""pink"",""neonyellow"",""low nameability""]","1","low nameability","4","left","iti",""
"html-button-response","37","680683","0.0-29.0","CAN_129","129","","","","","","776","","0","brown","purple","[""brown"",""purple"",""high nameability""]","left-right","[""brown"",""purple"",""high nameability""]","1","high nameability","5","left","trigger",""
"html-button-response","38","681655","0.0-30.0-0.0","CAN_129","129","","","","","","962","<button class=""jspsych-btn""><img src=""stimuli/brown.png"" style=""width: 200px;height: 200px;""></button>","0","brown","purple","[""brown"",""purple"",""high nameability""]","left-right","[""brown"",""purple"",""high nameability""]","1","high nameability","5","left","response","1"
"html-audio-button-response","39","681857","0.0-30.0-1.0","CAN_129","129","","","","","","null","stimuli/bleep.m4a","null","brown","purple","[""brown"",""purple"",""high nameability""]","left-right","[""brown"",""purple"",""high nameability""]","1","high nameability","5","left","audio_feedback","1"
"html-button-response","40","682388","0.0-31.0","CAN_129","129","","","","","","null","<button class=""jspsych-btn""><img src=""stimuli/white_square.png"" style=""width: 200px;height: 200px;""></button>","null","brown","purple","[""brown"",""purple"",""high nameability""]","left-right","[""brown"",""purple"",""high nameability""]","1","high nameability","5","left","iti",""
"html-button-response","41","683175","0.0-32.0","CAN_129","129","","","","","","760","","0","pink","darkgreenblue","[""pink"",""darkgreenblue"",""low nameability""]","left-right","[""pink"",""darkgreenblue"",""low nameability""]","1","low nameability","6","left","trigger",""
"html-button-response","42","684042","0.0-33.0-0.0","CAN_129","129","","","","","","859","<button class=""jspsych-btn""><img src=""stimuli/pink.png"" style=""width: 200px;height: 200px;""></button>","0","pink","darkgreenblue","[""pink"",""darkgreenblue"",""low nameability""]","left-right","[""pink"",""darkgreenblue"",""low nameability""]","1","low nameability","6","left","response","1"
"html-audio-button-response","43","684247","0.0-33.0-1.0","CAN_129","129","","","","","","null","stimuli/bleep.m4a","null","pink","darkgreenblue","[""pink"",""darkgreenblue"",""low nameability""]","left-right","[""pink"",""darkgreenblue"",""low nameability""]","1","low nameability","6","left","audio_feedback","1"
"html-button-response","44","684771","0.0-34.0","CAN_129","129","","","","","","null","<button class=""jspsych-btn""><img src=""stimuli/white_square.png"" style=""width: 200px;height: 200px;""></button>","null","pink","darkgreenblue","[""pink"",""darkgreenblue"",""low nameability""]","left-right","[""pink"",""darkgreenblue"",""low nameability""]","1","low nameability","6","left","iti",""
"html-button-response","45","685596","0.0-35.0","CAN_129","129","","","","","","809","","0","brown","yellow","[""brown"",""yellow"",""high nameability""]","right-left","[""yellow"",""brown""]","1","high nameability","7","right","trigger",""
"html-button-response","46","686462","0.0-36.0-0.0","CAN_129","129","","","","","","856","<button class=""jspsych-btn""><img src=""stimuli/brown.png"" style=""width: 200px;height: 200px;""></button>","1","brown","yellow","[""brown"",""yellow"",""high nameability""]","right-left","[""yellow"",""brown""]","1","high nameability","7","right","response","1"
"html-audio-button-response","47","686668","0.0-36.0-1.0","CAN_129","129","","","","","","null","stimuli/bleep.m4a","null","brown","yellow","[""brown"",""yellow"",""high nameability""]","right-left","[""yellow"",""brown""]","1","high nameability","7","right","audio_feedback","1"
"html-button-response","48","687190","0.0-37.0","CAN_129","129","","","","","","null","<button class=""jspsych-btn""><img src=""stimuli/white_square.png"" style=""width: 200px;height: 200px;""></button>","null","brown","yellow","[""brown"",""yellow"",""high nameability""]","right-left","[""yellow"",""brown""]","1","high nameability","7","right","iti",""
"html-button-response","49","687932","0.0-38.0","CAN_129","129","","","","","","734","","0","orange","purple","[""orange"",""purple"",""high nameability""]","right-left","[""purple"",""orange""]","1","high nameability","8","right","trigger",""
"html-button-response","50","688732","0.0-39.0-0.0","CAN_129","129","","","","","","792","<button class=""jspsych-btn""><img src=""stimuli/orange.png"" style=""width: 200px;height: 200px;""></button>","1","orange","purple","[""orange"",""purple"",""high nameability""]","right-left","[""purple"",""orange""]","1","high nameability","8","right","response","1"
"html-audio-button-response","51","688935","0.0-39.0-1.0","CAN_129","129","","","","","","null","stimuli/bleep.m4a","null","orange","purple","[""orange"",""purple"",""high nameability""]","right-left","[""purple"",""orange""]","1","high nameability","8","right","audio_feedback","1"
"html-button-response","52","689455","0.0-40.0","CAN_129","129","","","","","","null","<button class=""jspsych-btn""><img src=""stimuli/white_square.png"" style=""width: 200px;height: 200px;""></button>","null","orange","purple","[""orange"",""purple"",""high nameability""]","right-left","[""purple"",""orange""]","1","high nameability","8","right","iti",""
"html-button-response","53","690299","0.0-41.0","CAN_129","129","","","","","","820","","0","pink","turquoise","[""pink"",""turquoise"",""low nameability""]","right-left","[""turquoise"",""pink""]","1","low nameability","9","right","trigger",""
"html-button-response","54","691119","0.0-42.0-0.0","CAN_129","129","","","","","","812","<button class=""jspsych-btn""><img src=""stimuli/pink.png"" style=""width: 200px;height: 200px;""></button>","1","pink","turquoise","[""pink"",""turquoise"",""low nameability""]","right-left","[""turquoise"",""pink""]","1","low nameability","9","right","response","1"
"html-audio-button-response","55","691323","0.0-42.0-1.0","CAN_129","129","","","","","","null","stimuli/bleep.m4a","null","pink","turquoise","[""pink"",""turquoise"",""low nameability""]","right-left","[""turquoise"",""pink""]","1","low nameability","9","right","audio_feedback","1"
"html-button-response","56","691839","0.0-43.0","CAN_129","129","","","","","","null","<button class=""jspsych-btn""><img src=""stimuli/white_square.png"" style=""width: 200px;height: 200px;""></button>","null","pink","turquoise","[""pink"",""turquoise"",""low nameability""]","right-left","[""turquoise"",""pink""]","1","low nameability","9","right","iti",""
"html-button-response","57","692680","0.0-44.0","CAN_129","129","","","","","","823","","0","yellow","purple","[""yellow"",""purple"",""high nameability""]","left-right","[""yellow"",""purple"",""high nameability""]","1","high nameability","10","left","trigger",""
"html-button-response","58","693524","0.0-45.0-0.0","CAN_129","129","","","","","","834","<button class=""jspsych-btn""><img src=""stimuli/yellow.png"" style=""width: 200px;height: 200px;""></button>","0","yellow","purple","[""yellow"",""purple"",""high nameability""]","left-right","[""yellow"",""purple"",""high nameability""]","1","high nameability","10","left","response","1"
"html-audio-button-response","59","693732","0.0-45.0-1.0","CAN_129","129","","","","","","null","stimuli/bleep.m4a","null","yellow","purple","[""yellow"",""purple"",""high nameability""]","left-right","[""yellow"",""purple"",""high nameability""]","1","high nameability","10","left","audio_feedback","1"
"html-button-response","60","694252","0.0-46.0","CAN_129","129","","","","","","null","<button class=""jspsych-btn""><img src=""stimuli/white_square.png"" style=""width: 200px;height: 200px;""></button>","null","yellow","purple","[""yellow"",""purple"",""high nameability""]","left-right","[""yellow"",""purple"",""high nameability""]","1","high nameability","10","left","iti",""
"pavlovia","61","694363","0.0-47.0","CAN_129","129","","","","","","","","","","","","","","","","","","",""
"pavlovia","62","694379","0.0-48.0","CAN_129","129","","","","","","","","","","","","","","","","","","",""
"html-audio-button-response","63","696178","0.0-49.0","CAN_129","129","","","","","","1923","stimuli/tada.m4a","0","","","","","","","","","","",""
"html-button-response","64","697208","0.0-50.0","CAN_129","129","","","","","","1024","","0","","","","","","","","","","",""
"html-button-response","65","698031","0.0-51.0","CAN_129","129","","","","","","815","","0","purple","orange","[""purple"",""orange"",""high nameability""]","right-left","[""orange"",""purple""]","2","high nameability","11","right","trigger",""
"html-button-response","66","698878","0.0-52.0-0.0","CAN_129","129","","","","","","840","<button class=""jspsych-btn""><img src=""stimuli/purple.png"" style=""width: 200px;height: 200px;""></button>","1","purple","orange","[""purple"",""orange"",""high nameability""]","right-left","[""orange"",""purple""]","2","high nameability","11","right","response","1"
"html-audio-button-response","67","699082","0.0-52.0-1.0","CAN_129","129","","","","","","null","stimuli/bleep.m4a","null","purple","orange","[""purple"",""orange"",""high nameability""]","right-left","[""orange"",""purple""]","2","high nameability","11","right","audio_feedback","1"
"html-button-response","68","699599","0.0-53.0","CAN_129","129","","","","","","null","<button class=""jspsych-btn""><img src=""stimuli/white_square.png"" style=""width: 200px;height: 200px;""></button>","null","purple","orange","[""purple"",""orange"",""high nameability""]","right-left","[""orange"",""purple""]","2","high nameability","11","right","iti",""
"html-button-response","69","700379","0.0-54.0","CAN_129","129","","","","","","762","","0","mustard","neonyellow","[""mustard"",""neonyellow"",""low nameability""]","left-right","[""mustard"",""neonyellow"",""low nameability""]","2","low nameability","12","left","trigger",""
"html-button-response","70","701266","0.0-55.0-0.0","CAN_129","129","","","","","","879","<button class=""jspsych-btn""><img src=""stimuli/mustard.png"" style=""width: 200px;height: 200px;""></button>","0","mustard","neonyellow","[""mustard"",""neonyellow"",""low nameability""]","left-right","[""mustard"",""neonyellow"",""low nameability""]","2","low nameability","12","left","response","1"
"html-audio-button-response","71","701472","0.0-55.0-1.0","CAN_129","129","","","","","","null","stimuli/bleep.m4a","null","mustard","neonyellow","[""mustard"",""neonyellow"",""low nameability""]","left-right","[""mustard"",""neonyellow"",""low nameability""]","2","low nameability","12","left","audio_feedback","1"
"html-button-response","72","701994","0.0-56.0","CAN_129","129","","","","","","null","<button class=""jspsych-btn""><img src=""stimuli/white_square.png"" style=""width: 200px;height: 200px;""></button>","null","mustard","neonyellow","[""mustard"",""neonyellow"",""low nameability""]","left-right","[""mustard"",""neonyellow"",""low nameability""]","2","low nameability","12","left","iti",""
"html-button-response","73","702696","0.0-57.0","CAN_129","129","","","","","","697","","0","yellow","red","[""yellow"",""red"",""high nameability""]","left-right","[""yellow"",""red"",""high nameability""]","2","high nameability","13","left","trigger",""
"html-button-response","74","703509","0.0-58.0-0.0","CAN_129","129","","","","","","806","<button class=""jspsych-btn""><img src=""stimuli/yellow.png"" style=""width: 200px;height: 200px;""></button>","0","yellow","red","[""yellow"",""red"",""high nameability""]","left-right","[""yellow"",""red"",""high nameability""]","2","high nameability","13","left","response","1"
"html-audio-button-response","75","703716","0.0-58.0-1.0","CAN_129","129","","","","","","null","stimuli/bleep.m4a","null","yellow","red","[""yellow"",""red"",""high nameability""]","left-right","[""yellow"",""red"",""high nameability""]","2","high nameability","13","left","audio_feedback","1"
"html-button-response","76","704240","0.0-59.0","CAN_129","129","","","","","","null","<button class=""jspsych-btn""><img src=""stimuli/white_square.png"" style=""width: 200px;height: 200px;""></button>","null","yellow","red","[""yellow"",""red"",""high nameability""]","left-right","[""yellow"",""red"",""high nameability""]","2","high nameability","13","left","iti",""
"html-button-response","77","704911","0.0-60.0","CAN_129","129","","","","","","650","","0","mustard","pink","[""mustard"",""pink"",""low nameability""]","right-left","[""pink"",""mustard""]","2","low nameability","14","right","trigger",""
"html-button-response","78","705780","0.0-61.0-0.0","CAN_129","129","","","","","","862","<button class=""jspsych-btn""><img src=""stimuli/mustard.png"" style=""width: 200px;height: 200px;""></button>","1","mustard","pink","[""mustard"",""pink"",""low nameability""]","right-left","[""pink"",""mustard""]","2","low nameability","14","right","response","1"
"html-audio-button-response","79","705983","0.0-61.0-1.0","CAN_129","129","","","","","","null","stimuli/bleep.m4a","null","mustard","pink","[""mustard"",""pink"",""low nameability""]","right-left","[""pink"",""mustard""]","2","low nameability","14","right","audio_feedback","1"
"html-button-response","80","706504","0.0-62.0","CAN_129","129","","","","","","null","<button class=""jspsych-btn""><img src=""stimuli/white_square.png"" style=""width: 200px;height: 200px;""></button>","null","mustard","pink","[""mustard"",""pink"",""low nameability""]","right-left","[""pink"",""mustard""]","2","low nameability","14","right","iti",""
"html-button-response","81","707286","0.0-63.0","CAN_129","129","","","","","","760","","0","neonyellow","turquoise","[""neonyellow"",""turquoise"",""low nameability""]","left-right","[""neonyellow"",""turquoise"",""low nameability""]","2","low nameability","15","left","trigger",""
"html-button-response","82","708121","0.0-64.0-0.0","CAN_129","129","","","","","","829","<button class=""jspsych-btn""><img src=""stimuli/neonyellow.png"" style=""width: 200px;height: 200px;""></button>","0","neonyellow","turquoise","[""neonyellow"",""turquoise"",""low nameability""]","left-right","[""neonyellow"",""turquoise"",""low nameability""]","2","low nameability","15","left","response","1"
"html-audio-button-response","83","708322","0.0-64.0-1.0","CAN_129","129","","","","","","null","stimuli/bleep.m4a","null","neonyellow","turquoise","[""neonyellow"",""turquoise"",""low nameability""]","left-right","[""neonyellow"",""turquoise"",""low nameability""]","2","low nameability","15","left","audio_feedback","1"
"html-button-response","84","708840","0.0-65.0","CAN_129","129","","","","","","null","<button class=""jspsych-btn""><img src=""stimuli/white_square.png"" style=""width: 200px;height: 200px;""></button>","null","neonyellow","turquoise","[""neonyellow"",""turquoise"",""low nameability""]","left-right","[""neonyellow"",""turquoise"",""low nameability""]","2","low nameability","15","left","iti",""
"html-button-response","85","709581","0.0-66.0","CAN_129","129","","","","","","721","","0","pink","mustard","[""pink"",""mustard"",""low nameability""]","left-right","[""pink"",""mustard"",""low nameability""]","2","low nameability","16","left","trigger",""
"html-button-response","86","710418","0.0-67.0-0.0","CAN_129","129","","","","","","829","<button class=""jspsych-btn""><img src=""stimuli/pink.png"" style=""width: 200px;height: 200px;""></button>","0","pink","mustard","[""pink"",""mustard"",""low nameability""]","left-right","[""pink"",""mustard"",""low nameability""]","2","low nameability","16","left","response","1"
"html-audio-button-response","87","710622","0.0-67.0-1.0","CAN_129","129","","","","","","null","stimuli/bleep.m4a","null","pink","mustard","[""pink"",""mustard"",""low nameability""]","left-right","[""pink"",""mustard"",""low nameability""]","2","low nameability","16","left","audio_feedback","1"
"html-button-response","88","711139","0.0-68.0","CAN_129","129","","","","","","null","<button class=""jspsych-btn""><img src=""stimuli/white_square.png"" style=""width: 200px;height: 200px;""></button>","null","pink","mustard","[""pink"",""mustard"",""low nameability""]","left-right","[""pink"",""mustard"",""low nameability""]","2","low nameability","16","left","iti",""
"html-button-response","89","711971","0.0-69.0","CAN_129","129","","","","","","817","","0","darkgreenblue","pink","[""darkgreenblue"",""pink"",""low nameability""]","left-right","[""darkgreenblue"",""pink"",""low nameability""]","2","low nameability","17","left","trigger",""
"html-button-response","90","712793","0.0-70.0-0.0","CAN_129","129","","","","","","815","<button class=""jspsych-btn""><img src=""stimuli/darkgreenblue.png"" style=""width: 200px;height: 200px;""></button>","0","darkgreenblue","pink","[""darkgreenblue"",""pink"",""low nameability""]","left-right","[""darkgreenblue"",""pink"",""low nameability""]","2","low nameability","17","left","response","1"
"html-audio-button-response","91","712996","0.0-70.0-1.0","CAN_129","129","","","","","","null","stimuli/bleep.m4a","null","darkgreenblue","pink","[""darkgreenblue"",""pink"",""low nameability""]","left-right","[""darkgreenblue"",""pink"",""low nameability""]","2","low nameability","17","left","audio_feedback","1"
"html-button-response","92","713518","0.0-71.0","CAN_129","129","","","","","","null","<button class=""jspsych-btn""><img src=""stimuli/white_square.png"" style=""width: 200px;height: 200px;""></button>","null","darkgreenblue","pink","[""darkgreenblue"",""pink"",""low nameability""]","left-right","[""darkgreenblue"",""pink"",""low nameability""]","2","low nameability","17","left","iti",""
"html-button-response","93","714328","0.0-72.0","CAN_129","129","","","","","","781","","0","darkgreenblue","neonyellow","[""darkgreenblue"",""neonyellow"",""low nameability""]","right-left","[""neonyellow"",""darkgreenblue""]","2","low nameability","18","right","trigger",""
"html-button-response","94","715208","0.0-73.0-0.0","CAN_129","129","","","","","","872","<button class=""jspsych-btn""><img src=""stimuli/darkgreenblue.png"" style=""width: 200px;height: 200px;""></button>","1","darkgreenblue","neonyellow","[""darkgreenblue"",""neonyellow"",""low nameability""]","right-left","[""neonyellow"",""darkgreenblue""]","2","low nameability","18","right","response","1"
"html-audio-button-response","95","715411","0.0-73.0-1.0","CAN_129","129","","","","","","null","stimuli/bleep.m4a","null","darkgreenblue","neonyellow","[""darkgreenblue"",""neonyellow"",""low nameability""]","right-left","[""neonyellow"",""darkgreenblue""]","2","low nameability","18","right","audio_feedback","1"
"html-button-response","96","715930","0.0-74.0","CAN_129","129","","","","","","null","<button class=""jspsych-btn""><img src=""stimuli/white_square.png"" style=""width: 200px;height: 200px;""></button>","null","darkgreenblue","neonyellow","[""darkgreenblue"",""neonyellow"",""low nameability""]","right-left","[""neonyellow"",""darkgreenblue""]","2","low nameability","18","right","iti",""
"html-button-response","97","716780","0.0-75.0","CAN_129","129","","","","","","820","","0","darkgreenblue","lightred","[""darkgreenblue"",""lightred"",""low nameability""]","left-right","[""darkgreenblue"",""lightred"",""low nameability""]","2","low nameability","19","left","trigger",""
"html-button-response","98","717642","0.0-76.0-0.0","CAN_129","129","","","","","","850","<button class=""jspsych-btn""><img src=""stimuli/darkgreenblue.png"" style=""width: 200px;height: 200px;""></button>","0","darkgreenblue","lightred","[""darkgreenblue"",""lightred"",""low nameability""]","left-right","[""darkgreenblue"",""lightred"",""low nameability""]","2","low nameability","19","left","response","1"
"html-audio-button-response","99","717854","0.0-76.0-1.0","CAN_129","129","","","","","","null","stimuli/bleep.m4a","null","darkgreenblue","lightred","[""darkgreenblue"",""lightred"",""low nameability""]","left-right","[""darkgreenblue"",""lightred"",""low nameability""]","2","low nameability","19","left","audio_feedback","1"
"html-button-response","100","718391","0.0-77.0","CAN_129","129","","","","","","null","<button class=""jspsych-btn""><img src=""stimuli/white_square.png"" style=""width: 200px;height: 200px;""></button>","null","darkgreenblue","lightred","[""darkgreenblue"",""lightred"",""low nameability""]","left-right","[""darkgreenblue"",""lightred"",""low nameability""]","2","low nameability","19","left","iti",""
"html-button-response","101","719224","0.0-78.0","CAN_129","129","","","","","","805","","0","red","purple","[""red"",""purple"",""high nameability""]","left-right","[""red"",""purple"",""high nameability""]","2","high nameability","20","left","trigger",""
"html-button-response","102","719984","0.0-79.0-0.0","CAN_129","129","","","","","","750","<button class=""jspsych-btn""><img src=""stimuli/red.png"" style=""width: 200px;height: 200px;""></button>","0","red","purple","[""red"",""purple"",""high nameability""]","left-right","[""red"",""purple"",""high nameability""]","2","high nameability","20","left","response","1"
"html-audio-button-response","103","720195","0.0-79.0-1.0","CAN_129","129","","","","","","null","stimuli/bleep.m4a","null","red","purple","[""red"",""purple"",""high nameability""]","left-right","[""red"",""purple"",""high nameability""]","2","high nameability","20","left","audio_feedback","1"
"html-button-response","104","720714","0.0-80.0","CAN_129","129","","","","","","null","<button class=""jspsych-btn""><img src=""stimuli/white_square.png"" style=""width: 200px;height: 200px;""></button>","null","red","purple","[""red"",""purple"",""high nameability""]","left-right","[""red"",""purple"",""high nameability""]","2","high nameability","20","left","iti",""
"pavlovia","105","720772","0.0-81.0","CAN_129","129","","","","","","","","","","","","","","","","","","",""
"pavlovia","106","720784","0.0-82.0","CAN_129","129","","","","","","","","","","","","","","","","","","",""
"html-audio-button-response","107","722512","0.0-83.0","CAN_129","129","","","","","","1789","stimuli/tada.m4a","0","","","","","","","","","","",""
"html-button-response","108","723473","0.0-84.0","CAN_129","129","","","","","","952","","0","","","","","","","","","","",""
"html-button-response","109","724315","0.0-85.0","CAN_129","129","","","","","","823","","0","orange","blue","[""orange"",""blue"",""high nameability""]","right-left","[""blue"",""orange""]","3","high nameability","21","right","trigger",""
"html-button-response","110","725174","0.0-86.0-0.0","CAN_129","129","","","","","","844","<button class=""jspsych-btn""><img src=""stimuli/orange.png"" style=""width: 200px;height: 200px;""></button>","1","orange","blue","[""orange"",""blue"",""high nameability""]","right-left","[""blue"",""orange""]","3","high nameability","21","right","response","1"
"html-audio-button-response","111","725386","0.0-86.0-1.0","CAN_129","129","","","","","","null","stimuli/bleep.m4a","null","orange","blue","[""orange"",""blue"",""high nameability""]","right-left","[""blue"",""orange""]","3","high nameability","21","right","audio_feedback","1"
"html-button-response","112","725917","0.0-87.0","CAN_129","129","","","","","","null","<button class=""jspsych-btn""><img src=""stimuli/white_square.png"" style=""width: 200px;height: 200px;""></button>","null","orange","blue","[""orange"",""blue"",""high nameability""]","right-left","[""blue"",""orange""]","3","high nameability","21","right","iti",""
"html-button-response","113","726755","0.0-88.0","CAN_129","129","","","","","","823","","0","lightred","turquoise","[""lightred"",""turquoise"",""low nameability""]","left-right","[""lightred"",""turquoise"",""low nameability""]","3","low nameability","22","left","trigger",""
"html-button-response","114","727587","0.0-89.0-0.0","CAN_129","129","","","","","","822","<button class=""jspsych-btn""><img src=""stimuli/lightred.png"" style=""width: 200px;height: 200px;""></button>","0","lightred","turquoise","[""lightred"",""turquoise"",""low nameability""]","left-right","[""lightred"",""turquoise"",""low nameability""]","3","low nameability","22","left","response","1"
"html-audio-button-response","115","727794","0.0-89.0-1.0","CAN_129","129","","","","","","null","stimuli/bleep.m4a","null","lightred","turquoise","[""lightred"",""turquoise"",""low nameability""]","left-right","[""lightred"",""turquoise"",""low nameability""]","3","low nameability","22","left","audio_feedback","1"
"html-button-response","116","728312","0.0-90.0","CAN_129","129","","","","","","null","<button class=""jspsych-btn""><img src=""stimuli/white_square.png"" style=""width: 200px;height: 200px;""></button>","null","lightred","turquoise","[""lightred"",""turquoise"",""low nameability""]","left-right","[""lightred"",""turquoise"",""low nameability""]","3","low nameability","22","left","iti",""
"html-button-response","117","729062","0.0-91.0","CAN_129","129","","","","","","728","","0","purple","brown","[""purple"",""brown"",""high nameability""]","right-left","[""brown"",""purple""]","3","high nameability","23","right","trigger",""
"html-button-response","118","729806","0.0-92.0-0.0","CAN_129","129","","","","","","734","<button class=""jspsych-btn""><img src=""stimuli/purple.png"" style=""width: 200px;height: 200px;""></button>","1","purple","brown","[""purple"",""brown"",""high nameability""]","right-left","[""brown"",""purple""]","3","high nameability","23","right","response","1"
"html-audio-button-response","119","730012","0.0-92.0-1.0","CAN_129","129","","","","","","null","stimuli/bleep.m4a","null","purple","brown","[""purple"",""brown"",""high nameability""]","right-left","[""brown"",""purple""]","3","high nameability","23","right","audio_feedback","1"
"html-button-response","120","730540","0.0-93.0","CAN_129","129","","","","","","null","<button class=""jspsych-btn""><img src=""stimuli/white_square.png"" style=""width: 200px;height: 200px;""></button>","null","purple","brown","[""purple"",""brown"",""high nameability""]","right-left","[""brown"",""purple""]","3","high nameability","23","right","iti",""
"html-button-response","121","731326","0.0-94.0","CAN_129","129","","","","","","762","","0","turquoise","lightred","[""turquoise"",""lightred"",""low nameability""]","left-right","[""turquoise"",""lightred"",""low nameability""]","3","low nameability","24","left","trigger",""
"html-button-response","122","732100","0.0-95.0-0.0","CAN_129","129","","","","","","767","<button class=""jspsych-btn""><img src=""stimuli/turquoise.png"" style=""width: 200px;height: 200px;""></button>","0","turquoise","lightred","[""turquoise"",""lightred"",""low nameability""]","left-right","[""turquoise"",""lightred"",""low nameability""]","3","low nameability","24","left","response","1"
"html-audio-button-response","123","732303","0.0-95.0-1.0","CAN_129","129","","","","","","null","stimuli/bleep.m4a","null","turquoise","lightred","[""turquoise"",""lightred"",""low nameability""]","left-right","[""turquoise"",""lightred"",""low nameability""]","3","low nameability","24","left","audio_feedback","1"
"html-button-response","124","732833","0.0-96.0","CAN_129","129","","","","","","null","<button class=""jspsych-btn""><img src=""stimuli/white_square.png"" style=""width: 200px;height: 200px;""></button>","null","turquoise","lightred","[""turquoise"",""lightred"",""low nameability""]","left-right","[""turquoise"",""lightred"",""low nameability""]","3","low nameability","24","left","iti",""
"html-button-response","125","733472","0.0-97.0","CAN_129","129","","","","","","614","","0","turquoise","mustard","[""turquoise"",""mustard"",""low nameability""]","right-left","[""mustard"",""turquoise""]","3","low nameability","25","right","trigger",""
"html-button-response","126","734146","0.0-98.0-0.0","CAN_129","129","","","","","","666","<button class=""jspsych-btn""><img src=""stimuli/turquoise.png"" style=""width: 200px;height: 200px;""></button>","1","turquoise","mustard","[""turquoise"",""mustard"",""low nameability""]","right-left","[""mustard"",""turquoise""]","3","low nameability","25","right","response","1"
"html-audio-button-response","127","734347","0.0-98.0-1.0","CAN_129","129","","","","","","null","stimuli/bleep.m4a","null","turquoise","mustard","[""turquoise"",""mustard"",""low nameability""]","right-left","[""mustard"",""turquoise""]","3","low nameability","25","right","audio_feedback","1"
"html-button-response","128","734874","0.0-99.0","CAN_129","129","","","","","","null","<button class=""jspsych-btn""><img src=""stimuli/white_square.png"" style=""width: 200px;height: 200px;""></button>","null","turquoise","mustard","[""turquoise"",""mustard"",""low nameability""]","right-left","[""mustard"",""turquoise""]","3","low nameability","25","right","iti",""
"html-button-response","129","735595","0.0-100.0","CAN_129","129","","","","","","702","","0","yellow","orange","[""yellow"",""orange"",""high nameability""]","right-left","[""orange"",""yellow""]","3","high nameability","26","right","trigger",""
"html-button-response","130","736417","0.0-101.0-0.0","CAN_129","129","","","","","","813","<button class=""jspsych-btn""><img src=""stimuli/yellow.png"" style=""width: 200px;height: 200px;""></button>","1","yellow","orange","[""yellow"",""orange"",""high nameability""]","right-left","[""orange"",""yellow""]","3","high nameability","26","right","response","1"
"html-audio-button-response","131","736626","0.0-101.0-1.0","CAN_129","129","","","","","","null","stimuli/bleep.m4a","null","yellow","orange","[""yellow"",""orange"",""high nameability""]","right-left","[""orange"",""yellow""]","3","high nameability","26","right","audio_feedback","1"
"html-button-response","132","737146","0.0-102.0","CAN_129","129","","","","","","null","<button class=""jspsych-btn""><img src=""stimuli/white_square.png"" style=""width: 200px;height: 200px;""></button>","null","yellow","orange","[""yellow"",""orange"",""high nameability""]","right-left","[""orange"",""yellow""]","3","high nameability","26","right","iti",""
"html-button-response","133","737867","0.0-103.0","CAN_129","129","","","","","","709","","0","purple","blue","[""purple"",""blue"",""high nameability""]","right-left","[""blue"",""purple""]","3","high nameability","27","right","trigger",""
"html-button-response","134","738666","0.0-104.0-0.0","CAN_129","129","","","","","","791","<button class=""jspsych-btn""><img src=""stimuli/purple.png"" style=""width: 200px;height: 200px;""></button>","1","purple","blue","[""purple"",""blue"",""high nameability""]","right-left","[""blue"",""purple""]","3","high nameability","27","right","response","1"
"html-audio-button-response","135","738872","0.0-104.0-1.0","CAN_129","129","","","","","","null","stimuli/bleep.m4a","null","purple","blue","[""purple"",""blue"",""high nameability""]","right-left","[""blue"",""purple""]","3","high nameability","27","right","audio_feedback","1"
"html-button-response","136","739392","0.0-105.0","CAN_129","129","","","","","","null","<button class=""jspsych-btn""><img src=""stimuli/white_square.png"" style=""width: 200px;height: 200px;""></button>","null","purple","blue","[""purple"",""blue"",""high nameability""]","right-left","[""blue"",""purple""]","3","high nameability","27","right","iti",""
"html-button-response","137","740060","0.0-106.0","CAN_129","129","","","","","","637","","0","neonyellow","mustard","[""neonyellow"",""mustard"",""low nameability""]","right-left","[""mustard"",""neonyellow""]","3","low nameability","28","right","trigger",""
"html-button-response","138","740844","0.0-107.0-0.0","CAN_129","129","","","","","","774","<button class=""jspsych-btn""><img src=""stimuli/neonyellow.png"" style=""width: 200px;height: 200px;""></button>","1","neonyellow","mustard","[""neonyellow"",""mustard"",""low nameability""]","right-left","[""mustard"",""neonyellow""]","3","low nameability","28","right","response","1"
"html-audio-button-response","139","741051","0.0-107.0-1.0","CAN_129","129","","","","","","null","stimuli/bleep.m4a","null","neonyellow","mustard","[""neonyellow"",""mustard"",""low nameability""]","right-left","[""mustard"",""neonyellow""]","3","low nameability","28","right","audio_feedback","1"
"html-button-response","140","741572","0.0-108.0","CAN_129","129","","","","","","null","<button class=""jspsych-btn""><img src=""stimuli/white_square.png"" style=""width: 200px;height: 200px;""></button>","null","neonyellow","mustard","[""neonyellow"",""mustard"",""low nameability""]","right-left","[""mustard"",""neonyellow""]","3","low nameability","28","right","iti",""
"html-button-response","141","742231","0.0-109.0","CAN_129","129","","","","","","639","","0","blue","red","[""blue"",""red"",""high nameability""]","left-right","[""blue"",""red"",""high nameability""]","3","high nameability","29","left","trigger",""
"html-button-response","142","742945","0.0-110.0-0.0","CAN_129","129","","","","","","707","<button class=""jspsych-btn""><img src=""stimuli/blue.png"" style=""width: 200px;height: 200px;""></button>","0","blue","red","[""blue"",""red"",""high nameability""]","left-right","[""blue"",""red"",""high nameability""]","3","high nameability","29","left","response","1"
"html-audio-button-response","143","743152","0.0-110.0-1.0","CAN_129","129","","","","","","null","stimuli/bleep.m4a","null","blue","red","[""blue"",""red"",""high nameability""]","left-right","[""blue"",""red"",""high nameability""]","3","high nameability","29","left","audio_feedback","1"
"html-button-response","144","743681","0.0-111.0","CAN_129","129","","","","","","null","<button class=""jspsych-btn""><img src=""stimuli/white_square.png"" style=""width: 200px;height: 200px;""></button>","null","blue","red","[""blue"",""red"",""high nameability""]","left-right","[""blue"",""red"",""high nameability""]","3","high nameability","29","left","iti",""
"html-button-response","145","744429","0.0-112.0","CAN_129","129","","","","","","734","","0","blue","purple","[""blue"",""purple"",""high nameability""]","right-left","[""purple"",""blue""]","3","high nameability","30","right","trigger",""
"html-button-response","146","745203","0.0-113.0-0.0","CAN_129","129","","","","","","769","<button class=""jspsych-btn""><img src=""stimuli/blue.png"" style=""width: 200px;height: 200px;""></button>","1","blue","purple","[""blue"",""purple"",""high nameability""]","right-left","[""purple"",""blue""]","3","high nameability","30","right","response","1"
"html-audio-button-response","147","745410","0.0-113.0-1.0","CAN_129","129","","","","","","null","stimuli/bleep.m4a","null","blue","purple","[""blue"",""purple"",""high nameability""]","right-left","[""purple"",""blue""]","3","high nameability","30","right","audio_feedback","1"
"html-button-response","148","745929","0.0-114.0","CAN_129","129","","","","","","null","<button class=""jspsych-btn""><img src=""stimuli/white_square.png"" style=""width: 200px;height: 200px;""></button>","null","blue","purple","[""blue"",""purple"",""high nameability""]","right-left","[""purple"",""blue""]","3","high nameability","30","right","iti",""
"pavlovia","149","746012","0.0-115.0","CAN_129","129","","","","","","","","","","","","","","","","","","",""
"pavlovia","150","746020","0.0-116.0","CAN_129","129","","","","","","","","","","","","","","","","","","",""
"html-audio-button-response","151","747570","0.0-117.0","CAN_129","129","","","","","","1640","stimuli/tada.m4a","0","","","","","","","","","","",""
"html-button-response","152","748443","0.0-118.0","CAN_129","129","","","","","","868","","0","","","","","","","","","","",""
"html-button-response","153","749390","0.0-119.0","CAN_129","129","","","","","","942","","0","lightred","neonyellow","[""lightred"",""neonyellow"",""low nameability""]","right-left","[""neonyellow"",""lightred""]","4","low nameability","31","right","trigger",""
"html-button-response","154","750221","0.0-120.0-0.0","CAN_129","129","","","","","","823","<button class=""jspsych-btn""><img src=""stimuli/lightred.png"" style=""width: 200px;height: 200px;""></button>","1","lightred","neonyellow","[""lightred"",""neonyellow"",""low nameability""]","right-left","[""neonyellow"",""lightred""]","4","low nameability","31","right","response","1"
"html-audio-button-response","155","750423","0.0-120.0-1.0","CAN_129","129","","","","","","null","stimuli/bleep.m4a","null","lightred","neonyellow","[""lightred"",""neonyellow"",""low nameability""]","right-left","[""neonyellow"",""lightred""]","4","low nameability","31","right","audio_feedback","1"
"html-button-response","156","750946","0.0-121.0","CAN_129","129","","","","","","null","<button class=""jspsych-btn""><img src=""stimuli/white_square.png"" style=""width: 200px;height: 200px;""></button>","null","lightred","neonyellow","[""lightred"",""neonyellow"",""low nameability""]","right-left","[""neonyellow"",""lightred""]","4","low nameability","31","right","iti",""
"html-button-response","157","751537","0.0-122.0","CAN_129","129","","","","","","576","","0","red","orange","[""red"",""orange"",""high nameability""]","left-right","[""red"",""orange"",""high nameability""]","4","high nameability","32","left","trigger",""
"html-button-response","158","753236","0.0-123.0-0.0","CAN_129","129","","","","","","1692","<button class=""jspsych-btn""><img src=""stimuli/red.png"" style=""width: 200px;height: 200px;""></button>","0","red","orange","[""red"",""orange"",""high nameability""]","left-right","[""red"",""orange"",""high nameability""]","4","high nameability","32","left","response","1"
"html-audio-button-response","159","753438","0.0-123.0-1.0","CAN_129","129","","","","","","null","stimuli/bleep.m4a","null","red","orange","[""red"",""orange"",""high nameability""]","left-right","[""red"",""orange"",""high nameability""]","4","high nameability","32","left","audio_feedback","1"
"html-button-response","160","753954","0.0-124.0","CAN_129","129","","","","","","null","<button class=""jspsych-btn""><img src=""stimuli/white_square.png"" style=""width: 200px;height: 200px;""></button>","null","red","orange","[""red"",""orange"",""high nameability""]","left-right","[""red"",""orange"",""high nameability""]","4","high nameability","32","left","iti",""
"html-button-response","161","754523","0.0-125.0","CAN_129","129","","","","","","552","","0","darkgreenblue","turquoise","[""darkgreenblue"",""turquoise"",""low nameability""]","right-left","[""turquoise"",""darkgreenblue""]","4","low nameability","33","right","trigger",""
"html-button-response","162","755401","0.0-126.0-0.0","CAN_129","129","","","","","","869","<button class=""jspsych-btn""><img src=""stimuli/darkgreenblue.png"" style=""width: 200px;height: 200px;""></button>","1","darkgreenblue","turquoise","[""darkgreenblue"",""turquoise"",""low nameability""]","right-left","[""turquoise"",""darkgreenblue""]","4","low nameability","33","right","response","1"
"html-audio-button-response","163","755609","0.0-126.0-1.0","CAN_129","129","","","","","","null","stimuli/bleep.m4a","null","darkgreenblue","turquoise","[""darkgreenblue"",""turquoise"",""low nameability""]","right-left","[""turquoise"",""darkgreenblue""]","4","low nameability","33","right","audio_feedback","1"
"html-button-response","164","756127","0.0-127.0","CAN_129","129","","","","","","null","<button class=""jspsych-btn""><img src=""stimuli/white_square.png"" style=""width: 200px;height: 200px;""></button>","null","darkgreenblue","turquoise","[""darkgreenblue"",""turquoise"",""low nameability""]","right-left","[""turquoise"",""darkgreenblue""]","4","low nameability","33","right","iti",""
"html-button-response","165","756844","0.0-128.0","CAN_129","129","","","","","","691","","0","neonyellow","lightred","[""neonyellow"",""lightred"",""low nameability""]","left-right","[""neonyellow"",""lightred"",""low nameability""]","4","low nameability","34","left","trigger",""
"html-button-response","166","757600","0.0-129.0-0.0","CAN_129","129","","","","","","749","<button class=""jspsych-btn""><img src=""stimuli/neonyellow.png"" style=""width: 200px;height: 200px;""></button>","0","neonyellow","lightred","[""neonyellow"",""lightred"",""low nameability""]","left-right","[""neonyellow"",""lightred"",""low nameability""]","4","low nameability","34","left","response","1"
"html-audio-button-response","167","757802","0.0-129.0-1.0","CAN_129","129","","","","","","null","stimuli/bleep.m4a","null","neonyellow","lightred","[""neonyellow"",""lightred"",""low nameability""]","left-right","[""neonyellow"",""lightred"",""low nameability""]","4","low nameability","34","left","audio_feedback","1"
"html-button-response","168","758320","0.0-130.0","CAN_129","129","","","","","","null","<button class=""jspsych-btn""><img src=""stimuli/white_square.png"" style=""width: 200px;height: 200px;""></button>","null","neonyellow","lightred","[""neonyellow"",""lightred"",""low nameability""]","left-right","[""neonyellow"",""lightred"",""low nameability""]","4","low nameability","34","left","iti",""
"html-button-response","169","758997","0.0-131.0","CAN_129","129","","","","","","658","","0","neonyellow","darkgreenblue","[""neonyellow"",""darkgreenblue"",""low nameability""]","left-right","[""neonyellow"",""darkgreenblue"",""low nameability""]","4","low nameability","35","left","trigger",""
"html-button-response","170","759673","0.0-132.0-0.0","CAN_129","129","","","","","","664","<button class=""jspsych-btn""><img src=""stimuli/neonyellow.png"" style=""width: 200px;height: 200px;""></button>","0","neonyellow","darkgreenblue","[""neonyellow"",""darkgreenblue"",""low nameability""]","left-right","[""neonyellow"",""darkgreenblue"",""low nameability""]","4","low nameability","35","left","response","1"
"html-audio-button-response","171","759879","0.0-132.0-1.0","CAN_129","129","","","","","","null","stimuli/bleep.m4a","null","neonyellow","darkgreenblue","[""neonyellow"",""darkgreenblue"",""low nameability""]","left-right","[""neonyellow"",""darkgreenblue"",""low nameability""]","4","low nameability","35","left","audio_feedback","1"
"html-button-response","172","760399","0.0-133.0","CAN_129","129","","","","","","null","<button class=""jspsych-btn""><img src=""stimuli/white_square.png"" style=""width: 200px;height: 200px;""></button>","null","neonyellow","darkgreenblue","[""neonyellow"",""darkgreenblue"",""low nameability""]","left-right","[""neonyellow"",""darkgreenblue"",""low nameability""]","4","low nameability","35","left","iti",""
"html-button-response","173","761028","0.0-134.0","CAN_129","129","","","","","","608","","0","blue","yellow","[""blue"",""yellow"",""high nameability""]","right-left","[""yellow"",""blue""]","4","high nameability","36","right","trigger",""
"html-button-response","174","761795","0.0-135.0-0.0","CAN_129","129","","","","","","759","<button class=""jspsych-btn""><img src=""stimuli/blue.png"" style=""width: 200px;height: 200px;""></button>","1","blue","yellow","[""blue"",""yellow"",""high nameability""]","right-left","[""yellow"",""blue""]","4","high nameability","36","right","response","1"
"html-audio-button-response","175","762000","0.0-135.0-1.0","CAN_129","129","","","","","","null","stimuli/bleep.m4a","null","blue","yellow","[""blue"",""yellow"",""high nameability""]","right-left","[""yellow"",""blue""]","4","high nameability","36","right","audio_feedback","1"
"html-button-response","176","762519","0.0-136.0","CAN_129","129","","","","","","null","<button class=""jspsych-btn""><img src=""stimuli/white_square.png"" style=""width: 200px;height: 200px;""></button>","null","blue","yellow","[""blue"",""yellow"",""high nameability""]","right-left","[""yellow"",""blue""]","4","high nameability","36","right","iti",""
"html-button-response","177","763252","0.0-137.0","CAN_129","129","","","","","","711","","0","lightred","pink","[""lightred"",""pink"",""low nameability""]","left-right","[""lightred"",""pink"",""low nameability""]","4","low nameability","37","left","trigger",""
"html-button-response","178","763998","0.0-138.0-0.0","CAN_129","129","","","","","","739","<button class=""jspsych-btn""><img src=""stimuli/lightred.png"" style=""width: 200px;height: 200px;""></button>","0","lightred","pink","[""lightred"",""pink"",""low nameability""]","left-right","[""lightred"",""pink"",""low nameability""]","4","low nameability","37","left","response","1"
"html-audio-button-response","179","764203","0.0-138.0-1.0","CAN_129","129","","","","","","null","stimuli/bleep.m4a","null","lightred","pink","[""lightred"",""pink"",""low nameability""]","left-right","[""lightred"",""pink"",""low nameability""]","4","low nameability","37","left","audio_feedback","1"
"html-button-response","180","764727","0.0-139.0","CAN_129","129","","","","","","null","<button class=""jspsych-btn""><img src=""stimuli/white_square.png"" style=""width: 200px;height: 200px;""></button>","null","lightred","pink","[""lightred"",""pink"",""low nameability""]","left-right","[""lightred"",""pink"",""low nameability""]","4","low nameability","37","left","iti",""
"html-button-response","181","765413","0.0-140.0","CAN_129","129","","","","","","663","","0","mustard","lightred","[""mustard"",""lightred"",""low nameability""]","left-right","[""mustard"",""lightred"",""low nameability""]","4","low nameability","38","left","trigger",""
"html-button-response","182","766152","0.0-141.0-0.0","CAN_129","129","","","","","","733","<button class=""jspsych-btn""><img src=""stimuli/mustard.png"" style=""width: 200px;height: 200px;""></button>","0","mustard","lightred","[""mustard"",""lightred"",""low nameability""]","left-right","[""mustard"",""lightred"",""low nameability""]","4","low nameability","38","left","response","1"
"html-audio-button-response","183","766356","0.0-141.0-1.0","CAN_129","129","","","","","","null","stimuli/bleep.m4a","null","mustard","lightred","[""mustard"",""lightred"",""low nameability""]","left-right","[""mustard"",""lightred"",""low nameability""]","4","low nameability","38","left","audio_feedback","1"
"html-button-response","184","766883","0.0-142.0","CAN_129","129","","","","","","null","<button class=""jspsych-btn""><img src=""stimuli/white_square.png"" style=""width: 200px;height: 200px;""></button>","null","mustard","lightred","[""mustard"",""lightred"",""low nameability""]","left-right","[""mustard"",""lightred"",""low nameability""]","4","low nameability","38","left","iti",""
"html-button-response","185","767402","0.0-143.0","CAN_129","129","","","","","","497","","0","orange","brown","[""orange"",""brown"",""high nameability""]","right-left","[""brown"",""orange""]","4","high nameability","39","right","trigger",""
"html-button-response","186","768144","0.0-144.0-0.0","CAN_129","129","","","","","","735","<button class=""jspsych-btn""><img src=""stimuli/orange.png"" style=""width: 200px;height: 200px;""></button>","1","orange","brown","[""orange"",""brown"",""high nameability""]","right-left","[""brown"",""orange""]","4","high nameability","39","right","response","1"
"html-audio-button-response","187","768350","0.0-144.0-1.0","CAN_129","129","","","","","","null","stimuli/bleep.m4a","null","orange","brown","[""orange"",""brown"",""high nameability""]","right-left","[""brown"",""orange""]","4","high nameability","39","right","audio_feedback","1"
"html-button-response","188","768878","0.0-145.0","CAN_129","129","","","","","","null","<button class=""jspsych-btn""><img src=""stimuli/white_square.png"" style=""width: 200px;height: 200px;""></button>","null","orange","brown","[""orange"",""brown"",""high nameability""]","right-left","[""brown"",""orange""]","4","high nameability","39","right","iti",""
"html-button-response","189","769478","0.0-146.0","CAN_129","129","","","","","","578","","0","turquoise","neonyellow","[""turquoise"",""neonyellow"",""low nameability""]","left-right","[""turquoise"",""neonyellow"",""low nameability""]","4","low nameability","40","left","trigger",""
"html-button-response","190","770177","0.0-147.0-0.0","CAN_129","129","","","","","","691","<button class=""jspsych-btn""><img src=""stimuli/turquoise.png"" style=""width: 200px;height: 200px;""></button>","0","turquoise","neonyellow","[""turquoise"",""neonyellow"",""low nameability""]","left-right","[""turquoise"",""neonyellow"",""low nameability""]","4","low nameability","40","left","response","1"
"html-audio-button-response","191","770380","0.0-147.0-1.0","CAN_129","129","","","","","","null","stimuli/bleep.m4a","null","turquoise","neonyellow","[""turquoise"",""neonyellow"",""low nameability""]","left-right","[""turquoise"",""neonyellow"",""low nameability""]","4","low nameability","40","left","audio_feedback","1"
"html-button-response","192","770900","0.0-148.0","CAN_129","129","","","","","","null","<button class=""jspsych-btn""><img src=""stimuli/white_square.png"" style=""width: 200px;height: 200px;""></button>","null","turquoise","neonyellow","[""turquoise"",""neonyellow"",""low nameability""]","left-right","[""turquoise"",""neonyellow"",""low nameability""]","4","low nameability","40","left","iti",""
"pavlovia","193","770948","0.0-149.0","CAN_129","129","","","","","","","","","","","","","","","","","","",""
"pavlovia","194","770958","0.0-150.0","CAN_129","129","","","","","","","","","","","","","","","","","","",""
"html-audio-button-response","195","772201","0.0-151.0","CAN_129","129","","","","","","1299","stimuli/tada.m4a","0","","","","","","","","","","",""
"html-button-response","196","773126","0.0-152.0","CAN_129","129","","","","","","919","","0","","","","","","","","","","",""
"html-button-response","197","773892","0.0-153.0","CAN_129","129","","","","","","758","","0","yellow","brown","[""yellow"",""brown"",""high nameability""]","right-left","[""brown"",""yellow""]","5","high nameability","41","right","trigger",""
"html-button-response","198","774693","0.0-154.0-0.0","CAN_129","129","","","","","","792","<button class=""jspsych-btn""><img src=""stimuli/yellow.png"" style=""width: 200px;height: 200px;""></button>","1","yellow","brown","[""yellow"",""brown"",""high nameability""]","right-left","[""brown"",""yellow""]","5","high nameability","41","right","response","1"
"html-audio-button-response","199","774893","0.0-154.0-1.0","CAN_129","129","","","","","","null","stimuli/bleep.m4a","null","yellow","brown","[""yellow"",""brown"",""high nameability""]","right-left","[""brown"",""yellow""]","5","high nameability","41","right","audio_feedback","1"
"html-button-response","200","775404","0.0-155.0","CAN_129","129","","","","","","null","<button class=""jspsych-btn""><img src=""stimuli/white_square.png"" style=""width: 200px;height: 200px;""></button>","null","yellow","brown","[""yellow"",""brown"",""high nameability""]","right-left","[""brown"",""yellow""]","5","high nameability","41","right","iti",""
"html-button-response","201","775954","0.0-156.0","CAN_129","129","","","","","","533","","0","blue","brown","[""blue"",""brown"",""high nameability""]","right-left","[""brown"",""blue""]","5","high nameability","42","right","trigger",""
"html-button-response","202","776743","0.0-157.0-0.0","CAN_129","129","","","","","","780","<button class=""jspsych-btn""><img src=""stimuli/blue.png"" style=""width: 200px;height: 200px;""></button>","1","blue","brown","[""blue"",""brown"",""high nameability""]","right-left","[""brown"",""blue""]","5","high nameability","42","right","response","1"
"html-audio-button-response","203","776954","0.0-157.0-1.0","CAN_129","129","","","","","","null","stimuli/bleep.m4a","null","blue","brown","[""blue"",""brown"",""high nameability""]","right-left","[""brown"",""blue""]","5","high nameability","42","right","audio_feedback","1"
"html-button-response","204","777487","0.0-158.0","CAN_129","129","","","","","","null","<button class=""jspsych-btn""><img src=""stimuli/white_square.png"" style=""width: 200px;height: 200px;""></button>","null","blue","brown","[""blue"",""brown"",""high nameability""]","right-left","[""brown"",""blue""]","5","high nameability","42","right","iti",""
"html-button-response","205","778112","0.0-159.0","CAN_129","129","","","","","","588","","0","blue","orange","[""blue"",""orange"",""high nameability""]","left-right","[""blue"",""orange"",""high nameability""]","5","high nameability","43","left","trigger",""
"html-button-response","206","778790","0.0-160.0-0.0","CAN_129","129","","","","","","667","<button class=""jspsych-btn""><img src=""stimuli/blue.png"" style=""width: 200px;height: 200px;""></button>","0","blue","orange","[""blue"",""orange"",""high nameability""]","left-right","[""blue"",""orange"",""high nameability""]","5","high nameability","43","left","response","1"
"html-audio-button-response","207","779009","0.0-160.0-1.0","CAN_129","129","","","","","","null","stimuli/bleep.m4a","null","blue","orange","[""blue"",""orange"",""high nameability""]","left-right","[""blue"",""orange"",""high nameability""]","5","high nameability","43","left","audio_feedback","1"
"html-button-response","208","779526","0.0-161.0","CAN_129","129","","","","","","null","<button class=""jspsych-btn""><img src=""stimuli/white_square.png"" style=""width: 200px;height: 200px;""></button>","null","blue","orange","[""blue"",""orange"",""high nameability""]","left-right","[""blue"",""orange"",""high nameability""]","5","high nameability","43","left","iti",""
"html-button-response","209","780048","0.0-162.0","CAN_129","129","","","","","","511","","0","yellow","blue","[""yellow"",""blue"",""high nameability""]","right-left","[""blue"",""yellow""]","5","high nameability","44","right","trigger",""
"html-button-response","210","780799","0.0-163.0-0.0","CAN_129","129","","","","","","744","<button class=""jspsych-btn""><img src=""stimuli/yellow.png"" style=""width: 200px;height: 200px;""></button>","1","yellow","blue","[""yellow"",""blue"",""high nameability""]","right-left","[""blue"",""yellow""]","5","high nameability","44","right","response","1"
"html-audio-button-response","211","781004","0.0-163.0-1.0","CAN_129","129","","","","","","null","stimuli/bleep.m4a","null","yellow","blue","[""yellow"",""blue"",""high nameability""]","right-left","[""blue"",""yellow""]","5","high nameability","44","right","audio_feedback","1"
"html-button-response","212","781547","0.0-164.0","CAN_129","129","","","","","","null","<button class=""jspsych-btn""><img src=""stimuli/white_square.png"" style=""width: 200px;height: 200px;""></button>","null","yellow","blue","[""yellow"",""blue"",""high nameability""]","right-left","[""blue"",""yellow""]","5","high nameability","44","right","iti",""
"html-button-response","213","782166","0.0-165.0","CAN_129","129","","","","","","589","","0","brown","red","[""brown"",""red"",""high nameability""]","right-left","[""red"",""brown""]","5","high nameability","45","right","trigger",""
"html-button-response","214","782962","0.0-166.0-0.0","CAN_129","129","","","","","","782","<button class=""jspsych-btn""><img src=""stimuli/brown.png"" style=""width: 200px;height: 200px;""></button>","1","brown","red","[""brown"",""red"",""high nameability""]","right-left","[""red"",""brown""]","5","high nameability","45","right","response","1"
"html-audio-button-response","215","783177","0.0-166.0-1.0","CAN_129","129","","","","","","null","stimuli/bleep.m4a","null","brown","red","[""brown"",""red"",""high nameability""]","right-left","[""red"",""brown""]","5","high nameability","45","right","audio_feedback","1"
"html-button-response","216","783708","0.0-167.0","CAN_129","129","","","","","","null","<button class=""jspsych-btn""><img src=""stimuli/white_square.png"" style=""width: 200px;height: 200px;""></button>","null","brown","red","[""brown"",""red"",""high nameability""]","right-left","[""red"",""brown""]","5","high nameability","45","right","iti",""
"html-button-response","217","784321","0.0-168.0","CAN_129","129","","","","","","580","","0","turquoise","pink","[""turquoise"",""pink"",""low nameability""]","right-left","[""pink"",""turquoise""]","5","low nameability","46","right","trigger",""
"html-button-response","218","785107","0.0-169.0-0.0","CAN_129","129","","","","","","775","<button class=""jspsych-btn""><img src=""stimuli/turquoise.png"" style=""width: 200px;height: 200px;""></button>","1","turquoise","pink","[""turquoise"",""pink"",""low nameability""]","right-left","[""pink"",""turquoise""]","5","low nameability","46","right","response","1"
"html-audio-button-response","219","785320","0.0-169.0-1.0","CAN_129","129","","","","","","null","stimuli/bleep.m4a","null","turquoise","pink","[""turquoise"",""pink"",""low nameability""]","right-left","[""pink"",""turquoise""]","5","low nameability","46","right","audio_feedback","1"
"html-button-response","220","785838","0.0-170.0","CAN_129","129","","","","","","null","<button class=""jspsych-btn""><img src=""stimuli/white_square.png"" style=""width: 200px;height: 200px;""></button>","null","turquoise","pink","[""turquoise"",""pink"",""low nameability""]","right-left","[""pink"",""turquoise""]","5","low nameability","46","right","iti",""
"html-button-response","221","786386","0.0-171.0","CAN_129","129","","","","","","526","","0","purple","red","[""purple"",""red"",""high nameability""]","left-right","[""purple"",""red"",""high nameability""]","5","high nameability","47","left","trigger",""
"html-button-response","222","787088","0.0-172.0-0.0","CAN_129","129","","","","","","694","<button class=""jspsych-btn""><img src=""stimuli/purple.png"" style=""width: 200px;height: 200px;""></button>","0","purple","red","[""purple"",""red"",""high nameability""]","left-right","[""purple"",""red"",""high nameability""]","5","high nameability","47","left","response","1"
"html-audio-button-response","223","787296","0.0-172.0-1.0","CAN_129","129","","","","","","null","stimuli/bleep.m4a","null","purple","red","[""purple"",""red"",""high nameability""]","left-right","[""purple"",""red"",""high nameability""]","5","high nameability","47","left","audio_feedback","1"
"html-button-response","224","787817","0.0-173.0","CAN_129","129","","","","","","null","<button class=""jspsych-btn""><img src=""stimuli/white_square.png"" style=""width: 200px;height: 200px;""></button>","null","purple","red","[""purple"",""red"",""high nameability""]","left-right","[""purple"",""red"",""high nameability""]","5","high nameability","47","left","iti",""
"html-button-response","225","788334","0.0-174.0","CAN_129","129","","","","","","495","","0","mustard","darkgreenblue","[""mustard"",""darkgreenblue"",""low nameability""]","left-right","[""mustard"",""darkgreenblue"",""low nameability""]","5","low nameability","48","left","trigger",""
"html-button-response","226","789023","0.0-175.0-0.0","CAN_129","129","","","","","","677","<button class=""jspsych-btn""><img src=""stimuli/mustard.png"" style=""width: 200px;height: 200px;""></button>","0","mustard","darkgreenblue","[""mustard"",""darkgreenblue"",""low nameability""]","left-right","[""mustard"",""darkgreenblue"",""low nameability""]","5","low nameability","48","left","response","1"
"html-audio-button-response","227","789230","0.0-175.0-1.0","CAN_129","129","","","","","","null","stimuli/bleep.m4a","null","mustard","darkgreenblue","[""mustard"",""darkgreenblue"",""low nameability""]","left-right","[""mustard"",""darkgreenblue"",""low nameability""]","5","low nameability","48","left","audio_feedback","1"
"html-button-response","228","789767","0.0-176.0","CAN_129","129","","","","","","null","<button class=""jspsych-btn""><img src=""stimuli/white_square.png"" style=""width: 200px;height: 200px;""></button>","null","mustard","darkgreenblue","[""mustard"",""darkgreenblue"",""low nameability""]","left-right","[""mustard"",""darkgreenblue"",""low nameability""]","5","low nameability","48","left","iti",""
"html-button-response","229","790342","0.0-177.0","CAN_129","129","","","","","","548","","0","red","brown","[""red"",""brown"",""high nameability""]","left-right","[""red"",""brown"",""high nameability""]","5","high nameability","49","left","trigger",""
"html-button-response","230","791119","0.0-178.0-0.0","CAN_129","129","","","","","","770","<button class=""jspsych-btn""><img src=""stimuli/red.png"" style=""width: 200px;height: 200px;""></button>","0","red","brown","[""red"",""brown"",""high nameability""]","left-right","[""red"",""brown"",""high nameability""]","5","high nameability","49","left","response","1"
"html-audio-button-response","231","791324","0.0-178.0-1.0","CAN_129","129","","","","","","null","stimuli/bleep.m4a","null","red","brown","[""red"",""brown"",""high nameability""]","left-right","[""red"",""brown"",""high nameability""]","5","high nameability","49","left","audio_feedback","1"
"html-button-response","232","791847","0.0-179.0","CAN_129","129","","","","","","null","<button class=""jspsych-btn""><img src=""stimuli/white_square.png"" style=""width: 200px;height: 200px;""></button>","null","red","brown","[""red"",""brown"",""high nameability""]","left-right","[""red"",""brown"",""high nameability""]","5","high nameability","49","left","iti",""
"html-button-response","233","792365","0.0-180.0","CAN_129","129","","","","","","495","","0","turquoise","darkgreenblue","[""turquoise"",""darkgreenblue"",""low nameability""]","right-left","[""darkgreenblue"",""turquoise""]","5","low nameability","50","right","trigger",""
"html-button-response","234","793104","0.0-181.0-0.0","CAN_129","129","","","","","","731","<button class=""jspsych-btn""><img src=""stimuli/turquoise.png"" style=""width: 200px;height: 200px;""></button>","1","turquoise","darkgreenblue","[""turquoise"",""darkgreenblue"",""low nameability""]","right-left","[""darkgreenblue"",""turquoise""]","5","low nameability","50","right","response","1"
"html-audio-button-response","235","793315","0.0-181.0-1.0","CAN_129","129","","","","","","null","stimuli/bleep.m4a","null","turquoise","darkgreenblue","[""turquoise"",""darkgreenblue"",""low nameability""]","right-left","[""darkgreenblue"",""turquoise""]","5","low nameability","50","right","audio_feedback","1"
"html-button-response","236","793842","0.0-182.0","CAN_129","129","","","","","","null","<button class=""jspsych-btn""><img src=""stimuli/white_square.png"" style=""width: 200px;height: 200px;""></button>","null","turquoise","darkgreenblue","[""turquoise"",""darkgreenblue"",""low nameability""]","right-left","[""darkgreenblue"",""turquoise""]","5","low nameability","50","right","iti",""
"pavlovia","237","793960","0.0-183.0","CAN_129","129","","","","","","","","","","","","","","","","","","",""
"pavlovia","238","793975","0.0-184.0","CAN_129","129","","","","","","","","","","","","","","","","","","",""
"html-audio-button-response","239","795456","0.0-185.0","CAN_129","129","","","","","","1616","stimuli/tada.m4a","0","","","","","","","","","","",""
"html-button-response","240","796360","0.0-186.0","CAN_129","129","","","","","","898","","0","","","","","","","","","","",""
"html-button-response","241","797147","0.0-187.0","CAN_129","129","","","","","","780","","0","red","blue","[""red"",""blue"",""high nameability""]","right-left","[""blue"",""red""]","6","high nameability","51","right","trigger",""
"html-button-response","242","797904","0.0-188.0-0.0","CAN_129","129","","","","","","751","<button class=""jspsych-btn""><img src=""stimuli/red.png"" style=""width: 200px;height: 200px;""></button>","1","red","blue","[""red"",""blue"",""high nameability""]","right-left","[""blue"",""red""]","6","high nameability","51","right","response","1"
"html-audio-button-response","243","798110","0.0-188.0-1.0","CAN_129","129","","","","","","null","stimuli/bleep.m4a","null","red","blue","[""red"",""blue"",""high nameability""]","right-left","[""blue"",""red""]","6","high nameability","51","right","audio_feedback","1"
"html-button-response","244","798639","0.0-189.0","CAN_129","129","","","","","","null","<button class=""jspsych-btn""><img src=""stimuli/white_square.png"" style=""width: 200px;height: 200px;""></button>","null","red","blue","[""red"",""blue"",""high nameability""]","right-left","[""blue"",""red""]","6","high nameability","51","right","iti",""
"html-button-response","245","799226","0.0-190.0","CAN_129","129","","","","","","566","","0","neonyellow","pink","[""neonyellow"",""pink"",""low nameability""]","right-left","[""pink"",""neonyellow""]","6","low nameability","52","right","trigger",""
"html-button-response","246","799892","0.0-191.0-0.0","CAN_129","129","","","","","","658","<button class=""jspsych-btn""><img src=""stimuli/neonyellow.png"" style=""width: 200px;height: 200px;""></button>","1","neonyellow","pink","[""neonyellow"",""pink"",""low nameability""]","right-left","[""pink"",""neonyellow""]","6","low nameability","52","right","response","1"
"html-audio-button-response","247","800096","0.0-191.0-1.0","CAN_129","129","","","","","","null","stimuli/bleep.m4a","null","neonyellow","pink","[""neonyellow"",""pink"",""low nameability""]","right-left","[""pink"",""neonyellow""]","6","low nameability","52","right","audio_feedback","1"
"html-button-response","248","800617","0.0-192.0","CAN_129","129","","","","","","null","<button class=""jspsych-btn""><img src=""stimuli/white_square.png"" style=""width: 200px;height: 200px;""></button>","null","neonyellow","pink","[""neonyellow"",""pink"",""low nameability""]","right-left","[""pink"",""neonyellow""]","6","low nameability","52","right","iti",""
"html-button-response","249","801151","0.0-193.0","CAN_129","129","","","","","","518","","0","orange","red","[""orange"",""red"",""high nameability""]","right-left","[""red"",""orange""]","6","high nameability","53","right","trigger",""
"html-button-response","250","801774","0.0-194.0-0.0","CAN_129","129","","","","","","614","<button class=""jspsych-btn""><img src=""stimuli/orange.png"" style=""width: 200px;height: 200px;""></button>","1","orange","red","[""orange"",""red"",""high nameability""]","right-left","[""red"",""orange""]","6","high nameability","53","right","response","1"
"html-audio-button-response","251","801979","0.0-194.0-1.0","CAN_129","129","","","","","","null","stimuli/bleep.m4a","null","orange","red","[""orange"",""red"",""high nameability""]","right-left","[""red"",""orange""]","6","high nameability","53","right","audio_feedback","1"
"html-button-response","252","802499","0.0-195.0","CAN_129","129","","","","","","null","<button class=""jspsych-btn""><img src=""stimuli/white_square.png"" style=""width: 200px;height: 200px;""></button>","null","orange","red","[""orange"",""red"",""high nameability""]","right-left","[""red"",""orange""]","6","high nameability","53","right","iti",""
"html-button-response","253","803021","0.0-196.0","CAN_129","129","","","","","","511","","0","brown","orange","[""brown"",""orange"",""high nameability""]","left-right","[""brown"",""orange"",""high nameability""]","6","high nameability","54","left","trigger",""
"html-button-response","254","803669","0.0-197.0-0.0","CAN_129","129","","","","","","640","<button class=""jspsych-btn""><img src=""stimuli/brown.png"" style=""width: 200px;height: 200px;""></button>","0","brown","orange","[""brown"",""orange"",""high nameability""]","left-right","[""brown"",""orange"",""high nameability""]","6","high nameability","54","left","response","1"
"html-audio-button-response","255","803873","0.0-197.0-1.0","CAN_129","129","","","","","","null","stimuli/bleep.m4a","null","brown","orange","[""brown"",""orange"",""high nameability""]","left-right","[""brown"",""orange"",""high nameability""]","6","high nameability","54","left","audio_feedback","1"
"html-button-response","256","804395","0.0-198.0","CAN_129","129","","","","","","null","<button class=""jspsych-btn""><img src=""stimuli/white_square.png"" style=""width: 200px;height: 200px;""></button>","null","brown","orange","[""brown"",""orange"",""high nameability""]","left-right","[""brown"",""orange"",""high nameability""]","6","high nameability","54","left","iti",""
"html-button-response","257","804851","0.0-199.0","CAN_129","129","","","","","","442","","0","brown","blue","[""brown"",""blue"",""high nameability""]","left-right","[""brown"",""blue"",""high nameability""]","6","high nameability","55","left","trigger",""
"html-button-response","258","805576","0.0-200.0-0.0","CAN_129","129","","","","","","715","<button class=""jspsych-btn""><img src=""stimuli/brown.png"" style=""width: 200px;height: 200px;""></button>","0","brown","blue","[""brown"",""blue"",""high nameability""]","left-right","[""brown"",""blue"",""high nameability""]","6","high nameability","55","left","response","1"
"html-audio-button-response","259","805787","0.0-200.0-1.0","CAN_129","129","","","","","","null","stimuli/bleep.m4a","null","brown","blue","[""brown"",""blue"",""high nameability""]","left-right","[""brown"",""blue"",""high nameability""]","6","high nameability","55","left","audio_feedback","1"
"html-button-response","260","806308","0.0-201.0","CAN_129","129","","","","","","null","<button class=""jspsych-btn""><img src=""stimuli/white_square.png"" style=""width: 200px;height: 200px;""></button>","null","brown","blue","[""brown"",""blue"",""high nameability""]","left-right","[""brown"",""blue"",""high nameability""]","6","high nameability","55","left","iti",""
"html-button-response","261","806801","0.0-202.0","CAN_129","129","","","","","","474","","0","mustard","turquoise","[""mustard"",""turquoise"",""low nameability""]","right-left","[""turquoise"",""mustard""]","6","low nameability","56","right","trigger",""
"html-button-response","262","807514","0.0-203.0-0.0","CAN_129","129","","","","","","706","<button class=""jspsych-btn""><img src=""stimuli/mustard.png"" style=""width: 200px;height: 200px;""></button>","1","mustard","turquoise","[""mustard"",""turquoise"",""low nameability""]","right-left","[""turquoise"",""mustard""]","6","low nameability","56","right","response","1"
"html-audio-button-response","263","807720","0.0-203.0-1.0","CAN_129","129","","","","","","null","stimuli/bleep.m4a","null","mustard","turquoise","[""mustard"",""turquoise"",""low nameability""]","right-left","[""turquoise"",""mustard""]","6","low nameability","56","right","audio_feedback","1"
"html-button-response","264","808234","0.0-204.0","CAN_129","129","","","","","","null","<button class=""jspsych-btn""><img src=""stimuli/white_square.png"" style=""width: 200px;height: 200px;""></button>","null","mustard","turquoise","[""mustard"",""turquoise"",""low nameability""]","right-left","[""turquoise"",""mustard""]","6","low nameability","56","right","iti",""
"html-button-response","265","808776","0.0-205.0","CAN_129","129","","","","","","521","","0","orange","yellow","[""orange"",""yellow"",""high nameability""]","left-right","[""orange"",""yellow"",""high nameability""]","6","high nameability","57","left","trigger",""
"html-button-response","266","809463","0.0-206.0-0.0","CAN_129","129","","","","","","679","<button class=""jspsych-btn""><img src=""stimuli/orange.png"" style=""width: 200px;height: 200px;""></button>","0","orange","yellow","[""orange"",""yellow"",""high nameability""]","left-right","[""orange"",""yellow"",""high nameability""]","6","high nameability","57","left","response","1"
"html-audio-button-response","267","809671","0.0-206.0-1.0","CAN_129","129","","","","","","null","stimuli/bleep.m4a","null","orange","yellow","[""orange"",""yellow"",""high nameability""]","left-right","[""orange"",""yellow"",""high nameability""]","6","high nameability","57","left","audio_feedback","1"
"html-button-response","268","810194","0.0-207.0","CAN_129","129","","","","","","null","<button class=""jspsych-btn""><img src=""stimuli/white_square.png"" style=""width: 200px;height: 200px;""></button>","null","orange","yellow","[""orange"",""yellow"",""high nameability""]","left-right","[""orange"",""yellow"",""high nameability""]","6","high nameability","57","left","iti",""
"html-button-response","269","810649","0.0-208.0","CAN_129","129","","","","","","443","","0","darkgreenblue","mustard","[""darkgreenblue"",""mustard"",""low nameability""]","right-left","[""mustard"",""darkgreenblue""]","6","low nameability","58","right","trigger",""
"html-button-response","270","811471","0.0-209.0-0.0","CAN_129","129","","","","","","814","<button class=""jspsych-btn""><img src=""stimuli/darkgreenblue.png"" style=""width: 200px;height: 200px;""></button>","1","darkgreenblue","mustard","[""darkgreenblue"",""mustard"",""low nameability""]","right-left","[""mustard"",""darkgreenblue""]","6","low nameability","58","right","response","1"
"html-audio-button-response","271","811677","0.0-209.0-1.0","CAN_129","129","","","","","","null","stimuli/bleep.m4a","null","darkgreenblue","mustard","[""darkgreenblue"",""mustard"",""low nameability""]","right-left","[""mustard"",""darkgreenblue""]","6","low nameability","58","right","audio_feedback","1"
"html-button-response","272","812190","0.0-210.0","CAN_129","129","","","","","","null","<button class=""jspsych-btn""><img src=""stimuli/white_square.png"" style=""width: 200px;height: 200px;""></button>","null","darkgreenblue","mustard","[""darkgreenblue"",""mustard"",""low nameability""]","right-left","[""mustard"",""darkgreenblue""]","6","low nameability","58","right","iti",""
"html-button-response","273","812728","0.0-211.0","CAN_129","129","","","","","","515","","0","purple","yellow","[""purple"",""yellow"",""high nameability""]","left-right","[""purple"",""yellow"",""high nameability""]","6","high nameability","59","left","trigger",""
"html-button-response","274","813397","0.0-212.0-0.0","CAN_129","129","","","","","","660","<button class=""jspsych-btn""><img src=""stimuli/purple.png"" style=""width: 200px;height: 200px;""></button>","0","purple","yellow","[""purple"",""yellow"",""high nameability""]","left-right","[""purple"",""yellow"",""high nameability""]","6","high nameability","59","left","response","1"
"html-audio-button-response","275","813599","0.0-212.0-1.0","CAN_129","129","","","","","","null","stimuli/bleep.m4a","null","purple","yellow","[""purple"",""yellow"",""high nameability""]","left-right","[""purple"",""yellow"",""high nameability""]","6","high nameability","59","left","audio_feedback","1"
"html-button-response","276","814115","0.0-213.0","CAN_129","129","","","","","","null","<button class=""jspsych-btn""><img src=""stimuli/white_square.png"" style=""width: 200px;height: 200px;""></button>","null","purple","yellow","[""purple"",""yellow"",""high nameability""]","left-right","[""purple"",""yellow"",""high nameability""]","6","high nameability","59","left","iti",""
"html-button-response","277","814641","0.0-214.0","CAN_129","129","","","","","","506","","0","lightred","mustard","[""lightred"",""mustard"",""low nameability""]","left-right","[""lightred"",""mustard"",""low nameability""]","6","low nameability","60","left","trigger",""
"html-button-response","278","815337","0.0-215.0-0.0","CAN_129","129","","","","","","687","<button class=""jspsych-btn""><img src=""stimuli/lightred.png"" style=""width: 200px;height: 200px;""></button>","0","lightred","mustard","[""lightred"",""mustard"",""low nameability""]","left-right","[""lightred"",""mustard"",""low nameability""]","6","low nameability","60","left","response","1"
"html-audio-button-response","279","815542","0.0-215.0-1.0","CAN_129","129","","","","","","null","stimuli/bleep.m4a","null","lightred","mustard","[""lightred"",""mustard"",""low nameability""]","left-right","[""lightred"",""mustard"",""low nameability""]","6","low nameability","60","left","audio_feedback","1"
"html-button-response","280","816060","0.0-216.0","CAN_129","129","","","","","","null","<button class=""jspsych-btn""><img src=""stimuli/white_square.png"" style=""width: 200px;height: 200px;""></button>","null","lightred","mustard","[""lightred"",""mustard"",""low nameability""]","left-right","[""lightred"",""mustard"",""low nameability""]","6","low nameability","60","left","iti",""
