"trial_type","trial_index","time_elapsed","internal_node_id","subject_id","seed","success","timeout","failed_images","failed_audio","failed_video","rt","stimulus","response","target","foil","choices","combination_order","choices_in_order","round","condition","trial_counter","target_location","trial_kind","correct"
"pavlovia","0","19","0.0-0.0","CAN_115","115","","","","","","","","","","","","","","","","","","",""
"preload","1","1757","0.0-1.0","CAN_115","115","true","false","[]","[]","[]","","","","","","","","","","","","","",""
"fullscreen","2","18326","0.0-2.0","CAN_115","115","true","","","","","","","","","","","","","","","","","",""
"html-button-response","3","36516","0.0-3.0","CAN_115","115","","","","","","18176","","0","","","","","","","","","","",""
"html-button-response","4","39248","0.0-4.0","CAN_115","115","","","","","","2718","","0","star","square","[""square"",""star""]","left-right","[""square"",""star""]","1","practice","1","right","trigger",""
"html-button-response","5","42722","0.0-5.0-0.0","CAN_115","115","","","","","","3462","<button class=""jspsych-btn""><img src=""stimuli/star.png"" style=""width: 200px;height: 200px;""></button>","1","star","square","[""square"",""star""]","left-right","[""square"",""star""]","1","practice","1","right","response","1"
"html-audio-button-response","6","42932","0.0-5.0-1.0","CAN_115","115","","","","","","null","stimuli/bleep.m4a","null","star","square","[""square"",""star""]","left-right","[""square"",""star""]","1","practice","1","right","audio_feedback","1"
"html-button-response","7","43450","0.0-6.0","CAN_115","115","","","","","","null","<button class=""jspsych-btn""><img src=""stimuli/white_square.png"" style=""width: 200px;height: 200px;""></button>","null","star","square","[""square"",""star""]","left-right","[""square"",""star""]","1","practice","1","right","iti",""
"html-button-response","8","45802","0.0-7.0","CAN_115","115","","","","","","2335","","0","triangle","pentagram","[""triangle"",""pentagram""]","left-right","[""triangle"",""pentagram""]","1","practice","1","left","trigger",""
"html-button-response","9","47189","0.0-8.0-0.0","CAN_115","115","","","","","","1378","<button class=""jspsych-btn""><img src=""stimuli/triangle.png"" style=""width: 200px;height: 200px;""></button>","0","triangle","pentagram","[""triangle"",""pentagram""]","left-right","[""triangle"",""pentagram""]","1","practice","1","left","response","1"
"html-audio-button-response","10","47396","0.0-8.0-1.0","CAN_115","115","","","","","","null","stimuli/bleep.m4a","null","triangle","pentagram","[""triangle"",""pentagram""]","left-right","[""triangle"",""pentagram""]","1","practice","1","left","audio_feedback","1"
"html-button-response","11","47925","0.0-9.0","CAN_115","115","","","","","","null","<button class=""jspsych-btn""><img src=""stimuli/white_square.png"" style=""width: 200px;height: 200px;""></button>","null","triangle","pentagram","[""triangle"",""pentagram""]","left-right","[""triangle"",""pentagram""]","1","practice","1","left","iti",""
"html-button-response","12","48851","0.0-10.0","CAN_115","115","","","","","","912","","0","diamond","rectangle","[""rectangle"",""diamond""]","left-right","[""rectangle"",""diamond""]","1","practice","1","right","trigger",""
"html-button-response","13","49807","0.0-11.0-0.0","CAN_115","115","","","","","","945","<button class=""jspsych-btn""><img src=""stimuli/diamond.png"" style=""width: 200px;height: 200px;""></button>","1","diamond","rectangle","[""rectangle"",""diamond""]","left-right","[""rectangle"",""diamond""]","1","practice","1","right","response","1"
"html-audio-button-response","14","50015","0.0-11.0-1.0","CAN_115","115","","","","","","null","stimuli/bleep.m4a","null","diamond","rectangle","[""rectangle"",""diamond""]","left-right","[""rectangle"",""diamond""]","1","practice","1","right","audio_feedback","1"
"html-button-response","15","50536","0.0-12.0","CAN_115","115","","","","","","null","<button class=""jspsych-btn""><img src=""stimuli/white_square.png"" style=""width: 200px;height: 200px;""></button>","null","diamond","rectangle","[""rectangle"",""diamond""]","left-right","[""rectangle"",""diamond""]","1","practice","1","right","iti",""
"html-button-response","16","51146","0.0-13.0","CAN_115","115","","","","","","589","","0","pentagram","star","[""pentagram"",""star""]","left-right","[""pentagram"",""star""]","1","practice","1","left","trigger",""
"html-button-response","17","52009","0.0-14.0-0.0","CAN_115","115","","","","","","855","<button class=""jspsych-btn""><img src=""stimuli/pentagram.png"" style=""width: 200px;height: 200px;""></button>","0","pentagram","star","[""pentagram"",""star""]","left-right","[""pentagram"",""star""]","1","practice","1","left","response","1"
"html-audio-button-response","18","52219","0.0-14.0-1.0","CAN_115","115","","","","","","null","stimuli/bleep.m4a","null","pentagram","star","[""pentagram"",""star""]","left-right","[""pentagram"",""star""]","1","practice","1","left","audio_feedback","1"
"html-button-response","19","52743","0.0-15.0","CAN_115","115","","","","","","null","<button class=""jspsych-btn""><img src=""stimuli/white_square.png"" style=""width: 200px;height: 200px;""></button>","null","pentagram","star","[""pentagram"",""star""]","left-right","[""pentagram"",""star""]","1","practice","1","left","iti",""
"html-button-response","20","63188","0.0-16.0","CAN_115","115","","","","","","10433","","0","","","","","","","","","","",""
"html-button-response","21","64028","0.0-17.0","CAN_115","115","","","","","","830","","0","darkgreenblue","mustard","[""darkgreenblue"",""mustard"",""low nameability""]","left-right","[""darkgreenblue"",""mustard"",""low nameability""]","1","low nameability","1","left","trigger",""
"html-button-response","22","64962","0.0-18.0-0.0","CAN_115","115","","","","","","920","<button class=""jspsych-btn""><img src=""stimuli/darkgreenblue.png"" style=""width: 200px;height: 200px;""></button>","0","darkgreenblue","mustard","[""darkgreenblue"",""mustard"",""low nameability""]","left-right","[""darkgreenblue"",""mustard"",""low nameability""]","1","low nameability","1","left","response","1"
"html-audio-button-response","23","65166","0.0-18.0-1.0","CAN_115","115","","","","","","null","stimuli/bleep.m4a","null","darkgreenblue","mustard","[""darkgreenblue"",""mustard"",""low nameability""]","left-right","[""darkgreenblue"",""mustard"",""low nameability""]","1","low nameability","1","left","audio_feedback","1"
"html-button-response","24","65690","0.0-19.0","CAN_115","115","","","","","","null","<button class=""jspsych-btn""><img src=""stimuli/white_square.png"" style=""width: 200px;height: 200px;""></button>","null","darkgreenblue","mustard","[""darkgreenblue"",""mustard"",""low nameability""]","left-right","[""darkgreenblue"",""mustard"",""low nameability""]","1","low nameability","1","left","iti",""
"html-button-response","25","66199","0.0-20.0","CAN_115","115","","","","","","498","","0","orange","purple","[""orange"",""purple"",""high nameability""]","right-left","[""purple"",""orange""]","1","high nameability","2","right","trigger",""
"html-button-response","26","66816","0.0-21.0-0.0","CAN_115","115","","","","","","610","<button class=""jspsych-btn""><img src=""stimuli/orange.png"" style=""width: 200px;height: 200px;""></button>","1","orange","purple","[""orange"",""purple"",""high nameability""]","right-left","[""purple"",""orange""]","1","high nameability","2","right","response","1"
"html-audio-button-response","27","67022","0.0-21.0-1.0","CAN_115","115","","","","","","null","stimuli/bleep.m4a","null","orange","purple","[""orange"",""purple"",""high nameability""]","right-left","[""purple"",""orange""]","1","high nameability","2","right","audio_feedback","1"
"html-button-response","28","67546","0.0-22.0","CAN_115","115","","","","","","null","<button class=""jspsych-btn""><img src=""stimuli/white_square.png"" style=""width: 200px;height: 200px;""></button>","null","orange","purple","[""orange"",""purple"",""high nameability""]","right-left","[""purple"",""orange""]","1","high nameability","2","right","iti",""
"html-button-response","29","67687","0.0-23.0","CAN_115","115","","","","","","125","","0","orange","red","[""orange"",""red"",""high nameability""]","left-right","[""orange"",""red"",""high nameability""]","1","high nameability","3","left","trigger",""
"html-button-response","30","68500","0.0-24.0-0.0","CAN_115","115","","","","","","808","<button class=""jspsych-btn""><img src=""stimuli/orange.png"" style=""width: 200px;height: 200px;""></button>","0","orange","red","[""orange"",""red"",""high nameability""]","left-right","[""orange"",""red"",""high nameability""]","1","high nameability","3","left","response","1"
"html-audio-button-response","31","68707","0.0-24.0-1.0","CAN_115","115","","","","","","null","stimuli/bleep.m4a","null","orange","red","[""orange"",""red"",""high nameability""]","left-right","[""orange"",""red"",""high nameability""]","1","high nameability","3","left","audio_feedback","1"
"html-button-response","32","69230","0.0-25.0","CAN_115","115","","","","","","null","<button class=""jspsych-btn""><img src=""stimuli/white_square.png"" style=""width: 200px;height: 200px;""></button>","null","orange","red","[""orange"",""red"",""high nameability""]","left-right","[""orange"",""red"",""high nameability""]","1","high nameability","3","left","iti",""
"html-button-response","33","69664","0.0-26.0","CAN_115","115","","","","","","414","","0","darkgreenblue","lightred","[""darkgreenblue"",""lightred"",""low nameability""]","right-left","[""lightred"",""darkgreenblue""]","1","low nameability","4","right","trigger",""
"html-button-response","34","70458","0.0-27.0-0.0","CAN_115","115","","","","","","788","<button class=""jspsych-btn""><img src=""stimuli/darkgreenblue.png"" style=""width: 200px;height: 200px;""></button>","1","darkgreenblue","lightred","[""darkgreenblue"",""lightred"",""low nameability""]","right-left","[""lightred"",""darkgreenblue""]","1","low nameability","4","right","response","1"
"html-audio-button-response","35","70664","0.0-27.0-1.0","CAN_115","115","","","","","","null","stimuli/bleep.m4a","null","darkgreenblue","lightred","[""darkgreenblue"",""lightred"",""low nameability""]","right-left","[""lightred"",""darkgreenblue""]","1","low nameability","4","right","audio_feedback","1"
"html-button-response","36","71192","0.0-28.0","CAN_115","115","","","","","","null","<button class=""jspsych-btn""><img src=""stimuli/white_square.png"" style=""width: 200px;height: 200px;""></button>","null","darkgreenblue","lightred","[""darkgreenblue"",""lightred"",""low nameability""]","right-left","[""lightred"",""darkgreenblue""]","1","low nameability","4","right","iti",""
"html-button-response","37","71775","0.0-29.0","CAN_115","115","","","","","","574","","0","mustard","pink","[""mustard"",""pink"",""low nameability""]","left-right","[""mustard"",""pink"",""low nameability""]","1","low nameability","5","left","trigger",""
"html-button-response","38","72549","0.0-30.0-0.0","CAN_115","115","","","","","","766","<button class=""jspsych-btn""><img src=""stimuli/mustard.png"" style=""width: 200px;height: 200px;""></button>","0","mustard","pink","[""mustard"",""pink"",""low nameability""]","left-right","[""mustard"",""pink"",""low nameability""]","1","low nameability","5","left","response","1"
"html-audio-button-response","39","72751","0.0-30.0-1.0","CAN_115","115","","","","","","null","stimuli/bleep.m4a","null","mustard","pink","[""mustard"",""pink"",""low nameability""]","left-right","[""mustard"",""pink"",""low nameability""]","1","low nameability","5","left","audio_feedback","1"
"html-button-response","40","73274","0.0-31.0","CAN_115","115","","","","","","null","<button class=""jspsych-btn""><img src=""stimuli/white_square.png"" style=""width: 200px;height: 200px;""></button>","null","mustard","pink","[""mustard"",""pink"",""low nameability""]","left-right","[""mustard"",""pink"",""low nameability""]","1","low nameability","5","left","iti",""
"html-button-response","41","73707","0.0-32.0","CAN_115","115","","","","","","417","","0","mustard","darkgreenblue","[""mustard"",""darkgreenblue"",""low nameability""]","right-left","[""darkgreenblue"",""mustard""]","1","low nameability","6","right","trigger",""
"html-button-response","42","74211","0.0-33.0-0.0","CAN_115","115","","","","","","496","<button class=""jspsych-btn""><img src=""stimuli/mustard.png"" style=""width: 200px;height: 200px;""></button>","1","mustard","darkgreenblue","[""mustard"",""darkgreenblue"",""low nameability""]","right-left","[""darkgreenblue"",""mustard""]","1","low nameability","6","right","response","1"
"html-audio-button-response","43","74414","0.0-33.0-1.0","CAN_115","115","","","","","","null","stimuli/bleep.m4a","null","mustard","darkgreenblue","[""mustard"",""darkgreenblue"",""low nameability""]","right-left","[""darkgreenblue"",""mustard""]","1","low nameability","6","right","audio_feedback","1"
"html-button-response","44","74935","0.0-34.0","CAN_115","115","","","","","","null","<button class=""jspsych-btn""><img src=""stimuli/white_square.png"" style=""width: 200px;height: 200px;""></button>","null","mustard","darkgreenblue","[""mustard"",""darkgreenblue"",""low nameability""]","right-left","[""darkgreenblue"",""mustard""]","1","low nameability","6","right","iti",""
"html-button-response","45","75393","0.0-35.0","CAN_115","115","","","","","","440","","0","orange","yellow","[""orange"",""yellow"",""high nameability""]","right-left","[""yellow"",""orange""]","1","high nameability","7","right","trigger",""
"html-button-response","46","76207","0.0-36.0-0.0","CAN_115","115","","","","","","805","<button class=""jspsych-btn""><img src=""stimuli/orange.png"" style=""width: 200px;height: 200px;""></button>","1","orange","yellow","[""orange"",""yellow"",""high nameability""]","right-left","[""yellow"",""orange""]","1","high nameability","7","right","response","1"
"html-audio-button-response","47","76423","0.0-36.0-1.0","CAN_115","115","","","","","","null","stimuli/bleep.m4a","null","orange","yellow","[""orange"",""yellow"",""high nameability""]","right-left","[""yellow"",""orange""]","1","high nameability","7","right","audio_feedback","1"
"html-button-response","48","76943","0.0-37.0","CAN_115","115","","","","","","null","<button class=""jspsych-btn""><img src=""stimuli/white_square.png"" style=""width: 200px;height: 200px;""></button>","null","orange","yellow","[""orange"",""yellow"",""high nameability""]","right-left","[""yellow"",""orange""]","1","high nameability","7","right","iti",""
"html-button-response","49","77434","0.0-38.0","CAN_115","115","","","","","","474","","0","brown","red","[""brown"",""red"",""high nameability""]","right-left","[""red"",""brown""]","1","high nameability","8","right","trigger",""
"html-button-response","50","78022","0.0-39.0-0.0","CAN_115","115","","","","","","581","<button class=""jspsych-btn""><img src=""stimuli/brown.png"" style=""width: 200px;height: 200px;""></button>","1","brown","red","[""brown"",""red"",""high nameability""]","right-left","[""red"",""brown""]","1","high nameability","8","right","response","1"
"html-audio-button-response","51","78229","0.0-39.0-1.0","CAN_115","115","","","","","","null","stimuli/bleep.m4a","null","brown","red","[""brown"",""red"",""high nameability""]","right-left","[""red"",""brown""]","1","high nameability","8","right","audio_feedback","1"
"html-button-response","52","78745","0.0-40.0","CAN_115","115","","","","","","null","<button class=""jspsych-btn""><img src=""stimuli/white_square.png"" style=""width: 200px;height: 200px;""></button>","null","brown","red","[""brown"",""red"",""high nameability""]","right-left","[""red"",""brown""]","1","high nameability","8","right","iti",""
"html-button-response","53","79210","0.0-41.0","CAN_115","115","","","","","","447","","0","red","brown","[""red"",""brown"",""high nameability""]","left-right","[""red"",""brown"",""high nameability""]","1","high nameability","9","left","trigger",""
"html-button-response","54","79827","0.0-42.0-0.0","CAN_115","115","","","","","","608","<button class=""jspsych-btn""><img src=""stimuli/red.png"" style=""width: 200px;height: 200px;""></button>","0","red","brown","[""red"",""brown"",""high nameability""]","left-right","[""red"",""brown"",""high nameability""]","1","high nameability","9","left","response","1"
"html-audio-button-response","55","80031","0.0-42.0-1.0","CAN_115","115","","","","","","null","stimuli/bleep.m4a","null","red","brown","[""red"",""brown"",""high nameability""]","left-right","[""red"",""brown"",""high nameability""]","1","high nameability","9","left","audio_feedback","1"
"html-button-response","56","80548","0.0-43.0","CAN_115","115","","","","","","null","<button class=""jspsych-btn""><img src=""stimuli/white_square.png"" style=""width: 200px;height: 200px;""></button>","null","red","brown","[""red"",""brown"",""high nameability""]","left-right","[""red"",""brown"",""high nameability""]","1","high nameability","9","left","iti",""
"html-button-response","57","80979","0.0-44.0","CAN_115","115","","","","","","415","","0","brown","purple","[""brown"",""purple"",""high nameability""]","left-right","[""brown"",""purple"",""high nameability""]","1","high nameability","10","left","trigger",""
"html-button-response","58","81699","0.0-45.0-0.0","CAN_115","115","","","","","","712","<button class=""jspsych-btn""><img src=""stimuli/brown.png"" style=""width: 200px;height: 200px;""></button>","0","brown","purple","[""brown"",""purple"",""high nameability""]","left-right","[""brown"",""purple"",""high nameability""]","1","high nameability","10","left","response","1"
"html-audio-button-response","59","81902","0.0-45.0-1.0","CAN_115","115","","","","","","null","stimuli/bleep.m4a","null","brown","purple","[""brown"",""purple"",""high nameability""]","left-right","[""brown"",""purple"",""high nameability""]","1","high nameability","10","left","audio_feedback","1"
"html-button-response","60","82424","0.0-46.0","CAN_115","115","","","","","","null","<button class=""jspsych-btn""><img src=""stimuli/white_square.png"" style=""width: 200px;height: 200px;""></button>","null","brown","purple","[""brown"",""purple"",""high nameability""]","left-right","[""brown"",""purple"",""high nameability""]","1","high nameability","10","left","iti",""
"pavlovia","61","82548","0.0-47.0","CAN_115","115","","","","","","","","","","","","","","","","","","",""
"pavlovia","62","82557","0.0-48.0","CAN_115","115","","","","","","","","","","","","","","","","","","",""
"html-audio-button-response","63","84786","0.0-49.0","CAN_115","115","","","","","","2352","stimuli/tada.m4a","0","","","","","","","","","","",""
"html-button-response","64","85548","0.0-50.0","CAN_115","115","","","","","","754","","0","","","","","","","","","","",""
"html-button-response","65","86444","0.0-51.0","CAN_115","115","","","","","","889","","0","red","yellow","[""red"",""yellow"",""high nameability""]","left-right","[""red"",""yellow"",""high nameability""]","2","high nameability","11","left","trigger",""
"html-button-response","66","87061","0.0-52.0-0.0","CAN_115","115","","","","","","609","<button class=""jspsych-btn""><img src=""stimuli/red.png"" style=""width: 200px;height: 200px;""></button>","0","red","yellow","[""red"",""yellow"",""high nameability""]","left-right","[""red"",""yellow"",""high nameability""]","2","high nameability","11","left","response","1"
"html-audio-button-response","67","87265","0.0-52.0-1.0","CAN_115","115","","","","","","null","stimuli/bleep.m4a","null","red","yellow","[""red"",""yellow"",""high nameability""]","left-right","[""red"",""yellow"",""high nameability""]","2","high nameability","11","left","audio_feedback","1"
"html-button-response","68","87782","0.0-53.0","CAN_115","115","","","","","","null","<button class=""jspsych-btn""><img src=""stimuli/white_square.png"" style=""width: 200px;height: 200px;""></button>","null","red","yellow","[""red"",""yellow"",""high nameability""]","left-right","[""red"",""yellow"",""high nameability""]","2","high nameability","11","left","iti",""
"html-button-response","69","88249","0.0-54.0","CAN_115","115","","","","","","451","","0","red","orange","[""red"",""orange"",""high nameability""]","left-right","[""red"",""orange"",""high nameability""]","2","high nameability","12","left","trigger",""
"html-button-response","70","88865","0.0-55.0-0.0","CAN_115","115","","","","","","609","<button class=""jspsych-btn""><img src=""stimuli/red.png"" style=""width: 200px;height: 200px;""></button>","0","red","orange","[""red"",""orange"",""high nameability""]","left-right","[""red"",""orange"",""high nameability""]","2","high nameability","12","left","response","1"
"html-audio-button-response","71","89070","0.0-55.0-1.0","CAN_115","115","","","","","","null","stimuli/bleep.m4a","null","red","orange","[""red"",""orange"",""high nameability""]","left-right","[""red"",""orange"",""high nameability""]","2","high nameability","12","left","audio_feedback","1"
"html-button-response","72","89591","0.0-56.0","CAN_115","115","","","","","","null","<button class=""jspsych-btn""><img src=""stimuli/white_square.png"" style=""width: 200px;height: 200px;""></button>","null","red","orange","[""red"",""orange"",""high nameability""]","left-right","[""red"",""orange"",""high nameability""]","2","high nameability","12","left","iti",""
"html-button-response","73","90030","0.0-57.0","CAN_115","115","","","","","","419","","0","yellow","blue","[""yellow"",""blue"",""high nameability""]","left-right","[""yellow"",""blue"",""high nameability""]","2","high nameability","13","left","trigger",""
"html-button-response","74","90645","0.0-58.0-0.0","CAN_115","115","","","","","","609","<button class=""jspsych-btn""><img src=""stimuli/yellow.png"" style=""width: 200px;height: 200px;""></button>","0","yellow","blue","[""yellow"",""blue"",""high nameability""]","left-right","[""yellow"",""blue"",""high nameability""]","2","high nameability","13","left","response","1"
"html-audio-button-response","75","90850","0.0-58.0-1.0","CAN_115","115","","","","","","null","stimuli/bleep.m4a","null","yellow","blue","[""yellow"",""blue"",""high nameability""]","left-right","[""yellow"",""blue"",""high nameability""]","2","high nameability","13","left","audio_feedback","1"
"html-button-response","76","91365","0.0-59.0","CAN_115","115","","","","","","null","<button class=""jspsych-btn""><img src=""stimuli/white_square.png"" style=""width: 200px;height: 200px;""></button>","null","yellow","blue","[""yellow"",""blue"",""high nameability""]","left-right","[""yellow"",""blue"",""high nameability""]","2","high nameability","13","left","iti",""
"html-button-response","77","91897","0.0-60.0","CAN_115","115","","","","","","515","","0","neonyellow","darkgreenblue","[""neonyellow"",""darkgreenblue"",""low nameability""]","left-right","[""neonyellow"",""darkgreenblue"",""low nameability""]","2","low nameability","14","left","trigger",""
"html-button-response","78","92484","0.0-61.0-0.0","CAN_115","115","","","","","","580","<button class=""jspsych-btn""><img src=""stimuli/neonyellow.png"" style=""width: 200px;height: 200px;""></button>","0","neonyellow","darkgreenblue","[""neonyellow"",""darkgreenblue"",""low nameability""]","left-right","[""neonyellow"",""darkgreenblue"",""low nameability""]","2","low nameability","14","left","response","1"
"html-audio-button-response","79","92687","0.0-61.0-1.0","CAN_115","115","","","","","","null","stimuli/bleep.m4a","null","neonyellow","darkgreenblue","[""neonyellow"",""darkgreenblue"",""low nameability""]","left-right","[""neonyellow"",""darkgreenblue"",""low nameability""]","2","low nameability","14","left","audio_feedback","1"
"html-button-response","80","93205","0.0-62.0","CAN_115","115","","","","","","null","<button class=""jspsych-btn""><img src=""stimuli/white_square.png"" style=""width: 200px;height: 200px;""></button>","null","neonyellow","darkgreenblue","[""neonyellow"",""darkgreenblue"",""low nameability""]","left-right","[""neonyellow"",""darkgreenblue"",""low nameability""]","2","low nameability","14","left","iti",""
"html-button-response","81","94034","0.0-63.0","CAN_115","115","","","","","","813","","0","orange","brown","[""orange"",""brown"",""high nameability""]","left-right","[""orange"",""brown"",""high nameability""]","2","high nameability","15","left","trigger",""
"html-button-response","82","94637","0.0-64.0-0.0","CAN_115","115","","","","","","594","<button class=""jspsych-btn""><img src=""stimuli/orange.png"" style=""width: 200px;height: 200px;""></button>","0","orange","brown","[""orange"",""brown"",""high nameability""]","left-right","[""orange"",""brown"",""high nameability""]","2","high nameability","15","left","response","1"
"html-audio-button-response","83","94842","0.0-64.0-1.0","CAN_115","115","","","","","","null","stimuli/bleep.m4a","null","orange","brown","[""orange"",""brown"",""high nameability""]","left-right","[""orange"",""brown"",""high nameability""]","2","high nameability","15","left","audio_feedback","1"
"html-button-response","84","95364","0.0-65.0","CAN_115","115","","","","","","null","<button class=""jspsych-btn""><img src=""stimuli/white_square.png"" style=""width: 200px;height: 200px;""></button>","null","orange","brown","[""orange"",""brown"",""high nameability""]","left-right","[""orange"",""brown"",""high nameability""]","2","high nameability","15","left","iti",""
"html-button-response","85","95752","0.0-66.0","CAN_115","115","","","","","","372","","0","turquoise","mustard","[""turquoise"",""mustard"",""low nameability""]","left-right","[""turquoise"",""mustard"",""low nameability""]","2","low nameability","16","left","trigger",""
"html-button-response","86","96383","0.0-67.0-0.0","CAN_115","115","","","","","","625","<button class=""jspsych-btn""><img src=""stimuli/turquoise.png"" style=""width: 200px;height: 200px;""></button>","0","turquoise","mustard","[""turquoise"",""mustard"",""low nameability""]","left-right","[""turquoise"",""mustard"",""low nameability""]","2","low nameability","16","left","response","1"
"html-audio-button-response","87","96591","0.0-67.0-1.0","CAN_115","115","","","","","","null","stimuli/bleep.m4a","null","turquoise","mustard","[""turquoise"",""mustard"",""low nameability""]","left-right","[""turquoise"",""mustard"",""low nameability""]","2","low nameability","16","left","audio_feedback","1"
"html-button-response","88","97112","0.0-68.0","CAN_115","115","","","","","","null","<button class=""jspsych-btn""><img src=""stimuli/white_square.png"" style=""width: 200px;height: 200px;""></button>","null","turquoise","mustard","[""turquoise"",""mustard"",""low nameability""]","left-right","[""turquoise"",""mustard"",""low nameability""]","2","low nameability","16","left","iti",""
"html-button-response","89","97547","0.0-69.0","CAN_115","115","","","","","","408","","0","darkgreenblue","pink","[""darkgreenblue"",""pink"",""low nameability""]","right-left","[""pink"",""darkgreenblue""]","2","low nameability","17","right","trigger",""
"html-button-response","90","98212","0.0-70.0-0.0","CAN_115","115","","","","","","657","<button class=""jspsych-btn""><img src=""stimuli/darkgreenblue.png"" style=""width: 200px;height: 200px;""></button>","1","darkgreenblue","pink","[""darkgreenblue"",""pink"",""low nameability""]","right-left","[""pink"",""darkgreenblue""]","2","low nameability","17","right","response","1"
"html-audio-button-response","91","98414","0.0-70.0-1.0","CAN_115","115","","","","","","null","stimuli/bleep.m4a","null","darkgreenblue","pink","[""darkgreenblue"",""pink"",""low nameability""]","right-left","[""pink"",""darkgreenblue""]","2","low nameability","17","right","audio_feedback","1"
"html-button-response","92","98929","0.0-71.0","CAN_115","115","","","","","","null","<button class=""jspsych-btn""><img src=""stimuli/white_square.png"" style=""width: 200px;height: 200px;""></button>","null","darkgreenblue","pink","[""darkgreenblue"",""pink"",""low nameability""]","right-left","[""pink"",""darkgreenblue""]","2","low nameability","17","right","iti",""
"html-button-response","93","99363","0.0-72.0","CAN_115","115","","","","","","417","","0","darkgreenblue","neonyellow","[""darkgreenblue"",""neonyellow"",""low nameability""]","left-right","[""darkgreenblue"",""neonyellow"",""low nameability""]","2","low nameability","18","left","trigger",""
"html-button-response","94","99956","0.0-73.0-0.0","CAN_115","115","","","","","","585","<button class=""jspsych-btn""><img src=""stimuli/darkgreenblue.png"" style=""width: 200px;height: 200px;""></button>","0","darkgreenblue","neonyellow","[""darkgreenblue"",""neonyellow"",""low nameability""]","left-right","[""darkgreenblue"",""neonyellow"",""low nameability""]","2","low nameability","18","left","response","1"
"html-audio-button-response","95","100159","0.0-73.0-1.0","CAN_115","115","","","","","","null","stimuli/bleep.m4a","null","darkgreenblue","neonyellow","[""darkgreenblue"",""neonyellow"",""low nameability""]","left-right","[""darkgreenblue"",""neonyellow"",""low nameability""]","2","low nameability","18","left","audio_feedback","1"
"html-button-response","96","100688","0.0-74.0","CAN_115","115","","","","","","null","<button class=""jspsych-btn""><img src=""stimuli/white_square.png"" style=""width: 200px;height: 200px;""></button>","null","darkgreenblue","neonyellow","[""darkgreenblue"",""neonyellow"",""low nameability""]","left-right","[""darkgreenblue"",""neonyellow"",""low nameability""]","2","low nameability","18","left","iti",""
"html-button-response","97","101301","0.0-75.0","CAN_115","115","","","","","","594","","0","orange","blue","[""orange"",""blue"",""high nameability""]","right-left","[""blue"",""orange""]","2","high nameability","19","right","trigger",""
"html-button-response","98","102039","0.0-76.0-0.0","CAN_115","115","","","","","","731","<button class=""jspsych-btn""><img src=""stimuli/orange.png"" style=""width: 200px;height: 200px;""></button>","1","orange","blue","[""orange"",""blue"",""high nameability""]","right-left","[""blue"",""orange""]","2","high nameability","19","right","response","1"
"html-audio-button-response","99","102244","0.0-76.0-1.0","CAN_115","115","","","","","","null","stimuli/bleep.m4a","null","orange","blue","[""orange"",""blue"",""high nameability""]","right-left","[""blue"",""orange""]","2","high nameability","19","right","audio_feedback","1"
"html-button-response","100","102769","0.0-77.0","CAN_115","115","","","","","","null","<button class=""jspsych-btn""><img src=""stimuli/white_square.png"" style=""width: 200px;height: 200px;""></button>","null","orange","blue","[""orange"",""blue"",""high nameability""]","right-left","[""blue"",""orange""]","2","high nameability","19","right","iti",""
"html-button-response","101","103227","0.0-78.0","CAN_115","115","","","","","","437","","0","purple","yellow","[""purple"",""yellow"",""high nameability""]","left-right","[""purple"",""yellow"",""high nameability""]","2","high nameability","20","left","trigger",""
"html-button-response","102","103848","0.0-79.0-0.0","CAN_115","115","","","","","","615","<button class=""jspsych-btn""><img src=""stimuli/purple.png"" style=""width: 200px;height: 200px;""></button>","0","purple","yellow","[""purple"",""yellow"",""high nameability""]","left-right","[""purple"",""yellow"",""high nameability""]","2","high nameability","20","left","response","1"
"html-audio-button-response","103","104051","0.0-79.0-1.0","CAN_115","115","","","","","","null","stimuli/bleep.m4a","null","purple","yellow","[""purple"",""yellow"",""high nameability""]","left-right","[""purple"",""yellow"",""high nameability""]","2","high nameability","20","left","audio_feedback","1"
"html-button-response","104","104570","0.0-80.0","CAN_115","115","","","","","","null","<button class=""jspsych-btn""><img src=""stimuli/white_square.png"" style=""width: 200px;height: 200px;""></button>","null","purple","yellow","[""purple"",""yellow"",""high nameability""]","left-right","[""purple"",""yellow"",""high nameability""]","2","high nameability","20","left","iti",""
"pavlovia","105","104637","0.0-81.0","CAN_115","115","","","","","","","","","","","","","","","","","","",""
"pavlovia","106","104648","0.0-82.0","CAN_115","115","","","","","","","","","","","","","","","","","","",""
"html-audio-button-response","107","107556","0.0-83.0","CAN_115","115","","","","","","2987","stimuli/tada.m4a","0","","","","","","","","","","",""
"html-button-response","108","108315","0.0-84.0","CAN_115","115","","","","","","754","","0","","","","","","","","","","",""
"html-button-response","109","109156","0.0-85.0","CAN_115","115","","","","","","833","","0","blue","orange","[""blue"",""orange"",""high nameability""]","right-left","[""orange"",""blue""]","3","high nameability","21","right","trigger",""
"html-button-response","110","109883","0.0-86.0-0.0","CAN_115","115","","","","","","719","<button class=""jspsych-btn""><img src=""stimuli/blue.png"" style=""width: 200px;height: 200px;""></button>","1","blue","orange","[""blue"",""orange"",""high nameability""]","right-left","[""orange"",""blue""]","3","high nameability","21","right","response","1"
"html-audio-button-response","111","110082","0.0-86.0-1.0","CAN_115","115","","","","","","null","stimuli/bleep.m4a","null","blue","orange","[""blue"",""orange"",""high nameability""]","right-left","[""orange"",""blue""]","3","high nameability","21","right","audio_feedback","1"
"html-button-response","112","110597","0.0-87.0","CAN_115","115","","","","","","null","<button class=""jspsych-btn""><img src=""stimuli/white_square.png"" style=""width: 200px;height: 200px;""></button>","null","blue","orange","[""blue"",""orange"",""high nameability""]","right-left","[""orange"",""blue""]","3","high nameability","21","right","iti",""
"html-button-response","113","111179","0.0-88.0","CAN_115","115","","","","","","563","","0","purple","brown","[""purple"",""brown"",""high nameability""]","left-right","[""purple"",""brown"",""high nameability""]","3","high nameability","22","left","trigger",""
"html-button-response","114","112741","0.0-89.0-0.0","CAN_115","115","","","","","","1554","<button class=""jspsych-btn""><img src=""stimuli/purple.png"" style=""width: 200px;height: 200px;""></button>","0","purple","brown","[""purple"",""brown"",""high nameability""]","left-right","[""purple"",""brown"",""high nameability""]","3","high nameability","22","left","response","1"
"html-audio-button-response","115","112942","0.0-89.0-1.0","CAN_115","115","","","","","","null","stimuli/bleep.m4a","null","purple","brown","[""purple"",""brown"",""high nameability""]","left-right","[""purple"",""brown"",""high nameability""]","3","high nameability","22","left","audio_feedback","1"
"html-button-response","116","113461","0.0-90.0","CAN_115","115","","","","","","null","<button class=""jspsych-btn""><img src=""stimuli/white_square.png"" style=""width: 200px;height: 200px;""></button>","null","purple","brown","[""purple"",""brown"",""high nameability""]","left-right","[""purple"",""brown"",""high nameability""]","3","high nameability","22","left","iti",""
"html-button-response","117","113927","0.0-91.0","CAN_115","115","","","","","","441","","0","blue","brown","[""blue"",""brown"",""high nameability""]","right-left","[""brown"",""blue""]","3","high nameability","23","right","trigger",""
"html-button-response","118","114584","0.0-92.0-0.0","CAN_115","115","","","","","","651","<button class=""jspsych-btn""><img src=""stimuli/blue.png"" style=""width: 200px;height: 200px;""></button>","1","blue","brown","[""blue"",""brown"",""high nameability""]","right-left","[""brown"",""blue""]","3","high nameability","23","right","response","1"
"html-audio-button-response","119","114793","0.0-92.0-1.0","CAN_115","115","","","","","","null","stimuli/bleep.m4a","null","blue","brown","[""blue"",""brown"",""high nameability""]","right-left","[""brown"",""blue""]","3","high nameability","23","right","audio_feedback","1"
"html-button-response","120","115311","0.0-93.0","CAN_115","115","","","","","","null","<button class=""jspsych-btn""><img src=""stimuli/white_square.png"" style=""width: 200px;height: 200px;""></button>","null","blue","brown","[""blue"",""brown"",""high nameability""]","right-left","[""brown"",""blue""]","3","high nameability","23","right","iti",""
"html-button-response","121","115705","0.0-94.0","CAN_115","115","","","","","","377","","0","turquoise","lightred","[""turquoise"",""lightred"",""low nameability""]","right-left","[""lightred"",""turquoise""]","3","low nameability","24","right","trigger",""
"html-button-response","122","116342","0.0-95.0-0.0","CAN_115","115","","","","","","629","<button class=""jspsych-btn""><img src=""stimuli/turquoise.png"" style=""width: 200px;height: 200px;""></button>","1","turquoise","lightred","[""turquoise"",""lightred"",""low nameability""]","right-left","[""lightred"",""turquoise""]","3","low nameability","24","right","response","1"
"html-audio-button-response","123","116545","0.0-95.0-1.0","CAN_115","115","","","","","","null","stimuli/bleep.m4a","null","turquoise","lightred","[""turquoise"",""lightred"",""low nameability""]","right-left","[""lightred"",""turquoise""]","3","low nameability","24","right","audio_feedback","1"
"html-button-response","124","117066","0.0-96.0","CAN_115","115","","","","","","null","<button class=""jspsych-btn""><img src=""stimuli/white_square.png"" style=""width: 200px;height: 200px;""></button>","null","turquoise","lightred","[""turquoise"",""lightred"",""low nameability""]","right-left","[""lightred"",""turquoise""]","3","low nameability","24","right","iti",""
"html-button-response","125","117469","0.0-97.0","CAN_115","115","","","","","","383","","0","blue","purple","[""blue"",""purple"",""high nameability""]","left-right","[""blue"",""purple"",""high nameability""]","3","high nameability","25","left","trigger",""
"html-button-response","126","118097","0.0-98.0-0.0","CAN_115","115","","","","","","621","<button class=""jspsych-btn""><img src=""stimuli/blue.png"" style=""width: 200px;height: 200px;""></button>","0","blue","purple","[""blue"",""purple"",""high nameability""]","left-right","[""blue"",""purple"",""high nameability""]","3","high nameability","25","left","response","1"
"html-audio-button-response","127","118299","0.0-98.0-1.0","CAN_115","115","","","","","","null","stimuli/bleep.m4a","null","blue","purple","[""blue"",""purple"",""high nameability""]","left-right","[""blue"",""purple"",""high nameability""]","3","high nameability","25","left","audio_feedback","1"
"html-button-response","128","118823","0.0-99.0","CAN_115","115","","","","","","null","<button class=""jspsych-btn""><img src=""stimuli/white_square.png"" style=""width: 200px;height: 200px;""></button>","null","blue","purple","[""blue"",""purple"",""high nameability""]","left-right","[""blue"",""purple"",""high nameability""]","3","high nameability","25","left","iti",""
"html-button-response","129","119296","0.0-100.0","CAN_115","115","","","","","","460","","0","pink","mustard","[""pink"",""mustard"",""low nameability""]","left-right","[""pink"",""mustard"",""low nameability""]","3","low nameability","26","left","trigger",""
"html-button-response","130","119875","0.0-101.0-0.0","CAN_115","115","","","","","","568","<button class=""jspsych-btn""><img src=""stimuli/pink.png"" style=""width: 200px;height: 200px;""></button>","0","pink","mustard","[""pink"",""mustard"",""low nameability""]","left-right","[""pink"",""mustard"",""low nameability""]","3","low nameability","26","left","response","1"
"html-audio-button-response","131","120079","0.0-101.0-1.0","CAN_115","115","","","","","","null","stimuli/bleep.m4a","null","pink","mustard","[""pink"",""mustard"",""low nameability""]","left-right","[""pink"",""mustard"",""low nameability""]","3","low nameability","26","left","audio_feedback","1"
"html-button-response","132","120600","0.0-102.0","CAN_115","115","","","","","","null","<button class=""jspsych-btn""><img src=""stimuli/white_square.png"" style=""width: 200px;height: 200px;""></button>","null","pink","mustard","[""pink"",""mustard"",""low nameability""]","left-right","[""pink"",""mustard"",""low nameability""]","3","low nameability","26","left","iti",""
"html-button-response","133","120982","0.0-103.0","CAN_115","115","","","","","","365","","0","neonyellow","turquoise","[""neonyellow"",""turquoise"",""low nameability""]","right-left","[""turquoise"",""neonyellow""]","3","low nameability","27","right","trigger",""
"html-button-response","134","121694","0.0-104.0-0.0","CAN_115","115","","","","","","704","<button class=""jspsych-btn""><img src=""stimuli/neonyellow.png"" style=""width: 200px;height: 200px;""></button>","1","neonyellow","turquoise","[""neonyellow"",""turquoise"",""low nameability""]","right-left","[""turquoise"",""neonyellow""]","3","low nameability","27","right","response","1"
"html-audio-button-response","135","121898","0.0-104.0-1.0","CAN_115","115","","","","","","null","stimuli/bleep.m4a","null","neonyellow","turquoise","[""neonyellow"",""turquoise"",""low nameability""]","right-left","[""turquoise"",""neonyellow""]","3","low nameability","27","right","audio_feedback","1"
"html-button-response","136","122415","0.0-105.0","CAN_115","115","","","","","","null","<button class=""jspsych-btn""><img src=""stimuli/white_square.png"" style=""width: 200px;height: 200px;""></button>","null","neonyellow","turquoise","[""neonyellow"",""turquoise"",""low nameability""]","right-left","[""turquoise"",""neonyellow""]","3","low nameability","27","right","iti",""
"html-button-response","137","123559","0.0-106.0","CAN_115","115","","","","","","1126","","0","pink","darkgreenblue","[""pink"",""darkgreenblue"",""low nameability""]","left-right","[""pink"",""darkgreenblue"",""low nameability""]","3","low nameability","28","left","trigger",""
"html-button-response","138","124224","0.0-107.0-0.0","CAN_115","115","","","","","","657","<button class=""jspsych-btn""><img src=""stimuli/pink.png"" style=""width: 200px;height: 200px;""></button>","0","pink","darkgreenblue","[""pink"",""darkgreenblue"",""low nameability""]","left-right","[""pink"",""darkgreenblue"",""low nameability""]","3","low nameability","28","left","response","1"
"html-audio-button-response","139","124431","0.0-107.0-1.0","CAN_115","115","","","","","","null","stimuli/bleep.m4a","null","pink","darkgreenblue","[""pink"",""darkgreenblue"",""low nameability""]","left-right","[""pink"",""darkgreenblue"",""low nameability""]","3","low nameability","28","left","audio_feedback","1"
"html-button-response","140","124954","0.0-108.0","CAN_115","115","","","","","","null","<button class=""jspsych-btn""><img src=""stimuli/white_square.png"" style=""width: 200px;height: 200px;""></button>","null","pink","darkgreenblue","[""pink"",""darkgreenblue"",""low nameability""]","left-right","[""pink"",""darkgreenblue"",""low nameability""]","3","low nameability","28","left","iti",""
"html-button-response","141","125193","0.0-109.0","CAN_115","115","","","","","","213","","0","turquoise","neonyellow","[""turquoise"",""neonyellow"",""low nameability""]","right-left","[""neonyellow"",""turquoise""]","3","low nameability","29","right","trigger",""
"html-button-response","142","125977","0.0-110.0-0.0","CAN_115","115","","","","","","774","<button class=""jspsych-btn""><img src=""stimuli/turquoise.png"" style=""width: 200px;height: 200px;""></button>","1","turquoise","neonyellow","[""turquoise"",""neonyellow"",""low nameability""]","right-left","[""neonyellow"",""turquoise""]","3","low nameability","29","right","response","1"
"html-audio-button-response","143","126179","0.0-110.0-1.0","CAN_115","115","","","","","","null","stimuli/bleep.m4a","null","turquoise","neonyellow","[""turquoise"",""neonyellow"",""low nameability""]","right-left","[""neonyellow"",""turquoise""]","3","low nameability","29","right","audio_feedback","1"
"html-button-response","144","126705","0.0-111.0","CAN_115","115","","","","","","null","<button class=""jspsych-btn""><img src=""stimuli/white_square.png"" style=""width: 200px;height: 200px;""></button>","null","turquoise","neonyellow","[""turquoise"",""neonyellow"",""low nameability""]","right-left","[""neonyellow"",""turquoise""]","3","low nameability","29","right","iti",""
"html-button-response","145","127913","0.0-112.0","CAN_115","115","","","","","","1190","","0","lightred","mustard","[""lightred"",""mustard"",""low nameability""]","left-right","[""lightred"",""mustard"",""low nameability""]","3","low nameability","30","left","trigger",""
"html-button-response","146","129134","0.0-113.0-0.0","CAN_115","115","","","","","","1213","<button class=""jspsych-btn""><img src=""stimuli/lightred.png"" style=""width: 200px;height: 200px;""></button>","0","lightred","mustard","[""lightred"",""mustard"",""low nameability""]","left-right","[""lightred"",""mustard"",""low nameability""]","3","low nameability","30","left","response","1"
"html-audio-button-response","147","129338","0.0-113.0-1.0","CAN_115","115","","","","","","null","stimuli/bleep.m4a","null","lightred","mustard","[""lightred"",""mustard"",""low nameability""]","left-right","[""lightred"",""mustard"",""low nameability""]","3","low nameability","30","left","audio_feedback","1"
"html-button-response","148","129862","0.0-114.0","CAN_115","115","","","","","","null","<button class=""jspsych-btn""><img src=""stimuli/white_square.png"" style=""width: 200px;height: 200px;""></button>","null","lightred","mustard","[""lightred"",""mustard"",""low nameability""]","left-right","[""lightred"",""mustard"",""low nameability""]","3","low nameability","30","left","iti",""
"pavlovia","149","129937","0.0-115.0","CAN_115","115","","","","","","","","","","","","","","","","","","",""
"pavlovia","150","129951","0.0-116.0","CAN_115","115","","","","","","","","","","","","","","","","","","",""
"html-audio-button-response","151","131544","0.0-117.0","CAN_115","115","","","","","","1688","stimuli/tada.m4a","0","","","","","","","","","","",""
"html-button-response","152","132171","0.0-118.0","CAN_115","115","","","","","","621","","0","","","","","","","","","","",""
"html-button-response","153","133034","0.0-119.0","CAN_115","115","","","","","","856","","0","pink","neonyellow","[""pink"",""neonyellow"",""low nameability""]","left-right","[""pink"",""neonyellow"",""low nameability""]","4","low nameability","31","left","trigger",""
"html-button-response","154","133643","0.0-120.0-0.0","CAN_115","115","","","","","","599","<button class=""jspsych-btn""><img src=""stimuli/pink.png"" style=""width: 200px;height: 200px;""></button>","0","pink","neonyellow","[""pink"",""neonyellow"",""low nameability""]","left-right","[""pink"",""neonyellow"",""low nameability""]","4","low nameability","31","left","response","1"
"html-audio-button-response","155","133847","0.0-120.0-1.0","CAN_115","115","","","","","","null","stimuli/bleep.m4a","null","pink","neonyellow","[""pink"",""neonyellow"",""low nameability""]","left-right","[""pink"",""neonyellow"",""low nameability""]","4","low nameability","31","left","audio_feedback","1"
"html-button-response","156","134364","0.0-121.0","CAN_115","115","","","","","","null","<button class=""jspsych-btn""><img src=""stimuli/white_square.png"" style=""width: 200px;height: 200px;""></button>","null","pink","neonyellow","[""pink"",""neonyellow"",""low nameability""]","left-right","[""pink"",""neonyellow"",""low nameability""]","4","low nameability","31","left","iti",""
"html-button-response","157","134794","0.0-122.0","CAN_115","115","","","","","","414","","0","yellow","orange","[""yellow"",""orange"",""high nameability""]","left-right","[""yellow"",""orange"",""high nameability""]","4","high nameability","32","left","trigger",""
"html-button-response","158","135399","0.0-123.0-0.0","CAN_115","115","","","","","","595","<button class=""jspsych-btn""><img src=""stimuli/yellow.png"" style=""width: 200px;height: 200px;""></button>","0","yellow","orange","[""yellow"",""orange"",""high nameability""]","left-right","[""yellow"",""orange"",""high nameability""]","4","high nameability","32","left","response","1"
"html-audio-button-response","159","135602","0.0-123.0-1.0","CAN_115","115","","","","","","null","stimuli/bleep.m4a","null","yellow","orange","[""yellow"",""orange"",""high nameability""]","left-right","[""yellow"",""orange"",""high nameability""]","4","high nameability","32","left","audio_feedback","1"
"html-button-response","160","136121","0.0-124.0","CAN_115","115","","","","","","null","<button class=""jspsych-btn""><img src=""stimuli/white_square.png"" style=""width: 200px;height: 200px;""></button>","null","yellow","orange","[""yellow"",""orange"",""high nameability""]","left-right","[""yellow"",""orange"",""high nameability""]","4","high nameability","32","left","iti",""
"html-button-response","161","136537","0.0-125.0","CAN_115","115","","","","","","393","","0","mustard","neonyellow","[""mustard"",""neonyellow"",""low nameability""]","left-right","[""mustard"",""neonyellow"",""low nameability""]","4","low nameability","33","left","trigger",""
"html-button-response","162","137156","0.0-126.0-0.0","CAN_115","115","","","","","","609","<button class=""jspsych-btn""><img src=""stimuli/mustard.png"" style=""width: 200px;height: 200px;""></button>","0","mustard","neonyellow","[""mustard"",""neonyellow"",""low nameability""]","left-right","[""mustard"",""neonyellow"",""low nameability""]","4","low nameability","33","left","response","1"
"html-audio-button-response","163","137358","0.0-126.0-1.0","CAN_115","115","","","","","","null","stimuli/bleep.m4a","null","mustard","neonyellow","[""mustard"",""neonyellow"",""low nameability""]","left-right","[""mustard"",""neonyellow"",""low nameability""]","4","low nameability","33","left","audio_feedback","1"
"html-button-response","164","137878","0.0-127.0","CAN_115","115","","","","","","null","<button class=""jspsych-btn""><img src=""stimuli/white_square.png"" style=""width: 200px;height: 200px;""></button>","null","mustard","neonyellow","[""mustard"",""neonyellow"",""low nameability""]","left-right","[""mustard"",""neonyellow"",""low nameability""]","4","low nameability","33","left","iti",""
"html-button-response","165","138320","0.0-128.0","CAN_115","115","","","","","","424","","0","brown","blue","[""brown"",""blue"",""high nameability""]","left-right","[""brown"",""blue"",""high nameability""]","4","high nameability","34","left","trigger",""
"html-button-response","166","138888","0.0-129.0-0.0","CAN_115","115","","","","","","560","<button class=""jspsych-btn""><img src=""stimuli/brown.png"" style=""width: 200px;height: 200px;""></button>","0","brown","blue","[""brown"",""blue"",""high nameability""]","left-right","[""brown"",""blue"",""high nameability""]","4","high nameability","34","left","response","1"
"html-audio-button-response","167","139092","0.0-129.0-1.0","CAN_115","115","","","","","","null","stimuli/bleep.m4a","null","brown","blue","[""brown"",""blue"",""high nameability""]","left-right","[""brown"",""blue"",""high nameability""]","4","high nameability","34","left","audio_feedback","1"
"html-button-response","168","139617","0.0-130.0","CAN_115","115","","","","","","null","<button class=""jspsych-btn""><img src=""stimuli/white_square.png"" style=""width: 200px;height: 200px;""></button>","null","brown","blue","[""brown"",""blue"",""high nameability""]","left-right","[""brown"",""blue"",""high nameability""]","4","high nameability","34","left","iti",""
"html-button-response","169","140010","0.0-131.0","CAN_115","115","","","","","","376","","0","neonyellow","lightred","[""neonyellow"",""lightred"",""low nameability""]","right-left","[""lightred"",""neonyellow""]","4","low nameability","35","right","trigger",""
"html-button-response","170","140752","0.0-132.0-0.0","CAN_115","115","","","","","","736","<button class=""jspsych-btn""><img src=""stimuli/neonyellow.png"" style=""width: 200px;height: 200px;""></button>","1","neonyellow","lightred","[""neonyellow"",""lightred"",""low nameability""]","right-left","[""lightred"",""neonyellow""]","4","low nameability","35","right","response","1"
"html-audio-button-response","171","140958","0.0-132.0-1.0","CAN_115","115","","","","","","null","stimuli/bleep.m4a","null","neonyellow","lightred","[""neonyellow"",""lightred"",""low nameability""]","right-left","[""lightred"",""neonyellow""]","4","low nameability","35","right","audio_feedback","1"
"html-button-response","172","141488","0.0-133.0","CAN_115","115","","","","","","null","<button class=""jspsych-btn""><img src=""stimuli/white_square.png"" style=""width: 200px;height: 200px;""></button>","null","neonyellow","lightred","[""neonyellow"",""lightred"",""low nameability""]","right-left","[""lightred"",""neonyellow""]","4","low nameability","35","right","iti",""
"html-button-response","173","141917","0.0-134.0","CAN_115","115","","","","","","405","","0","yellow","red","[""yellow"",""red"",""high nameability""]","left-right","[""yellow"",""red"",""high nameability""]","4","high nameability","36","left","trigger",""
"html-button-response","174","142568","0.0-135.0-0.0","CAN_115","115","","","","","","644","<button class=""jspsych-btn""><img src=""stimuli/yellow.png"" style=""width: 200px;height: 200px;""></button>","0","yellow","red","[""yellow"",""red"",""high nameability""]","left-right","[""yellow"",""red"",""high nameability""]","4","high nameability","36","left","response","1"
"html-audio-button-response","175","142770","0.0-135.0-1.0","CAN_115","115","","","","","","null","stimuli/bleep.m4a","null","yellow","red","[""yellow"",""red"",""high nameability""]","left-right","[""yellow"",""red"",""high nameability""]","4","high nameability","36","left","audio_feedback","1"
"html-button-response","176","143286","0.0-136.0","CAN_115","115","","","","","","null","<button class=""jspsych-btn""><img src=""stimuli/white_square.png"" style=""width: 200px;height: 200px;""></button>","null","yellow","red","[""yellow"",""red"",""high nameability""]","left-right","[""yellow"",""red"",""high nameability""]","4","high nameability","36","left","iti",""
"html-button-response","177","143688","0.0-137.0","CAN_115","115","","","","","","373","","0","mustard","lightred","[""mustard"",""lightred"",""low nameability""]","right-left","[""lightred"",""mustard""]","4","low nameability","37","right","trigger",""
"html-button-response","178","144301","0.0-138.0-0.0","CAN_115","115","","","","","","604","<button class=""jspsych-btn""><img src=""stimuli/mustard.png"" style=""width: 200px;height: 200px;""></button>","1","mustard","lightred","[""mustard"",""lightred"",""low nameability""]","right-left","[""lightred"",""mustard""]","4","low nameability","37","right","response","1"
"html-audio-button-response","179","144504","0.0-138.0-1.0","CAN_115","115","","","","","","null","stimuli/bleep.m4a","null","mustard","lightred","[""mustard"",""lightred"",""low nameability""]","right-left","[""lightred"",""mustard""]","4","low nameability","37","right","audio_feedback","1"
"html-button-response","180","145027","0.0-139.0","CAN_115","115","","","","","","null","<button class=""jspsych-btn""><img src=""stimuli/white_square.png"" style=""width: 200px;height: 200px;""></button>","null","mustard","lightred","[""mustard"",""lightred"",""low nameability""]","right-left","[""lightred"",""mustard""]","4","low nameability","37","right","iti",""
"html-button-response","181","146357","0.0-140.0","CAN_115","115","","","","","","1301","","0","brown","yellow","[""brown"",""yellow"",""high nameability""]","right-left","[""yellow"",""brown""]","4","high nameability","38","right","trigger",""
"html-button-response","182","146922","0.0-141.0-0.0","CAN_115","115","","","","","","547","<button class=""jspsych-btn""><img src=""stimuli/brown.png"" style=""width: 200px;height: 200px;""></button>","1","brown","yellow","[""brown"",""yellow"",""high nameability""]","right-left","[""yellow"",""brown""]","4","high nameability","38","right","response","1"
"html-audio-button-response","183","147125","0.0-141.0-1.0","CAN_115","115","","","","","","null","stimuli/bleep.m4a","null","brown","yellow","[""brown"",""yellow"",""high nameability""]","right-left","[""yellow"",""brown""]","4","high nameability","38","right","audio_feedback","1"
"html-button-response","184","147644","0.0-142.0","CAN_115","115","","","","","","null","<button class=""jspsych-btn""><img src=""stimuli/white_square.png"" style=""width: 200px;height: 200px;""></button>","null","brown","yellow","[""brown"",""yellow"",""high nameability""]","right-left","[""yellow"",""brown""]","4","high nameability","38","right","iti",""
"html-button-response","185","148075","0.0-143.0","CAN_115","115","","","","","","412","","0","mustard","turquoise","[""mustard"",""turquoise"",""low nameability""]","left-right","[""mustard"",""turquoise"",""low nameability""]","4","low nameability","39","left","trigger",""
"html-button-response","186","148668","0.0-144.0-0.0","CAN_115","115","","","","","","586","<button class=""jspsych-btn""><img src=""stimuli/mustard.png"" style=""width: 200px;height: 200px;""></button>","0","mustard","turquoise","[""mustard"",""turquoise"",""low nameability""]","left-right","[""mustard"",""turquoise"",""low nameability""]","4","low nameability","39","left","response","1"
"html-audio-button-response","187","148870","0.0-144.0-1.0","CAN_115","115","","","","","","null","stimuli/bleep.m4a","null","mustard","turquoise","[""mustard"",""turquoise"",""low nameability""]","left-right","[""mustard"",""turquoise"",""low nameability""]","4","low nameability","39","left","audio_feedback","1"
"html-button-response","188","149393","0.0-145.0","CAN_115","115","","","","","","null","<button class=""jspsych-btn""><img src=""stimuli/white_square.png"" style=""width: 200px;height: 200px;""></button>","null","mustard","turquoise","[""mustard"",""turquoise"",""low nameability""]","left-right","[""mustard"",""turquoise"",""low nameability""]","4","low nameability","39","left","iti",""
"html-button-response","189","149821","0.0-146.0","CAN_115","115","","","","","","408","","0","purple","blue","[""purple"",""blue"",""high nameability""]","right-left","[""blue"",""purple""]","4","high nameability","40","right","trigger",""
"html-button-response","190","150602","0.0-147.0-0.0","CAN_115","115","","","","","","773","<button class=""jspsych-btn""><img src=""stimuli/purple.png"" style=""width: 200px;height: 200px;""></button>","1","purple","blue","[""purple"",""blue"",""high nameability""]","right-left","[""blue"",""purple""]","4","high nameability","40","right","response","1"
"html-audio-button-response","191","150804","0.0-147.0-1.0","CAN_115","115","","","","","","null","stimuli/bleep.m4a","null","purple","blue","[""purple"",""blue"",""high nameability""]","right-left","[""blue"",""purple""]","4","high nameability","40","right","audio_feedback","1"
"html-button-response","192","151318","0.0-148.0","CAN_115","115","","","","","","null","<button class=""jspsych-btn""><img src=""stimuli/white_square.png"" style=""width: 200px;height: 200px;""></button>","null","purple","blue","[""purple"",""blue"",""high nameability""]","right-left","[""blue"",""purple""]","4","high nameability","40","right","iti",""
"pavlovia","193","151391","0.0-149.0","CAN_115","115","","","","","","","","","","","","","","","","","","",""
"pavlovia","194","151397","0.0-150.0","CAN_115","115","","","","","","","","","","","","","","","","","","",""
"html-audio-button-response","195","152969","0.0-151.0","CAN_115","115","","","","","","1653","stimuli/tada.m4a","0","","","","","","","","","","",""
"html-button-response","196","153571","0.0-152.0","CAN_115","115","","","","","","595","","0","","","","","","","","","","",""
"html-button-response","197","154563","0.0-153.0","CAN_115","115","","","","","","984","","0","brown","orange","[""brown"",""orange"",""high nameability""]","right-left","[""orange"",""brown""]","5","high nameability","41","right","trigger",""
"html-button-response","198","155189","0.0-154.0-0.0","CAN_115","115","","","","","","618","<button class=""jspsych-btn""><img src=""stimuli/brown.png"" style=""width: 200px;height: 200px;""></button>","1","brown","orange","[""brown"",""orange"",""high nameability""]","right-left","[""orange"",""brown""]","5","high nameability","41","right","response","1"
"html-audio-button-response","199","155390","0.0-154.0-1.0","CAN_115","115","","","","","","null","stimuli/bleep.m4a","null","brown","orange","[""brown"",""orange"",""high nameability""]","right-left","[""orange"",""brown""]","5","high nameability","41","right","audio_feedback","1"
"html-button-response","200","155908","0.0-155.0","CAN_115","115","","","","","","null","<button class=""jspsych-btn""><img src=""stimuli/white_square.png"" style=""width: 200px;height: 200px;""></button>","null","brown","orange","[""brown"",""orange"",""high nameability""]","right-left","[""orange"",""brown""]","5","high nameability","41","right","iti",""
"html-button-response","201","156378","0.0-156.0","CAN_115","115","","","","","","437","","0","purple","orange","[""purple"",""orange"",""high nameability""]","right-left","[""orange"",""purple""]","5","high nameability","42","right","trigger",""
"html-button-response","202","156924","0.0-157.0-0.0","CAN_115","115","","","","","","533","<button class=""jspsych-btn""><img src=""stimuli/purple.png"" style=""width: 200px;height: 200px;""></button>","1","purple","orange","[""purple"",""orange"",""high nameability""]","right-left","[""orange"",""purple""]","5","high nameability","42","right","response","1"
"html-audio-button-response","203","157127","0.0-157.0-1.0","CAN_115","115","","","","","","null","stimuli/bleep.m4a","null","purple","orange","[""purple"",""orange"",""high nameability""]","right-left","[""orange"",""purple""]","5","high nameability","42","right","audio_feedback","1"
"html-button-response","204","157646","0.0-158.0","CAN_115","115","","","","","","null","<button class=""jspsych-btn""><img src=""stimuli/white_square.png"" style=""width: 200px;height: 200px;""></button>","null","purple","orange","[""purple"",""orange"",""high nameability""]","right-left","[""orange"",""purple""]","5","high nameability","42","right","iti",""
"html-button-response","205","158039","0.0-159.0","CAN_115","115","","","","","","390","","0","pink","lightred","[""pink"",""lightred"",""low nameability""]","right-left","[""lightred"",""pink""]","5","low nameability","43","right","trigger",""
"html-button-response","206","158486","0.0-160.0-0.0","CAN_115","115","","","","","","439","<button class=""jspsych-btn""><img src=""stimuli/pink.png"" style=""width: 200px;height: 200px;""></button>","1","pink","lightred","[""pink"",""lightred"",""low nameability""]","right-left","[""lightred"",""pink""]","5","low nameability","43","right","response","1"
"html-audio-button-response","207","158692","0.0-160.0-1.0","CAN_115","115","","","","","","null","stimuli/bleep.m4a","null","pink","lightred","[""pink"",""lightred"",""low nameability""]","right-left","[""lightred"",""pink""]","5","low nameability","43","right","audio_feedback","1"
"html-button-response","208","159218","0.0-161.0","CAN_115","115","","","","","","null","<button class=""jspsych-btn""><img src=""stimuli/white_square.png"" style=""width: 200px;height: 200px;""></button>","null","pink","lightred","[""pink"",""lightred"",""low nameability""]","right-left","[""lightred"",""pink""]","5","low nameability","43","right","iti",""
"html-button-response","209","159672","0.0-162.0","CAN_115","115","","","","","","437","","0","blue","red","[""blue"",""red"",""high nameability""]","right-left","[""red"",""blue""]","5","high nameability","44","right","trigger",""
"html-button-response","210","160217","0.0-163.0-0.0","CAN_115","115","","","","","","538","<button class=""jspsych-btn""><img src=""stimuli/blue.png"" style=""width: 200px;height: 200px;""></button>","1","blue","red","[""blue"",""red"",""high nameability""]","right-left","[""red"",""blue""]","5","high nameability","44","right","response","1"
"html-audio-button-response","211","160421","0.0-163.0-1.0","CAN_115","115","","","","","","null","stimuli/bleep.m4a","null","blue","red","[""blue"",""red"",""high nameability""]","right-left","[""red"",""blue""]","5","high nameability","44","right","audio_feedback","1"
"html-button-response","212","160938","0.0-164.0","CAN_115","115","","","","","","null","<button class=""jspsych-btn""><img src=""stimuli/white_square.png"" style=""width: 200px;height: 200px;""></button>","null","blue","red","[""blue"",""red"",""high nameability""]","right-left","[""red"",""blue""]","5","high nameability","44","right","iti",""
"html-button-response","213","161872","0.0-165.0","CAN_115","115","","","","","","915","","0","red","purple","[""red"",""purple"",""high nameability""]","left-right","[""red"",""purple"",""high nameability""]","5","high nameability","45","left","trigger",""
"html-button-response","214","162533","0.0-166.0-0.0","CAN_115","115","","","","","","653","<button class=""jspsych-btn""><img src=""stimuli/red.png"" style=""width: 200px;height: 200px;""></button>","0","red","purple","[""red"",""purple"",""high nameability""]","left-right","[""red"",""purple"",""high nameability""]","5","high nameability","45","left","response","1"
"html-audio-button-response","215","162739","0.0-166.0-1.0","CAN_115","115","","","","","","null","stimuli/bleep.m4a","null","red","purple","[""red"",""purple"",""high nameability""]","left-right","[""red"",""purple"",""high nameability""]","5","high nameability","45","left","audio_feedback","1"
"html-button-response","216","163260","0.0-167.0","CAN_115","115","","","","","","null","<button class=""jspsych-btn""><img src=""stimuli/white_square.png"" style=""width: 200px;height: 200px;""></button>","null","red","purple","[""red"",""purple"",""high nameability""]","left-right","[""red"",""purple"",""high nameability""]","5","high nameability","45","left","iti",""
"html-button-response","217","164427","0.0-168.0","CAN_115","115","","","","","","1148","","0","neonyellow","pink","[""neonyellow"",""pink"",""low nameability""]","right-left","[""pink"",""neonyellow""]","5","low nameability","46","right","trigger",""
"html-button-response","218","165291","0.0-169.0-0.0","CAN_115","115","","","","","","854","<button class=""jspsych-btn""><img src=""stimuli/neonyellow.png"" style=""width: 200px;height: 200px;""></button>","1","neonyellow","pink","[""neonyellow"",""pink"",""low nameability""]","right-left","[""pink"",""neonyellow""]","5","low nameability","46","right","response","1"
"html-audio-button-response","219","165490","0.0-169.0-1.0","CAN_115","115","","","","","","null","stimuli/bleep.m4a","null","neonyellow","pink","[""neonyellow"",""pink"",""low nameability""]","right-left","[""pink"",""neonyellow""]","5","low nameability","46","right","audio_feedback","1"
"html-button-response","220","166008","0.0-170.0","CAN_115","115","","","","","","null","<button class=""jspsych-btn""><img src=""stimuli/white_square.png"" style=""width: 200px;height: 200px;""></button>","null","neonyellow","pink","[""neonyellow"",""pink"",""low nameability""]","right-left","[""pink"",""neonyellow""]","5","low nameability","46","right","iti",""
"html-button-response","221","166966","0.0-171.0","CAN_115","115","","","","","","941","","0","purple","red","[""purple"",""red"",""high nameability""]","left-right","[""purple"",""red"",""high nameability""]","5","high nameability","47","left","trigger",""
"html-button-response","222","168190","0.0-172.0-0.0","CAN_115","115","","","","","","1215","<button class=""jspsych-btn""><img src=""stimuli/purple.png"" style=""width: 200px;height: 200px;""></button>","0","purple","red","[""purple"",""red"",""high nameability""]","left-right","[""purple"",""red"",""high nameability""]","5","high nameability","47","left","response","1"
"html-audio-button-response","223","168394","0.0-172.0-1.0","CAN_115","115","","","","","","null","stimuli/bleep.m4a","null","purple","red","[""purple"",""red"",""high nameability""]","left-right","[""purple"",""red"",""high nameability""]","5","high nameability","47","left","audio_feedback","1"
"html-button-response","224","168912","0.0-173.0","CAN_115","115","","","","","","null","<button class=""jspsych-btn""><img src=""stimuli/white_square.png"" style=""width: 200px;height: 200px;""></button>","null","purple","red","[""purple"",""red"",""high nameability""]","left-right","[""purple"",""red"",""high nameability""]","5","high nameability","47","left","iti",""
"html-button-response","225","169315","0.0-174.0","CAN_115","115","","","","","","383","","0","lightred","neonyellow","[""lightred"",""neonyellow"",""low nameability""]","right-left","[""neonyellow"",""lightred""]","5","low nameability","48","right","trigger",""
"html-button-response","226","170091","0.0-175.0-0.0","CAN_115","115","","","","","","769","<button class=""jspsych-btn""><img src=""stimuli/lightred.png"" style=""width: 200px;height: 200px;""></button>","1","lightred","neonyellow","[""lightred"",""neonyellow"",""low nameability""]","right-left","[""neonyellow"",""lightred""]","5","low nameability","48","right","response","1"
"html-audio-button-response","227","170295","0.0-175.0-1.0","CAN_115","115","","","","","","null","stimuli/bleep.m4a","null","lightred","neonyellow","[""lightred"",""neonyellow"",""low nameability""]","right-left","[""neonyellow"",""lightred""]","5","low nameability","48","right","audio_feedback","1"
"html-button-response","228","170812","0.0-176.0","CAN_115","115","","","","","","null","<button class=""jspsych-btn""><img src=""stimuli/white_square.png"" style=""width: 200px;height: 200px;""></button>","null","lightred","neonyellow","[""lightred"",""neonyellow"",""low nameability""]","right-left","[""neonyellow"",""lightred""]","5","low nameability","48","right","iti",""
"html-button-response","229","171231","0.0-177.0","CAN_115","115","","","","","","405","","0","darkgreenblue","turquoise","[""darkgreenblue"",""turquoise"",""low nameability""]","right-left","[""turquoise"",""darkgreenblue""]","5","low nameability","49","right","trigger",""
"html-button-response","230","171787","0.0-178.0-0.0","CAN_115","115","","","","","","549","<button class=""jspsych-btn""><img src=""stimuli/darkgreenblue.png"" style=""width: 200px;height: 200px;""></button>","1","darkgreenblue","turquoise","[""darkgreenblue"",""turquoise"",""low nameability""]","right-left","[""turquoise"",""darkgreenblue""]","5","low nameability","49","right","response","1"
"html-audio-button-response","231","171990","0.0-178.0-1.0","CAN_115","115","","","","","","null","stimuli/bleep.m4a","null","darkgreenblue","turquoise","[""darkgreenblue"",""turquoise"",""low nameability""]","right-left","[""turquoise"",""darkgreenblue""]","5","low nameability","49","right","audio_feedback","1"
"html-button-response","232","172505","0.0-179.0","CAN_115","115","","","","","","null","<button class=""jspsych-btn""><img src=""stimuli/white_square.png"" style=""width: 200px;height: 200px;""></button>","null","darkgreenblue","turquoise","[""darkgreenblue"",""turquoise"",""low nameability""]","right-left","[""turquoise"",""darkgreenblue""]","5","low nameability","49","right","iti",""
"html-button-response","233","172932","0.0-180.0","CAN_115","115","","","","","","409","","0","pink","turquoise","[""pink"",""turquoise"",""low nameability""]","left-right","[""pink"",""turquoise"",""low nameability""]","5","low nameability","50","left","trigger",""
"html-button-response","234","174138","0.0-181.0-0.0","CAN_115","115","","","","","","1199","<button class=""jspsych-btn""><img src=""stimuli/pink.png"" style=""width: 200px;height: 200px;""></button>","0","pink","turquoise","[""pink"",""turquoise"",""low nameability""]","left-right","[""pink"",""turquoise"",""low nameability""]","5","low nameability","50","left","response","1"
"html-audio-button-response","235","174339","0.0-181.0-1.0","CAN_115","115","","","","","","null","stimuli/bleep.m4a","null","pink","turquoise","[""pink"",""turquoise"",""low nameability""]","left-right","[""pink"",""turquoise"",""low nameability""]","5","low nameability","50","left","audio_feedback","1"
"html-button-response","236","174855","0.0-182.0","CAN_115","115","","","","","","null","<button class=""jspsych-btn""><img src=""stimuli/white_square.png"" style=""width: 200px;height: 200px;""></button>","null","pink","turquoise","[""pink"",""turquoise"",""low nameability""]","left-right","[""pink"",""turquoise"",""low nameability""]","5","low nameability","50","left","iti",""
"pavlovia","237","174925","0.0-183.0","CAN_115","115","","","","","","","","","","","","","","","","","","",""
"pavlovia","238","174932","0.0-184.0","CAN_115","115","","","","","","","","","","","","","","","","","","",""
"html-audio-button-response","239","176424","0.0-185.0","CAN_115","115","","","","","","1568","stimuli/tada.m4a","0","","","","","","","","","","",""
"html-button-response","240","177528","0.0-186.0","CAN_115","115","","","","","","1099","","0","","","","","","","","","","",""
"html-button-response","241","178285","0.0-187.0","CAN_115","115","","","","","","751","","0","neonyellow","mustard","[""neonyellow"",""mustard"",""low nameability""]","right-left","[""mustard"",""neonyellow""]","6","low nameability","51","right","trigger",""
"html-button-response","242","178951","0.0-188.0-0.0","CAN_115","115","","","","","","660","<button class=""jspsych-btn""><img src=""stimuli/neonyellow.png"" style=""width: 200px;height: 200px;""></button>","1","neonyellow","mustard","[""neonyellow"",""mustard"",""low nameability""]","right-left","[""mustard"",""neonyellow""]","6","low nameability","51","right","response","1"
"html-audio-button-response","243","179156","0.0-188.0-1.0","CAN_115","115","","","","","","null","stimuli/bleep.m4a","null","neonyellow","mustard","[""neonyellow"",""mustard"",""low nameability""]","right-left","[""mustard"",""neonyellow""]","6","low nameability","51","right","audio_feedback","1"
"html-button-response","244","179676","0.0-189.0","CAN_115","115","","","","","","null","<button class=""jspsych-btn""><img src=""stimuli/white_square.png"" style=""width: 200px;height: 200px;""></button>","null","neonyellow","mustard","[""neonyellow"",""mustard"",""low nameability""]","right-left","[""mustard"",""neonyellow""]","6","low nameability","51","right","iti",""
"html-button-response","245","180108","0.0-190.0","CAN_115","115","","","","","","410","","0","turquoise","pink","[""turquoise"",""pink"",""low nameability""]","right-left","[""pink"",""turquoise""]","6","low nameability","52","right","trigger",""
"html-button-response","246","180686","0.0-191.0-0.0","CAN_115","115","","","","","","570","<button class=""jspsych-btn""><img src=""stimuli/turquoise.png"" style=""width: 200px;height: 200px;""></button>","1","turquoise","pink","[""turquoise"",""pink"",""low nameability""]","right-left","[""pink"",""turquoise""]","6","low nameability","52","right","response","1"
"html-audio-button-response","247","180892","0.0-191.0-1.0","CAN_115","115","","","","","","null","stimuli/bleep.m4a","null","turquoise","pink","[""turquoise"",""pink"",""low nameability""]","right-left","[""pink"",""turquoise""]","6","low nameability","52","right","audio_feedback","1"
"html-button-response","248","181404","0.0-192.0","CAN_115","115","","","","","","null","<button class=""jspsych-btn""><img src=""stimuli/white_square.png"" style=""width: 200px;height: 200px;""></button>","null","turquoise","pink","[""turquoise"",""pink"",""low nameability""]","right-left","[""pink"",""turquoise""]","6","low nameability","52","right","iti",""
"html-button-response","249","181457","0.0-193.0","CAN_115","115","","","","","","47","","0","yellow","purple","[""yellow"",""purple"",""high nameability""]","right-left","[""purple"",""yellow""]","6","high nameability","53","right","trigger",""
"html-button-response","250","184812","0.0-194.0-0.0","CAN_115","115","","","","","","3350","<button class=""jspsych-btn""><img src=""stimuli/yellow.png"" style=""width: 200px;height: 200px;""></button>","1","yellow","purple","[""yellow"",""purple"",""high nameability""]","right-left","[""purple"",""yellow""]","6","high nameability","53","right","response","1"
"html-audio-button-response","251","185014","0.0-194.0-1.0","CAN_115","115","","","","","","null","stimuli/bleep.m4a","null","yellow","purple","[""yellow"",""purple"",""high nameability""]","right-left","[""purple"",""yellow""]","6","high nameability","53","right","audio_feedback","1"
"html-button-response","252","185528","0.0-195.0","CAN_115","115","","","","","","null","<button class=""jspsych-btn""><img src=""stimuli/white_square.png"" style=""width: 200px;height: 200px;""></button>","null","yellow","purple","[""yellow"",""purple"",""high nameability""]","right-left","[""purple"",""yellow""]","6","high nameability","53","right","iti",""
"html-button-response","253","186191","0.0-196.0","CAN_115","115","","","","","","645","","0","turquoise","darkgreenblue","[""turquoise"",""darkgreenblue"",""low nameability""]","right-left","[""darkgreenblue"",""turquoise""]","6","low nameability","54","right","trigger",""
"html-button-response","254","186866","0.0-197.0-0.0","CAN_115","115","","","","","","667","<button class=""jspsych-btn""><img src=""stimuli/turquoise.png"" style=""width: 200px;height: 200px;""></button>","1","turquoise","darkgreenblue","[""turquoise"",""darkgreenblue"",""low nameability""]","right-left","[""darkgreenblue"",""turquoise""]","6","low nameability","54","right","response","1"
"html-audio-button-response","255","187070","0.0-197.0-1.0","CAN_115","115","","","","","","null","stimuli/bleep.m4a","null","turquoise","darkgreenblue","[""turquoise"",""darkgreenblue"",""low nameability""]","right-left","[""darkgreenblue"",""turquoise""]","6","low nameability","54","right","audio_feedback","1"
"html-button-response","256","187587","0.0-198.0","CAN_115","115","","","","","","null","<button class=""jspsych-btn""><img src=""stimuli/white_square.png"" style=""width: 200px;height: 200px;""></button>","null","turquoise","darkgreenblue","[""turquoise"",""darkgreenblue"",""low nameability""]","right-left","[""darkgreenblue"",""turquoise""]","6","low nameability","54","right","iti",""
"html-button-response","257","188042","0.0-199.0","CAN_115","115","","","","","","439","","0","red","blue","[""red"",""blue"",""high nameability""]","right-left","[""blue"",""red""]","6","high nameability","55","right","trigger",""
"html-button-response","258","188574","0.0-200.0-0.0","CAN_115","115","","","","","","522","<button class=""jspsych-btn""><img src=""stimuli/red.png"" style=""width: 200px;height: 200px;""></button>","1","red","blue","[""red"",""blue"",""high nameability""]","right-left","[""blue"",""red""]","6","high nameability","55","right","response","1"
"html-audio-button-response","259","188775","0.0-200.0-1.0","CAN_115","115","","","","","","null","stimuli/bleep.m4a","null","red","blue","[""red"",""blue"",""high nameability""]","right-left","[""blue"",""red""]","6","high nameability","55","right","audio_feedback","1"
"html-button-response","260","189294","0.0-201.0","CAN_115","115","","","","","","null","<button class=""jspsych-btn""><img src=""stimuli/white_square.png"" style=""width: 200px;height: 200px;""></button>","null","red","blue","[""red"",""blue"",""high nameability""]","right-left","[""blue"",""red""]","6","high nameability","55","right","iti",""
"html-button-response","261","189964","0.0-202.0","CAN_115","115","","","","","","653","","0","lightred","darkgreenblue","[""lightred"",""darkgreenblue"",""low nameability""]","right-left","[""darkgreenblue"",""lightred""]","6","low nameability","56","right","trigger",""
"html-button-response","262","190494","0.0-203.0-0.0","CAN_115","115","","","","","","522","<button class=""jspsych-btn""><img src=""stimuli/lightred.png"" style=""width: 200px;height: 200px;""></button>","1","lightred","darkgreenblue","[""lightred"",""darkgreenblue"",""low nameability""]","right-left","[""darkgreenblue"",""lightred""]","6","low nameability","56","right","response","1"
"html-audio-button-response","263","190700","0.0-203.0-1.0","CAN_115","115","","","","","","null","stimuli/bleep.m4a","null","lightred","darkgreenblue","[""lightred"",""darkgreenblue"",""low nameability""]","right-left","[""darkgreenblue"",""lightred""]","6","low nameability","56","right","audio_feedback","1"
"html-button-response","264","191220","0.0-204.0","CAN_115","115","","","","","","null","<button class=""jspsych-btn""><img src=""stimuli/white_square.png"" style=""width: 200px;height: 200px;""></button>","null","lightred","darkgreenblue","[""lightred"",""darkgreenblue"",""low nameability""]","right-left","[""darkgreenblue"",""lightred""]","6","low nameability","56","right","iti",""
"html-button-response","265","191588","0.0-205.0","CAN_115","115","","","","","","350","","0","lightred","pink","[""lightred"",""pink"",""low nameability""]","left-right","[""lightred"",""pink"",""low nameability""]","6","low nameability","57","left","trigger",""
"html-button-response","266","192237","0.0-206.0-0.0","CAN_115","115","","","","","","641","<button class=""jspsych-btn""><img src=""stimuli/lightred.png"" style=""width: 200px;height: 200px;""></button>","0","lightred","pink","[""lightred"",""pink"",""low nameability""]","left-right","[""lightred"",""pink"",""low nameability""]","6","low nameability","57","left","response","1"
"html-audio-button-response","267","192442","0.0-206.0-1.0","CAN_115","115","","","","","","null","stimuli/bleep.m4a","null","lightred","pink","[""lightred"",""pink"",""low nameability""]","left-right","[""lightred"",""pink"",""low nameability""]","6","low nameability","57","left","audio_feedback","1"
"html-button-response","268","192958","0.0-207.0","CAN_115","115","","","","","","null","<button class=""jspsych-btn""><img src=""stimuli/white_square.png"" style=""width: 200px;height: 200px;""></button>","null","lightred","pink","[""lightred"",""pink"",""low nameability""]","left-right","[""lightred"",""pink"",""low nameability""]","6","low nameability","57","left","iti",""
"html-button-response","269","193392","0.0-208.0","CAN_115","115","","","","","","414","","0","blue","yellow","[""blue"",""yellow"",""high nameability""]","left-right","[""blue"",""yellow"",""high nameability""]","6","high nameability","58","left","trigger",""
"html-button-response","270","193927","0.0-209.0-0.0","CAN_115","115","","","","","","528","<button class=""jspsych-btn""><img src=""stimuli/blue.png"" style=""width: 200px;height: 200px;""></button>","1","blue","yellow","[""blue"",""yellow"",""high nameability""]","left-right","[""blue"",""yellow"",""high nameability""]","6","high nameability","58","left","response","0"
"html-audio-button-response","271","194554","0.0-209.0-1.0","CAN_115","115","","","","","","null","stimuli/boing.m4a","null","blue","yellow","[""blue"",""yellow"",""high nameability""]","left-right","[""blue"",""yellow"",""high nameability""]","6","high nameability","58","left","audio_feedback","0"
"html-button-response","272","195882","0.0-209.1-0.1","CAN_115","115","","","","","","1304","<button class=""jspsych-btn""><img src=""stimuli/blue.png"" style=""width: 200px;height: 200px;""></button>","0","blue","yellow","[""blue"",""yellow"",""high nameability""]","left-right","[""blue"",""yellow"",""high nameability""]","6","high nameability","58","left","response","1"
"html-audio-button-response","273","196084","0.0-209.1-1.1","CAN_115","115","","","","","","null","stimuli/bleep.m4a","null","blue","yellow","[""blue"",""yellow"",""high nameability""]","left-right","[""blue"",""yellow"",""high nameability""]","6","high nameability","58","left","audio_feedback","1"
"html-button-response","274","196603","0.0-210.0","CAN_115","115","","","","","","null","<button class=""jspsych-btn""><img src=""stimuli/white_square.png"" style=""width: 200px;height: 200px;""></button>","null","blue","yellow","[""blue"",""yellow"",""high nameability""]","left-right","[""blue"",""yellow"",""high nameability""]","6","high nameability","58","left","iti",""
"html-button-response","275","197197","0.0-211.0","CAN_115","115","","","","","","580","","0","lightred","turquoise","[""lightred"",""turquoise"",""low nameability""]","left-right","[""lightred"",""turquoise"",""low nameability""]","6","low nameability","59","left","trigger",""
"html-button-response","276","197790","0.0-212.0-0.0","CAN_115","115","","","","","","584","<button class=""jspsych-btn""><img src=""stimuli/lightred.png"" style=""width: 200px;height: 200px;""></button>","0","lightred","turquoise","[""lightred"",""turquoise"",""low nameability""]","left-right","[""lightred"",""turquoise"",""low nameability""]","6","low nameability","59","left","response","1"
"html-audio-button-response","277","197996","0.0-212.0-1.0","CAN_115","115","","","","","","null","stimuli/bleep.m4a","null","lightred","turquoise","[""lightred"",""turquoise"",""low nameability""]","left-right","[""lightred"",""turquoise"",""low nameability""]","6","low nameability","59","left","audio_feedback","1"
"html-button-response","278","198518","0.0-213.0","CAN_115","115","","","","","","null","<button class=""jspsych-btn""><img src=""stimuli/white_square.png"" style=""width: 200px;height: 200px;""></button>","null","lightred","turquoise","[""lightred"",""turquoise"",""low nameability""]","left-right","[""lightred"",""turquoise"",""low nameability""]","6","low nameability","59","left","iti",""
"html-button-response","279","198910","0.0-214.0","CAN_115","115","","","","","","370","","0","yellow","brown","[""yellow"",""brown"",""high nameability""]","right-left","[""brown"",""yellow""]","6","high nameability","60","right","trigger",""
"html-button-response","280","199483","0.0-215.0-0.0","CAN_115","115","","","","","","563","<button class=""jspsych-btn""><img src=""stimuli/yellow.png"" style=""width: 200px;height: 200px;""></button>","1","yellow","brown","[""yellow"",""brown"",""high nameability""]","right-left","[""brown"",""yellow""]","6","high nameability","60","right","response","1"
"html-audio-button-response","281","199686","0.0-215.0-1.0","CAN_115","115","","","","","","null","stimuli/bleep.m4a","null","yellow","brown","[""yellow"",""brown"",""high nameability""]","right-left","[""brown"",""yellow""]","6","high nameability","60","right","audio_feedback","1"
"html-button-response","282","200200","0.0-216.0","CAN_115","115","","","","","","null","<button class=""jspsych-btn""><img src=""stimuli/white_square.png"" style=""width: 200px;height: 200px;""></button>","null","yellow","brown","[""yellow"",""brown"",""high nameability""]","right-left","[""brown"",""yellow""]","6","high nameability","60","right","iti",""
