"trial_type","trial_index","time_elapsed","internal_node_id","subject_id","seed","success","timeout","failed_images","failed_audio","failed_video","rt","stimulus","response","target","foil","choices","combination_order","choices_in_order","round","condition","trial_counter","target_location","trial_kind","correct"
"pavlovia","0","22","0.0-0.0","CAN_104","104","","","","","","","","","","","","","","","","","","",""
"preload","1","758","0.0-1.0","CAN_104","104","true","false","[]","[]","[]","","","","","","","","","","","","","",""
"fullscreen","2","636610","0.0-2.0","CAN_104","104","true","","","","","","","","","","","","","","","","","",""
"html-button-response","3","640843","0.0-3.0","CAN_104","104","","","","","","4212","","0","","","","","","","","","","",""
"html-button-response","4","643990","0.0-4.0","CAN_104","104","","","","","","3131","","0","star","square","[""square"",""star""]","left-right","[""square"",""star""]","1","practice","1","right","trigger",""
"html-button-response","5","647378","0.0-5.0-0.0","CAN_104","104","","","","","","3375","<button class=""jspsych-btn""><img src=""stimuli/star.png"" style=""width: 200px;height: 200px;""></button>","1","star","square","[""square"",""star""]","left-right","[""square"",""star""]","1","practice","1","right","response","1"
"html-audio-button-response","6","647591","0.0-5.0-1.0","CAN_104","104","","","","","","null","stimuli/bleep.m4a","null","star","square","[""square"",""star""]","left-right","[""square"",""star""]","1","practice","1","right","audio_feedback","1"
"html-button-response","7","648116","0.0-6.0","CAN_104","104","","","","","","null","<button class=""jspsych-btn""><img src=""stimuli/white_square.png"" style=""width: 200px;height: 200px;""></button>","null","star","square","[""square"",""star""]","left-right","[""square"",""star""]","1","practice","1","right","iti",""
"html-button-response","8","650547","0.0-7.0","CAN_104","104","","","","","","2421","","0","triangle","pentagram","[""triangle"",""pentagram""]","left-right","[""triangle"",""pentagram""]","1","practice","1","left","trigger",""
"html-button-response","9","651682","0.0-8.0-0.0","CAN_104","104","","","","","","1127","<button class=""jspsych-btn""><img src=""stimuli/triangle.png"" style=""width: 200px;height: 200px;""></button>","0","triangle","pentagram","[""triangle"",""pentagram""]","left-right","[""triangle"",""pentagram""]","1","practice","1","left","response","1"
"html-audio-button-response","10","651893","0.0-8.0-1.0","CAN_104","104","","","","","","null","stimuli/bleep.m4a","null","triangle","pentagram","[""triangle"",""pentagram""]","left-right","[""triangle"",""pentagram""]","1","practice","1","left","audio_feedback","1"
"html-button-response","11","652415","0.0-9.0","CAN_104","104","","","","","","null","<button class=""jspsych-btn""><img src=""stimuli/white_square.png"" style=""width: 200px;height: 200px;""></button>","null","triangle","pentagram","[""triangle"",""pentagram""]","left-right","[""triangle"",""pentagram""]","1","practice","1","left","iti",""
"html-button-response","12","653234","0.0-10.0","CAN_104","104","","","","","","799","","0","diamond","rectangle","[""rectangle"",""diamond""]","left-right","[""rectangle"",""diamond""]","1","practice","1","right","trigger",""
"html-button-response","13","654107","0.0-11.0-0.0","CAN_104","104","","","","","","865","<button class=""jspsych-btn""><img src=""stimuli/diamond.png"" style=""width: 200px;height: 200px;""></button>","1","diamond","rectangle","[""rectangle"",""diamond""]","left-right","[""rectangle"",""diamond""]","1","practice","1","right","response","1"
"html-audio-button-response","14","654312","0.0-11.0-1.0","CAN_104","104","","","","","","null","stimuli/bleep.m4a","null","diamond","rectangle","[""rectangle"",""diamond""]","left-right","[""rectangle"",""diamond""]","1","practice","1","right","audio_feedback","1"
"html-button-response","15","654836","0.0-12.0","CAN_104","104","","","","","","null","<button class=""jspsych-btn""><img src=""stimuli/white_square.png"" style=""width: 200px;height: 200px;""></button>","null","diamond","rectangle","[""rectangle"",""diamond""]","left-right","[""rectangle"",""diamond""]","1","practice","1","right","iti",""
"html-button-response","16","655432","0.0-13.0","CAN_104","104","","","","","","581","","0","pentagram","star","[""pentagram"",""star""]","left-right","[""pentagram"",""star""]","1","practice","1","left","trigger",""
"html-button-response","17","656264","0.0-14.0-0.0","CAN_104","104","","","","","","823","<button class=""jspsych-btn""><img src=""stimuli/pentagram.png"" style=""width: 200px;height: 200px;""></button>","0","pentagram","star","[""pentagram"",""star""]","left-right","[""pentagram"",""star""]","1","practice","1","left","response","1"
"html-audio-button-response","18","656470","0.0-14.0-1.0","CAN_104","104","","","","","","null","stimuli/bleep.m4a","null","pentagram","star","[""pentagram"",""star""]","left-right","[""pentagram"",""star""]","1","practice","1","left","audio_feedback","1"
"html-button-response","19","656989","0.0-15.0","CAN_104","104","","","","","","null","<button class=""jspsych-btn""><img src=""stimuli/white_square.png"" style=""width: 200px;height: 200px;""></button>","null","pentagram","star","[""pentagram"",""star""]","left-right","[""pentagram"",""star""]","1","practice","1","left","iti",""
"html-button-response","20","666079","0.0-16.0","CAN_104","104","","","","","","9077","","0","","","","","","","","","","",""
"html-button-response","21","667105","0.0-17.0","CAN_104","104","","","","","","1018","","0","darkgreenblue","mustard","[""darkgreenblue"",""mustard"",""low nameability""]","left-right","[""darkgreenblue"",""mustard"",""low nameability""]","1","low nameability","1","left","trigger",""
"html-button-response","22","667898","0.0-18.0-0.0","CAN_104","104","","","","","","784","<button class=""jspsych-btn""><img src=""stimuli/darkgreenblue.png"" style=""width: 200px;height: 200px;""></button>","0","darkgreenblue","mustard","[""darkgreenblue"",""mustard"",""low nameability""]","left-right","[""darkgreenblue"",""mustard"",""low nameability""]","1","low nameability","1","left","response","1"
"html-audio-button-response","23","668099","0.0-18.0-1.0","CAN_104","104","","","","","","null","stimuli/bleep.m4a","null","darkgreenblue","mustard","[""darkgreenblue"",""mustard"",""low nameability""]","left-right","[""darkgreenblue"",""mustard"",""low nameability""]","1","low nameability","1","left","audio_feedback","1"
"html-button-response","24","668620","0.0-19.0","CAN_104","104","","","","","","null","<button class=""jspsych-btn""><img src=""stimuli/white_square.png"" style=""width: 200px;height: 200px;""></button>","null","darkgreenblue","mustard","[""darkgreenblue"",""mustard"",""low nameability""]","left-right","[""darkgreenblue"",""mustard"",""low nameability""]","1","low nameability","1","left","iti",""
"html-button-response","25","669147","0.0-20.0","CAN_104","104","","","","","","510","","0","lightred","pink","[""lightred"",""pink"",""low nameability""]","right-left","[""pink"",""lightred""]","1","low nameability","2","right","trigger",""
"html-button-response","26","669848","0.0-21.0-0.0","CAN_104","104","","","","","","694","<button class=""jspsych-btn""><img src=""stimuli/lightred.png"" style=""width: 200px;height: 200px;""></button>","1","lightred","pink","[""lightred"",""pink"",""low nameability""]","right-left","[""pink"",""lightred""]","1","low nameability","2","right","response","1"
"html-audio-button-response","27","670052","0.0-21.0-1.0","CAN_104","104","","","","","","null","stimuli/bleep.m4a","null","lightred","pink","[""lightred"",""pink"",""low nameability""]","right-left","[""pink"",""lightred""]","1","low nameability","2","right","audio_feedback","1"
"html-button-response","28","670582","0.0-22.0","CAN_104","104","","","","","","null","<button class=""jspsych-btn""><img src=""stimuli/white_square.png"" style=""width: 200px;height: 200px;""></button>","null","lightred","pink","[""lightred"",""pink"",""low nameability""]","right-left","[""pink"",""lightred""]","1","low nameability","2","right","iti",""
"html-button-response","29","671111","0.0-23.0","CAN_104","104","","","","","","510","","0","pink","turquoise","[""pink"",""turquoise"",""low nameability""]","left-right","[""pink"",""turquoise"",""low nameability""]","1","low nameability","3","left","trigger",""
"html-button-response","30","671824","0.0-24.0-0.0","CAN_104","104","","","","","","706","<button class=""jspsych-btn""><img src=""stimuli/pink.png"" style=""width: 200px;height: 200px;""></button>","0","pink","turquoise","[""pink"",""turquoise"",""low nameability""]","left-right","[""pink"",""turquoise"",""low nameability""]","1","low nameability","3","left","response","1"
"html-audio-button-response","31","672032","0.0-24.0-1.0","CAN_104","104","","","","","","null","stimuli/bleep.m4a","null","pink","turquoise","[""pink"",""turquoise"",""low nameability""]","left-right","[""pink"",""turquoise"",""low nameability""]","1","low nameability","3","left","audio_feedback","1"
"html-button-response","32","672558","0.0-25.0","CAN_104","104","","","","","","null","<button class=""jspsych-btn""><img src=""stimuli/white_square.png"" style=""width: 200px;height: 200px;""></button>","null","pink","turquoise","[""pink"",""turquoise"",""low nameability""]","left-right","[""pink"",""turquoise"",""low nameability""]","1","low nameability","3","left","iti",""
"html-button-response","33","673096","0.0-26.0","CAN_104","104","","","","","","512","","0","brown","red","[""brown"",""red"",""high nameability""]","left-right","[""brown"",""red"",""high nameability""]","1","high nameability","4","left","trigger",""
"html-button-response","34","673950","0.0-27.0-0.0","CAN_104","104","","","","","","846","<button class=""jspsych-btn""><img src=""stimuli/brown.png"" style=""width: 200px;height: 200px;""></button>","0","brown","red","[""brown"",""red"",""high nameability""]","left-right","[""brown"",""red"",""high nameability""]","1","high nameability","4","left","response","1"
"html-audio-button-response","35","674156","0.0-27.0-1.0","CAN_104","104","","","","","","null","stimuli/bleep.m4a","null","brown","red","[""brown"",""red"",""high nameability""]","left-right","[""brown"",""red"",""high nameability""]","1","high nameability","4","left","audio_feedback","1"
"html-button-response","36","674677","0.0-28.0","CAN_104","104","","","","","","null","<button class=""jspsych-btn""><img src=""stimuli/white_square.png"" style=""width: 200px;height: 200px;""></button>","null","brown","red","[""brown"",""red"",""high nameability""]","left-right","[""brown"",""red"",""high nameability""]","1","high nameability","4","left","iti",""
"html-button-response","37","675166","0.0-29.0","CAN_104","104","","","","","","473","","0","neonyellow","lightred","[""neonyellow"",""lightred"",""low nameability""]","right-left","[""lightred"",""neonyellow""]","1","low nameability","5","right","trigger",""
"html-button-response","38","675859","0.0-30.0-0.0","CAN_104","104","","","","","","678","<button class=""jspsych-btn""><img src=""stimuli/neonyellow.png"" style=""width: 200px;height: 200px;""></button>","1","neonyellow","lightred","[""neonyellow"",""lightred"",""low nameability""]","right-left","[""lightred"",""neonyellow""]","1","low nameability","5","right","response","1"
"html-audio-button-response","39","676065","0.0-30.0-1.0","CAN_104","104","","","","","","null","stimuli/bleep.m4a","null","neonyellow","lightred","[""neonyellow"",""lightred"",""low nameability""]","right-left","[""lightred"",""neonyellow""]","1","low nameability","5","right","audio_feedback","1"
"html-button-response","40","676588","0.0-31.0","CAN_104","104","","","","","","null","<button class=""jspsych-btn""><img src=""stimuli/white_square.png"" style=""width: 200px;height: 200px;""></button>","null","neonyellow","lightred","[""neonyellow"",""lightred"",""low nameability""]","right-left","[""lightred"",""neonyellow""]","1","low nameability","5","right","iti",""
"html-button-response","41","677060","0.0-32.0","CAN_104","104","","","","","","452","","0","turquoise","neonyellow","[""turquoise"",""neonyellow"",""low nameability""]","left-right","[""turquoise"",""neonyellow"",""low nameability""]","1","low nameability","6","left","trigger",""
"html-button-response","42","677678","0.0-33.0-0.0","CAN_104","104","","","","","","609","<button class=""jspsych-btn""><img src=""stimuli/turquoise.png"" style=""width: 200px;height: 200px;""></button>","0","turquoise","neonyellow","[""turquoise"",""neonyellow"",""low nameability""]","left-right","[""turquoise"",""neonyellow"",""low nameability""]","1","low nameability","6","left","response","1"
"html-audio-button-response","43","677886","0.0-33.0-1.0","CAN_104","104","","","","","","null","stimuli/bleep.m4a","null","turquoise","neonyellow","[""turquoise"",""neonyellow"",""low nameability""]","left-right","[""turquoise"",""neonyellow"",""low nameability""]","1","low nameability","6","left","audio_feedback","1"
"html-button-response","44","678407","0.0-34.0","CAN_104","104","","","","","","null","<button class=""jspsych-btn""><img src=""stimuli/white_square.png"" style=""width: 200px;height: 200px;""></button>","null","turquoise","neonyellow","[""turquoise"",""neonyellow"",""low nameability""]","left-right","[""turquoise"",""neonyellow"",""low nameability""]","1","low nameability","6","left","iti",""
"html-button-response","45","679055","0.0-35.0","CAN_104","104","","","","","","630","","0","orange","purple","[""orange"",""purple"",""high nameability""]","right-left","[""purple"",""orange""]","1","high nameability","7","right","trigger",""
"html-button-response","46","679876","0.0-36.0-0.0","CAN_104","104","","","","","","813","<button class=""jspsych-btn""><img src=""stimuli/orange.png"" style=""width: 200px;height: 200px;""></button>","1","orange","purple","[""orange"",""purple"",""high nameability""]","right-left","[""purple"",""orange""]","1","high nameability","7","right","response","1"
"html-audio-button-response","47","680085","0.0-36.0-1.0","CAN_104","104","","","","","","null","stimuli/bleep.m4a","null","orange","purple","[""orange"",""purple"",""high nameability""]","right-left","[""purple"",""orange""]","1","high nameability","7","right","audio_feedback","1"
"html-button-response","48","680611","0.0-37.0","CAN_104","104","","","","","","null","<button class=""jspsych-btn""><img src=""stimuli/white_square.png"" style=""width: 200px;height: 200px;""></button>","null","orange","purple","[""orange"",""purple"",""high nameability""]","right-left","[""purple"",""orange""]","1","high nameability","7","right","iti",""
"html-button-response","49","681091","0.0-38.0","CAN_104","104","","","","","","457","","0","red","orange","[""red"",""orange"",""high nameability""]","right-left","[""orange"",""red""]","1","high nameability","8","right","trigger",""
"html-button-response","50","681685","0.0-39.0-0.0","CAN_104","104","","","","","","581","<button class=""jspsych-btn""><img src=""stimuli/red.png"" style=""width: 200px;height: 200px;""></button>","0","red","orange","[""red"",""orange"",""high nameability""]","right-left","[""orange"",""red""]","1","high nameability","8","right","response","0"
"html-audio-button-response","51","682318","0.0-39.0-1.0","CAN_104","104","","","","","","null","stimuli/boing.m4a","null","red","orange","[""red"",""orange"",""high nameability""]","right-left","[""orange"",""red""]","1","high nameability","8","right","audio_feedback","0"
"html-button-response","52","684593","0.0-39.1-0.1","CAN_104","104","","","","","","2251","<button class=""jspsych-btn""><img src=""stimuli/red.png"" style=""width: 200px;height: 200px;""></button>","1","red","orange","[""red"",""orange"",""high nameability""]","right-left","[""orange"",""red""]","1","high nameability","8","right","response","1"
"html-audio-button-response","53","684800","0.0-39.1-1.1","CAN_104","104","","","","","","null","stimuli/bleep.m4a","null","red","orange","[""red"",""orange"",""high nameability""]","right-left","[""orange"",""red""]","1","high nameability","8","right","audio_feedback","1"
"html-button-response","54","685317","0.0-40.0","CAN_104","104","","","","","","null","<button class=""jspsych-btn""><img src=""stimuli/white_square.png"" style=""width: 200px;height: 200px;""></button>","null","red","orange","[""red"",""orange"",""high nameability""]","right-left","[""orange"",""red""]","1","high nameability","8","right","iti",""
"html-button-response","55","685806","0.0-41.0","CAN_104","104","","","","","","473","","0","turquoise","pink","[""turquoise"",""pink"",""low nameability""]","right-left","[""pink"",""turquoise""]","1","low nameability","9","right","trigger",""
"html-button-response","56","686431","0.0-42.0-0.0","CAN_104","104","","","","","","617","<button class=""jspsych-btn""><img src=""stimuli/turquoise.png"" style=""width: 200px;height: 200px;""></button>","1","turquoise","pink","[""turquoise"",""pink"",""low nameability""]","right-left","[""pink"",""turquoise""]","1","low nameability","9","right","response","1"
"html-audio-button-response","57","686636","0.0-42.0-1.0","CAN_104","104","","","","","","null","stimuli/bleep.m4a","null","turquoise","pink","[""turquoise"",""pink"",""low nameability""]","right-left","[""pink"",""turquoise""]","1","low nameability","9","right","audio_feedback","1"
"html-button-response","58","687154","0.0-43.0","CAN_104","104","","","","","","null","<button class=""jspsych-btn""><img src=""stimuli/white_square.png"" style=""width: 200px;height: 200px;""></button>","null","turquoise","pink","[""turquoise"",""pink"",""low nameability""]","right-left","[""pink"",""turquoise""]","1","low nameability","9","right","iti",""
"html-button-response","59","687792","0.0-44.0","CAN_104","104","","","","","","621","","0","yellow","blue","[""yellow"",""blue"",""high nameability""]","left-right","[""yellow"",""blue"",""high nameability""]","1","high nameability","10","left","trigger",""
"html-button-response","60","688480","0.0-45.0-0.0","CAN_104","104","","","","","","682","<button class=""jspsych-btn""><img src=""stimuli/yellow.png"" style=""width: 200px;height: 200px;""></button>","0","yellow","blue","[""yellow"",""blue"",""high nameability""]","left-right","[""yellow"",""blue"",""high nameability""]","1","high nameability","10","left","response","1"
"html-audio-button-response","61","688686","0.0-45.0-1.0","CAN_104","104","","","","","","null","stimuli/bleep.m4a","null","yellow","blue","[""yellow"",""blue"",""high nameability""]","left-right","[""yellow"",""blue"",""high nameability""]","1","high nameability","10","left","audio_feedback","1"
"html-button-response","62","689206","0.0-46.0","CAN_104","104","","","","","","null","<button class=""jspsych-btn""><img src=""stimuli/white_square.png"" style=""width: 200px;height: 200px;""></button>","null","yellow","blue","[""yellow"",""blue"",""high nameability""]","left-right","[""yellow"",""blue"",""high nameability""]","1","high nameability","10","left","iti",""
"pavlovia","63","689295","0.0-47.0","CAN_104","104","","","","","","","","","","","","","","","","","","",""
"pavlovia","64","689309","0.0-48.0","CAN_104","104","","","","","","","","","","","","","","","","","","",""
"html-audio-button-response","65","691404","0.0-49.0","CAN_104","104","","","","","","2200","stimuli/tada.m4a","0","","","","","","","","","","",""
"html-button-response","66","692279","0.0-50.0","CAN_104","104","","","","","","869","","0","","","","","","","","","","",""
"html-button-response","67","693020","0.0-51.0","CAN_104","104","","","","","","735","","0","yellow","brown","[""yellow"",""brown"",""high nameability""]","right-left","[""brown"",""yellow""]","2","high nameability","11","right","trigger",""
"html-button-response","68","693719","0.0-52.0-0.0","CAN_104","104","","","","","","691","<button class=""jspsych-btn""><img src=""stimuli/yellow.png"" style=""width: 200px;height: 200px;""></button>","1","yellow","brown","[""yellow"",""brown"",""high nameability""]","right-left","[""brown"",""yellow""]","2","high nameability","11","right","response","1"
"html-audio-button-response","69","693924","0.0-52.0-1.0","CAN_104","104","","","","","","null","stimuli/bleep.m4a","null","yellow","brown","[""yellow"",""brown"",""high nameability""]","right-left","[""brown"",""yellow""]","2","high nameability","11","right","audio_feedback","1"
"html-button-response","70","694440","0.0-53.0","CAN_104","104","","","","","","null","<button class=""jspsych-btn""><img src=""stimuli/white_square.png"" style=""width: 200px;height: 200px;""></button>","null","yellow","brown","[""yellow"",""brown"",""high nameability""]","right-left","[""brown"",""yellow""]","2","high nameability","11","right","iti",""
"html-button-response","71","694953","0.0-54.0","CAN_104","104","","","","","","496","","0","neonyellow","pink","[""neonyellow"",""pink"",""low nameability""]","right-left","[""pink"",""neonyellow""]","2","low nameability","12","right","trigger",""
"html-button-response","72","695620","0.0-55.0-0.0","CAN_104","104","","","","","","660","<button class=""jspsych-btn""><img src=""stimuli/neonyellow.png"" style=""width: 200px;height: 200px;""></button>","1","neonyellow","pink","[""neonyellow"",""pink"",""low nameability""]","right-left","[""pink"",""neonyellow""]","2","low nameability","12","right","response","1"
"html-audio-button-response","73","695824","0.0-55.0-1.0","CAN_104","104","","","","","","null","stimuli/bleep.m4a","null","neonyellow","pink","[""neonyellow"",""pink"",""low nameability""]","right-left","[""pink"",""neonyellow""]","2","low nameability","12","right","audio_feedback","1"
"html-button-response","74","696342","0.0-56.0","CAN_104","104","","","","","","null","<button class=""jspsych-btn""><img src=""stimuli/white_square.png"" style=""width: 200px;height: 200px;""></button>","null","neonyellow","pink","[""neonyellow"",""pink"",""low nameability""]","right-left","[""pink"",""neonyellow""]","2","low nameability","12","right","iti",""
"html-button-response","75","696786","0.0-57.0","CAN_104","104","","","","","","420","","0","purple","yellow","[""purple"",""yellow"",""high nameability""]","right-left","[""yellow"",""purple""]","2","high nameability","13","right","trigger",""
"html-button-response","76","697478","0.0-58.0-0.0","CAN_104","104","","","","","","684","<button class=""jspsych-btn""><img src=""stimuli/purple.png"" style=""width: 200px;height: 200px;""></button>","1","purple","yellow","[""purple"",""yellow"",""high nameability""]","right-left","[""yellow"",""purple""]","2","high nameability","13","right","response","1"
"html-audio-button-response","77","697681","0.0-58.0-1.0","CAN_104","104","","","","","","null","stimuli/bleep.m4a","null","purple","yellow","[""purple"",""yellow"",""high nameability""]","right-left","[""yellow"",""purple""]","2","high nameability","13","right","audio_feedback","1"
"html-button-response","78","698200","0.0-59.0","CAN_104","104","","","","","","null","<button class=""jspsych-btn""><img src=""stimuli/white_square.png"" style=""width: 200px;height: 200px;""></button>","null","purple","yellow","[""purple"",""yellow"",""high nameability""]","right-left","[""yellow"",""purple""]","2","high nameability","13","right","iti",""
"html-button-response","79","698642","0.0-60.0","CAN_104","104","","","","","","424","","0","red","yellow","[""red"",""yellow"",""high nameability""]","left-right","[""red"",""yellow"",""high nameability""]","2","high nameability","14","left","trigger",""
"html-button-response","80","699259","0.0-61.0-0.0","CAN_104","104","","","","","","609","<button class=""jspsych-btn""><img src=""stimuli/red.png"" style=""width: 200px;height: 200px;""></button>","0","red","yellow","[""red"",""yellow"",""high nameability""]","left-right","[""red"",""yellow"",""high nameability""]","2","high nameability","14","left","response","1"
"html-audio-button-response","81","699465","0.0-61.0-1.0","CAN_104","104","","","","","","null","stimuli/bleep.m4a","null","red","yellow","[""red"",""yellow"",""high nameability""]","left-right","[""red"",""yellow"",""high nameability""]","2","high nameability","14","left","audio_feedback","1"
"html-button-response","82","699981","0.0-62.0","CAN_104","104","","","","","","null","<button class=""jspsych-btn""><img src=""stimuli/white_square.png"" style=""width: 200px;height: 200px;""></button>","null","red","yellow","[""red"",""yellow"",""high nameability""]","left-right","[""red"",""yellow"",""high nameability""]","2","high nameability","14","left","iti",""
"html-button-response","83","700460","0.0-63.0","CAN_104","104","","","","","","462","","0","lightred","turquoise","[""lightred"",""turquoise"",""low nameability""]","right-left","[""turquoise"",""lightred""]","2","low nameability","15","right","trigger",""
"html-button-response","84","701055","0.0-64.0-0.0","CAN_104","104","","","","","","586","<button class=""jspsych-btn""><img src=""stimuli/lightred.png"" style=""width: 200px;height: 200px;""></button>","1","lightred","turquoise","[""lightred"",""turquoise"",""low nameability""]","right-left","[""turquoise"",""lightred""]","2","low nameability","15","right","response","1"
"html-audio-button-response","85","701261","0.0-64.0-1.0","CAN_104","104","","","","","","null","stimuli/bleep.m4a","null","lightred","turquoise","[""lightred"",""turquoise"",""low nameability""]","right-left","[""turquoise"",""lightred""]","2","low nameability","15","right","audio_feedback","1"
"html-button-response","86","701784","0.0-65.0","CAN_104","104","","","","","","null","<button class=""jspsych-btn""><img src=""stimuli/white_square.png"" style=""width: 200px;height: 200px;""></button>","null","lightred","turquoise","[""lightred"",""turquoise"",""low nameability""]","right-left","[""turquoise"",""lightred""]","2","low nameability","15","right","iti",""
"html-button-response","87","702282","0.0-66.0","CAN_104","104","","","","","","479","","0","mustard","neonyellow","[""mustard"",""neonyellow"",""low nameability""]","right-left","[""neonyellow"",""mustard""]","2","low nameability","16","right","trigger",""
"html-button-response","88","702905","0.0-67.0-0.0","CAN_104","104","","","","","","615","<button class=""jspsych-btn""><img src=""stimuli/mustard.png"" style=""width: 200px;height: 200px;""></button>","1","mustard","neonyellow","[""mustard"",""neonyellow"",""low nameability""]","right-left","[""neonyellow"",""mustard""]","2","low nameability","16","right","response","1"
"html-audio-button-response","89","703111","0.0-67.0-1.0","CAN_104","104","","","","","","null","stimuli/bleep.m4a","null","mustard","neonyellow","[""mustard"",""neonyellow"",""low nameability""]","right-left","[""neonyellow"",""mustard""]","2","low nameability","16","right","audio_feedback","1"
"html-button-response","90","703632","0.0-68.0","CAN_104","104","","","","","","null","<button class=""jspsych-btn""><img src=""stimuli/white_square.png"" style=""width: 200px;height: 200px;""></button>","null","mustard","neonyellow","[""mustard"",""neonyellow"",""low nameability""]","right-left","[""neonyellow"",""mustard""]","2","low nameability","16","right","iti",""
"html-button-response","91","704223","0.0-69.0","CAN_104","104","","","","","","569","","0","neonyellow","mustard","[""neonyellow"",""mustard"",""low nameability""]","right-left","[""mustard"",""neonyellow""]","2","low nameability","17","right","trigger",""
"html-button-response","92","705032","0.0-70.0-0.0","CAN_104","104","","","","","","799","<button class=""jspsych-btn""><img src=""stimuli/neonyellow.png"" style=""width: 200px;height: 200px;""></button>","1","neonyellow","mustard","[""neonyellow"",""mustard"",""low nameability""]","right-left","[""mustard"",""neonyellow""]","2","low nameability","17","right","response","1"
"html-audio-button-response","93","705236","0.0-70.0-1.0","CAN_104","104","","","","","","null","stimuli/bleep.m4a","null","neonyellow","mustard","[""neonyellow"",""mustard"",""low nameability""]","right-left","[""mustard"",""neonyellow""]","2","low nameability","17","right","audio_feedback","1"
"html-button-response","94","705765","0.0-71.0","CAN_104","104","","","","","","null","<button class=""jspsych-btn""><img src=""stimuli/white_square.png"" style=""width: 200px;height: 200px;""></button>","null","neonyellow","mustard","[""neonyellow"",""mustard"",""low nameability""]","right-left","[""mustard"",""neonyellow""]","2","low nameability","17","right","iti",""
"html-button-response","95","706351","0.0-72.0","CAN_104","104","","","","","","570","","0","mustard","darkgreenblue","[""mustard"",""darkgreenblue"",""low nameability""]","right-left","[""darkgreenblue"",""mustard""]","2","low nameability","18","right","trigger",""
"html-button-response","96","706969","0.0-73.0-0.0","CAN_104","104","","","","","","610","<button class=""jspsych-btn""><img src=""stimuli/mustard.png"" style=""width: 200px;height: 200px;""></button>","1","mustard","darkgreenblue","[""mustard"",""darkgreenblue"",""low nameability""]","right-left","[""darkgreenblue"",""mustard""]","2","low nameability","18","right","response","1"
"html-audio-button-response","97","707171","0.0-73.0-1.0","CAN_104","104","","","","","","null","stimuli/bleep.m4a","null","mustard","darkgreenblue","[""mustard"",""darkgreenblue"",""low nameability""]","right-left","[""darkgreenblue"",""mustard""]","2","low nameability","18","right","audio_feedback","1"
"html-button-response","98","707690","0.0-74.0","CAN_104","104","","","","","","null","<button class=""jspsych-btn""><img src=""stimuli/white_square.png"" style=""width: 200px;height: 200px;""></button>","null","mustard","darkgreenblue","[""mustard"",""darkgreenblue"",""low nameability""]","right-left","[""darkgreenblue"",""mustard""]","2","low nameability","18","right","iti",""
"html-button-response","99","708121","0.0-75.0","CAN_104","104","","","","","","412","","0","brown","purple","[""brown"",""purple"",""high nameability""]","right-left","[""purple"",""brown""]","2","high nameability","19","right","trigger",""
"html-button-response","100","708835","0.0-76.0-0.0","CAN_104","104","","","","","","705","<button class=""jspsych-btn""><img src=""stimuli/brown.png"" style=""width: 200px;height: 200px;""></button>","1","brown","purple","[""brown"",""purple"",""high nameability""]","right-left","[""purple"",""brown""]","2","high nameability","19","right","response","1"
"html-audio-button-response","101","709041","0.0-76.0-1.0","CAN_104","104","","","","","","null","stimuli/bleep.m4a","null","brown","purple","[""brown"",""purple"",""high nameability""]","right-left","[""purple"",""brown""]","2","high nameability","19","right","audio_feedback","1"
"html-button-response","102","709564","0.0-77.0","CAN_104","104","","","","","","null","<button class=""jspsych-btn""><img src=""stimuli/white_square.png"" style=""width: 200px;height: 200px;""></button>","null","brown","purple","[""brown"",""purple"",""high nameability""]","right-left","[""purple"",""brown""]","2","high nameability","19","right","iti",""
"html-button-response","103","709997","0.0-78.0","CAN_104","104","","","","","","413","","0","darkgreenblue","neonyellow","[""darkgreenblue"",""neonyellow"",""low nameability""]","left-right","[""darkgreenblue"",""neonyellow"",""low nameability""]","2","low nameability","20","left","trigger",""
"html-button-response","104","710674","0.0-79.0-0.0","CAN_104","104","","","","","","673","<button class=""jspsych-btn""><img src=""stimuli/darkgreenblue.png"" style=""width: 200px;height: 200px;""></button>","0","darkgreenblue","neonyellow","[""darkgreenblue"",""neonyellow"",""low nameability""]","left-right","[""darkgreenblue"",""neonyellow"",""low nameability""]","2","low nameability","20","left","response","1"
"html-audio-button-response","105","710880","0.0-79.0-1.0","CAN_104","104","","","","","","null","stimuli/bleep.m4a","null","darkgreenblue","neonyellow","[""darkgreenblue"",""neonyellow"",""low nameability""]","left-right","[""darkgreenblue"",""neonyellow"",""low nameability""]","2","low nameability","20","left","audio_feedback","1"
"html-button-response","106","711397","0.0-80.0","CAN_104","104","","","","","","null","<button class=""jspsych-btn""><img src=""stimuli/white_square.png"" style=""width: 200px;height: 200px;""></button>","null","darkgreenblue","neonyellow","[""darkgreenblue"",""neonyellow"",""low nameability""]","left-right","[""darkgreenblue"",""neonyellow"",""low nameability""]","2","low nameability","20","left","iti",""
"pavlovia","107","711459","0.0-81.0","CAN_104","104","","","","","","","","","","","","","","","","","","",""
"pavlovia","108","711467","0.0-82.0","CAN_104","104","","","","","","","","","","","","","","","","","","",""
"html-audio-button-response","109","712834","0.0-83.0","CAN_104","104","","","","","","1437","stimuli/tada.m4a","0","","","","","","","","","","",""
"html-button-response","110","713615","0.0-84.0","CAN_104","104","","","","","","773","","0","","","","","","","","","","",""
"html-button-response","111","714334","0.0-85.0","CAN_104","104","","","","","","712","","0","mustard","turquoise","[""mustard"",""turquoise"",""low nameability""]","left-right","[""mustard"",""turquoise"",""low nameability""]","3","low nameability","21","left","trigger",""
"html-button-response","112","715057","0.0-86.0-0.0","CAN_104","104","","","","","","716","<button class=""jspsych-btn""><img src=""stimuli/mustard.png"" style=""width: 200px;height: 200px;""></button>","0","mustard","turquoise","[""mustard"",""turquoise"",""low nameability""]","left-right","[""mustard"",""turquoise"",""low nameability""]","3","low nameability","21","left","response","1"
"html-audio-button-response","113","715264","0.0-86.0-1.0","CAN_104","104","","","","","","null","stimuli/bleep.m4a","null","mustard","turquoise","[""mustard"",""turquoise"",""low nameability""]","left-right","[""mustard"",""turquoise"",""low nameability""]","3","low nameability","21","left","audio_feedback","1"
"html-button-response","114","715784","0.0-87.0","CAN_104","104","","","","","","null","<button class=""jspsych-btn""><img src=""stimuli/white_square.png"" style=""width: 200px;height: 200px;""></button>","null","mustard","turquoise","[""mustard"",""turquoise"",""low nameability""]","left-right","[""mustard"",""turquoise"",""low nameability""]","3","low nameability","21","left","iti",""
"html-button-response","115","716356","0.0-88.0","CAN_104","104","","","","","","556","","0","purple","brown","[""purple"",""brown"",""high nameability""]","left-right","[""purple"",""brown"",""high nameability""]","3","high nameability","22","left","trigger",""
"html-button-response","116","717027","0.0-89.0-0.0","CAN_104","104","","","","","","665","<button class=""jspsych-btn""><img src=""stimuli/purple.png"" style=""width: 200px;height: 200px;""></button>","0","purple","brown","[""purple"",""brown"",""high nameability""]","left-right","[""purple"",""brown"",""high nameability""]","3","high nameability","22","left","response","1"
"html-audio-button-response","117","717232","0.0-89.0-1.0","CAN_104","104","","","","","","null","stimuli/bleep.m4a","null","purple","brown","[""purple"",""brown"",""high nameability""]","left-right","[""purple"",""brown"",""high nameability""]","3","high nameability","22","left","audio_feedback","1"
"html-button-response","118","717757","0.0-90.0","CAN_104","104","","","","","","null","<button class=""jspsych-btn""><img src=""stimuli/white_square.png"" style=""width: 200px;height: 200px;""></button>","null","purple","brown","[""purple"",""brown"",""high nameability""]","left-right","[""purple"",""brown"",""high nameability""]","3","high nameability","22","left","iti",""
"html-button-response","119","718368","0.0-91.0","CAN_104","104","","","","","","596","","0","purple","red","[""purple"",""red"",""high nameability""]","left-right","[""purple"",""red"",""high nameability""]","3","high nameability","23","left","trigger",""
"html-button-response","120","718953","0.0-92.0-0.0","CAN_104","104","","","","","","575","<button class=""jspsych-btn""><img src=""stimuli/purple.png"" style=""width: 200px;height: 200px;""></button>","0","purple","red","[""purple"",""red"",""high nameability""]","left-right","[""purple"",""red"",""high nameability""]","3","high nameability","23","left","response","1"
"html-audio-button-response","121","719154","0.0-92.0-1.0","CAN_104","104","","","","","","null","stimuli/bleep.m4a","null","purple","red","[""purple"",""red"",""high nameability""]","left-right","[""purple"",""red"",""high nameability""]","3","high nameability","23","left","audio_feedback","1"
"html-button-response","122","719665","0.0-93.0","CAN_104","104","","","","","","null","<button class=""jspsych-btn""><img src=""stimuli/white_square.png"" style=""width: 200px;height: 200px;""></button>","null","purple","red","[""purple"",""red"",""high nameability""]","left-right","[""purple"",""red"",""high nameability""]","3","high nameability","23","left","iti",""
"html-button-response","123","720248","0.0-94.0","CAN_104","104","","","","","","564","","0","neonyellow","darkgreenblue","[""neonyellow"",""darkgreenblue"",""low nameability""]","right-left","[""darkgreenblue"",""neonyellow""]","3","low nameability","24","right","trigger",""
"html-button-response","124","720854","0.0-95.0-0.0","CAN_104","104","","","","","","597","<button class=""jspsych-btn""><img src=""stimuli/neonyellow.png"" style=""width: 200px;height: 200px;""></button>","1","neonyellow","darkgreenblue","[""neonyellow"",""darkgreenblue"",""low nameability""]","right-left","[""darkgreenblue"",""neonyellow""]","3","low nameability","24","right","response","1"
"html-audio-button-response","125","721056","0.0-95.0-1.0","CAN_104","104","","","","","","null","stimuli/bleep.m4a","null","neonyellow","darkgreenblue","[""neonyellow"",""darkgreenblue"",""low nameability""]","right-left","[""darkgreenblue"",""neonyellow""]","3","low nameability","24","right","audio_feedback","1"
"html-button-response","126","721573","0.0-96.0","CAN_104","104","","","","","","null","<button class=""jspsych-btn""><img src=""stimuli/white_square.png"" style=""width: 200px;height: 200px;""></button>","null","neonyellow","darkgreenblue","[""neonyellow"",""darkgreenblue"",""low nameability""]","right-left","[""darkgreenblue"",""neonyellow""]","3","low nameability","24","right","iti",""
"html-button-response","127","722056","0.0-97.0","CAN_104","104","","","","","","463","","0","brown","orange","[""brown"",""orange"",""high nameability""]","left-right","[""brown"",""orange"",""high nameability""]","3","high nameability","25","left","trigger",""
"html-button-response","128","722837","0.0-98.0-0.0","CAN_104","104","","","","","","772","<button class=""jspsych-btn""><img src=""stimuli/brown.png"" style=""width: 200px;height: 200px;""></button>","0","brown","orange","[""brown"",""orange"",""high nameability""]","left-right","[""brown"",""orange"",""high nameability""]","3","high nameability","25","left","response","1"
"html-audio-button-response","129","723045","0.0-98.0-1.0","CAN_104","104","","","","","","null","stimuli/bleep.m4a","null","brown","orange","[""brown"",""orange"",""high nameability""]","left-right","[""brown"",""orange"",""high nameability""]","3","high nameability","25","left","audio_feedback","1"
"html-button-response","130","723568","0.0-99.0","CAN_104","104","","","","","","null","<button class=""jspsych-btn""><img src=""stimuli/white_square.png"" style=""width: 200px;height: 200px;""></button>","null","brown","orange","[""brown"",""orange"",""high nameability""]","left-right","[""brown"",""orange"",""high nameability""]","3","high nameability","25","left","iti",""
"html-button-response","131","724076","0.0-100.0","CAN_104","104","","","","","","492","","0","yellow","orange","[""yellow"",""orange"",""high nameability""]","right-left","[""orange"",""yellow""]","3","high nameability","26","right","trigger",""
"html-button-response","132","724725","0.0-101.0-0.0","CAN_104","104","","","","","","641","<button class=""jspsych-btn""><img src=""stimuli/yellow.png"" style=""width: 200px;height: 200px;""></button>","1","yellow","orange","[""yellow"",""orange"",""high nameability""]","right-left","[""orange"",""yellow""]","3","high nameability","26","right","response","1"
"html-audio-button-response","133","724933","0.0-101.0-1.0","CAN_104","104","","","","","","null","stimuli/bleep.m4a","null","yellow","orange","[""yellow"",""orange"",""high nameability""]","right-left","[""orange"",""yellow""]","3","high nameability","26","right","audio_feedback","1"
"html-button-response","134","725457","0.0-102.0","CAN_104","104","","","","","","null","<button class=""jspsych-btn""><img src=""stimuli/white_square.png"" style=""width: 200px;height: 200px;""></button>","null","yellow","orange","[""yellow"",""orange"",""high nameability""]","right-left","[""orange"",""yellow""]","3","high nameability","26","right","iti",""
"html-button-response","135","725929","0.0-103.0","CAN_104","104","","","","","","453","","0","blue","orange","[""blue"",""orange"",""high nameability""]","left-right","[""blue"",""orange"",""high nameability""]","3","high nameability","27","left","trigger",""
"html-button-response","136","726519","0.0-104.0-0.0","CAN_104","104","","","","","","582","<button class=""jspsych-btn""><img src=""stimuli/blue.png"" style=""width: 200px;height: 200px;""></button>","0","blue","orange","[""blue"",""orange"",""high nameability""]","left-right","[""blue"",""orange"",""high nameability""]","3","high nameability","27","left","response","1"
"html-audio-button-response","137","726724","0.0-104.0-1.0","CAN_104","104","","","","","","null","stimuli/bleep.m4a","null","blue","orange","[""blue"",""orange"",""high nameability""]","left-right","[""blue"",""orange"",""high nameability""]","3","high nameability","27","left","audio_feedback","1"
"html-button-response","138","727241","0.0-105.0","CAN_104","104","","","","","","null","<button class=""jspsych-btn""><img src=""stimuli/white_square.png"" style=""width: 200px;height: 200px;""></button>","null","blue","orange","[""blue"",""orange"",""high nameability""]","left-right","[""blue"",""orange"",""high nameability""]","3","high nameability","27","left","iti",""
"html-button-response","139","727765","0.0-106.0","CAN_104","104","","","","","","502","","0","lightred","darkgreenblue","[""lightred"",""darkgreenblue"",""low nameability""]","left-right","[""lightred"",""darkgreenblue"",""low nameability""]","3","low nameability","28","left","trigger",""
"html-button-response","140","728358","0.0-107.0-0.0","CAN_104","104","","","","","","586","<button class=""jspsych-btn""><img src=""stimuli/lightred.png"" style=""width: 200px;height: 200px;""></button>","0","lightred","darkgreenblue","[""lightred"",""darkgreenblue"",""low nameability""]","left-right","[""lightred"",""darkgreenblue"",""low nameability""]","3","low nameability","28","left","response","1"
"html-audio-button-response","141","728560","0.0-107.0-1.0","CAN_104","104","","","","","","null","stimuli/bleep.m4a","null","lightred","darkgreenblue","[""lightred"",""darkgreenblue"",""low nameability""]","left-right","[""lightred"",""darkgreenblue"",""low nameability""]","3","low nameability","28","left","audio_feedback","1"
"html-button-response","142","729083","0.0-108.0","CAN_104","104","","","","","","null","<button class=""jspsych-btn""><img src=""stimuli/white_square.png"" style=""width: 200px;height: 200px;""></button>","null","lightred","darkgreenblue","[""lightred"",""darkgreenblue"",""low nameability""]","left-right","[""lightred"",""darkgreenblue"",""low nameability""]","3","low nameability","28","left","iti",""
"html-button-response","143","729616","0.0-109.0","CAN_104","104","","","","","","516","","0","orange","brown","[""orange"",""brown"",""high nameability""]","right-left","[""brown"",""orange""]","3","high nameability","29","right","trigger",""
"html-button-response","144","730232","0.0-110.0-0.0","CAN_104","104","","","","","","609","<button class=""jspsych-btn""><img src=""stimuli/orange.png"" style=""width: 200px;height: 200px;""></button>","1","orange","brown","[""orange"",""brown"",""high nameability""]","right-left","[""brown"",""orange""]","3","high nameability","29","right","response","1"
"html-audio-button-response","145","730437","0.0-110.0-1.0","CAN_104","104","","","","","","null","stimuli/bleep.m4a","null","orange","brown","[""orange"",""brown"",""high nameability""]","right-left","[""brown"",""orange""]","3","high nameability","29","right","audio_feedback","1"
"html-button-response","146","730953","0.0-111.0","CAN_104","104","","","","","","null","<button class=""jspsych-btn""><img src=""stimuli/white_square.png"" style=""width: 200px;height: 200px;""></button>","null","orange","brown","[""orange"",""brown"",""high nameability""]","right-left","[""brown"",""orange""]","3","high nameability","29","right","iti",""
"html-button-response","147","731409","0.0-112.0","CAN_104","104","","","","","","445","","0","orange","red","[""orange"",""red"",""high nameability""]","right-left","[""red"",""orange""]","3","high nameability","30","right","trigger",""
"html-button-response","148","732113","0.0-113.0-0.0","CAN_104","104","","","","","","697","<button class=""jspsych-btn""><img src=""stimuli/orange.png"" style=""width: 200px;height: 200px;""></button>","1","orange","red","[""orange"",""red"",""high nameability""]","right-left","[""red"",""orange""]","3","high nameability","30","right","response","1"
"html-audio-button-response","149","732317","0.0-113.0-1.0","CAN_104","104","","","","","","null","stimuli/bleep.m4a","null","orange","red","[""orange"",""red"",""high nameability""]","right-left","[""red"",""orange""]","3","high nameability","30","right","audio_feedback","1"
"html-button-response","150","732835","0.0-114.0","CAN_104","104","","","","","","null","<button class=""jspsych-btn""><img src=""stimuli/white_square.png"" style=""width: 200px;height: 200px;""></button>","null","orange","red","[""orange"",""red"",""high nameability""]","right-left","[""red"",""orange""]","3","high nameability","30","right","iti",""
"pavlovia","151","732890","0.0-115.0","CAN_104","104","","","","","","","","","","","","","","","","","","",""
"pavlovia","152","732898","0.0-116.0","CAN_104","104","","","","","","","","","","","","","","","","","","",""
"html-audio-button-response","153","734199","0.0-117.0","CAN_104","104","","","","","","1365","stimuli/tada.m4a","0","","","","","","","","","","",""
"html-button-response","154","734786","0.0-118.0","CAN_104","104","","","","","","581","","0","","","","","","","","","","",""
"html-button-response","155","735343","0.0-119.0","CAN_104","104","","","","","","551","","0","purple","orange","[""purple"",""orange"",""high nameability""]","left-right","[""purple"",""orange"",""high nameability""]","4","high nameability","31","left","trigger",""
"html-button-response","156","736079","0.0-120.0-0.0","CAN_104","104","","","","","","730","<button class=""jspsych-btn""><img src=""stimuli/purple.png"" style=""width: 200px;height: 200px;""></button>","0","purple","orange","[""purple"",""orange"",""high nameability""]","left-right","[""purple"",""orange"",""high nameability""]","4","high nameability","31","left","response","1"
"html-audio-button-response","157","736279","0.0-120.0-1.0","CAN_104","104","","","","","","null","stimuli/bleep.m4a","null","purple","orange","[""purple"",""orange"",""high nameability""]","left-right","[""purple"",""orange"",""high nameability""]","4","high nameability","31","left","audio_feedback","1"
"html-button-response","158","736799","0.0-121.0","CAN_104","104","","","","","","null","<button class=""jspsych-btn""><img src=""stimuli/white_square.png"" style=""width: 200px;height: 200px;""></button>","null","purple","orange","[""purple"",""orange"",""high nameability""]","left-right","[""purple"",""orange"",""high nameability""]","4","high nameability","31","left","iti",""
"html-button-response","159","737263","0.0-122.0","CAN_104","104","","","","","","444","","0","brown","blue","[""brown"",""blue"",""high nameability""]","left-right","[""brown"",""blue"",""high nameability""]","4","high nameability","32","left","trigger",""
"html-button-response","160","737943","0.0-123.0-0.0","CAN_104","104","","","","","","672","<button class=""jspsych-btn""><img src=""stimuli/brown.png"" style=""width: 200px;height: 200px;""></button>","0","brown","blue","[""brown"",""blue"",""high nameability""]","left-right","[""brown"",""blue"",""high nameability""]","4","high nameability","32","left","response","1"
"html-audio-button-response","161","738144","0.0-123.0-1.0","CAN_104","104","","","","","","null","stimuli/bleep.m4a","null","brown","blue","[""brown"",""blue"",""high nameability""]","left-right","[""brown"",""blue"",""high nameability""]","4","high nameability","32","left","audio_feedback","1"
"html-button-response","162","738667","0.0-124.0","CAN_104","104","","","","","","null","<button class=""jspsych-btn""><img src=""stimuli/white_square.png"" style=""width: 200px;height: 200px;""></button>","null","brown","blue","[""brown"",""blue"",""high nameability""]","left-right","[""brown"",""blue"",""high nameability""]","4","high nameability","32","left","iti",""
"html-button-response","163","739201","0.0-125.0","CAN_104","104","","","","","","511","","0","pink","neonyellow","[""pink"",""neonyellow"",""low nameability""]","right-left","[""neonyellow"",""pink""]","4","low nameability","33","right","trigger",""
"html-button-response","164","739812","0.0-126.0-0.0","CAN_104","104","","","","","","604","<button class=""jspsych-btn""><img src=""stimuli/pink.png"" style=""width: 200px;height: 200px;""></button>","1","pink","neonyellow","[""pink"",""neonyellow"",""low nameability""]","right-left","[""neonyellow"",""pink""]","4","low nameability","33","right","response","1"
"html-audio-button-response","165","740017","0.0-126.0-1.0","CAN_104","104","","","","","","null","stimuli/bleep.m4a","null","pink","neonyellow","[""pink"",""neonyellow"",""low nameability""]","right-left","[""neonyellow"",""pink""]","4","low nameability","33","right","audio_feedback","1"
"html-button-response","166","740533","0.0-127.0","CAN_104","104","","","","","","null","<button class=""jspsych-btn""><img src=""stimuli/white_square.png"" style=""width: 200px;height: 200px;""></button>","null","pink","neonyellow","[""pink"",""neonyellow"",""low nameability""]","right-left","[""neonyellow"",""pink""]","4","low nameability","33","right","iti",""
"html-button-response","167","741091","0.0-128.0","CAN_104","104","","","","","","541","","0","lightred","neonyellow","[""lightred"",""neonyellow"",""low nameability""]","left-right","[""lightred"",""neonyellow"",""low nameability""]","4","low nameability","34","left","trigger",""
"html-button-response","168","741689","0.0-129.0-0.0","CAN_104","104","","","","","","590","<button class=""jspsych-btn""><img src=""stimuli/lightred.png"" style=""width: 200px;height: 200px;""></button>","0","lightred","neonyellow","[""lightred"",""neonyellow"",""low nameability""]","left-right","[""lightred"",""neonyellow"",""low nameability""]","4","low nameability","34","left","response","1"
"html-audio-button-response","169","741892","0.0-129.0-1.0","CAN_104","104","","","","","","null","stimuli/bleep.m4a","null","lightred","neonyellow","[""lightred"",""neonyellow"",""low nameability""]","left-right","[""lightred"",""neonyellow"",""low nameability""]","4","low nameability","34","left","audio_feedback","1"
"html-button-response","170","742410","0.0-130.0","CAN_104","104","","","","","","null","<button class=""jspsych-btn""><img src=""stimuli/white_square.png"" style=""width: 200px;height: 200px;""></button>","null","lightred","neonyellow","[""lightred"",""neonyellow"",""low nameability""]","left-right","[""lightred"",""neonyellow"",""low nameability""]","4","low nameability","34","left","iti",""
"html-button-response","171","742890","0.0-131.0","CAN_104","104","","","","","","463","","0","pink","lightred","[""pink"",""lightred"",""low nameability""]","right-left","[""lightred"",""pink""]","4","low nameability","35","right","trigger",""
"html-button-response","172","743662","0.0-132.0-0.0","CAN_104","104","","","","","","766","<button class=""jspsych-btn""><img src=""stimuli/pink.png"" style=""width: 200px;height: 200px;""></button>","1","pink","lightred","[""pink"",""lightred"",""low nameability""]","right-left","[""lightred"",""pink""]","4","low nameability","35","right","response","1"
"html-audio-button-response","173","743873","0.0-132.0-1.0","CAN_104","104","","","","","","null","stimuli/bleep.m4a","null","pink","lightred","[""pink"",""lightred"",""low nameability""]","right-left","[""lightred"",""pink""]","4","low nameability","35","right","audio_feedback","1"
"html-button-response","174","744392","0.0-133.0","CAN_104","104","","","","","","null","<button class=""jspsych-btn""><img src=""stimuli/white_square.png"" style=""width: 200px;height: 200px;""></button>","null","pink","lightred","[""pink"",""lightred"",""low nameability""]","right-left","[""lightred"",""pink""]","4","low nameability","35","right","iti",""
"html-button-response","175","744848","0.0-134.0","CAN_104","104","","","","","","437","","0","purple","blue","[""purple"",""blue"",""high nameability""]","left-right","[""purple"",""blue"",""high nameability""]","4","high nameability","36","left","trigger",""
"html-button-response","176","745432","0.0-135.0-0.0","CAN_104","104","","","","","","577","<button class=""jspsych-btn""><img src=""stimuli/purple.png"" style=""width: 200px;height: 200px;""></button>","0","purple","blue","[""purple"",""blue"",""high nameability""]","left-right","[""purple"",""blue"",""high nameability""]","4","high nameability","36","left","response","1"
"html-audio-button-response","177","745644","0.0-135.0-1.0","CAN_104","104","","","","","","null","stimuli/bleep.m4a","null","purple","blue","[""purple"",""blue"",""high nameability""]","left-right","[""purple"",""blue"",""high nameability""]","4","high nameability","36","left","audio_feedback","1"
"html-button-response","178","746165","0.0-136.0","CAN_104","104","","","","","","null","<button class=""jspsych-btn""><img src=""stimuli/white_square.png"" style=""width: 200px;height: 200px;""></button>","null","purple","blue","[""purple"",""blue"",""high nameability""]","left-right","[""purple"",""blue"",""high nameability""]","4","high nameability","36","left","iti",""
"html-button-response","179","746657","0.0-137.0","CAN_104","104","","","","","","465","","0","red","purple","[""red"",""purple"",""high nameability""]","right-left","[""purple"",""red""]","4","high nameability","37","right","trigger",""
"html-button-response","180","747221","0.0-138.0-0.0","CAN_104","104","","","","","","556","<button class=""jspsych-btn""><img src=""stimuli/red.png"" style=""width: 200px;height: 200px;""></button>","1","red","purple","[""red"",""purple"",""high nameability""]","right-left","[""purple"",""red""]","4","high nameability","37","right","response","1"
"html-audio-button-response","181","747423","0.0-138.0-1.0","CAN_104","104","","","","","","null","stimuli/bleep.m4a","null","red","purple","[""red"",""purple"",""high nameability""]","right-left","[""purple"",""red""]","4","high nameability","37","right","audio_feedback","1"
"html-button-response","182","747952","0.0-139.0","CAN_104","104","","","","","","null","<button class=""jspsych-btn""><img src=""stimuli/white_square.png"" style=""width: 200px;height: 200px;""></button>","null","red","purple","[""red"",""purple"",""high nameability""]","right-left","[""purple"",""red""]","4","high nameability","37","right","iti",""
"html-button-response","183","748471","0.0-140.0","CAN_104","104","","","","","","484","","0","orange","blue","[""orange"",""blue"",""high nameability""]","right-left","[""blue"",""orange""]","4","high nameability","38","right","trigger",""
"html-button-response","184","749027","0.0-141.0-0.0","CAN_104","104","","","","","","542","<button class=""jspsych-btn""><img src=""stimuli/orange.png"" style=""width: 200px;height: 200px;""></button>","1","orange","blue","[""orange"",""blue"",""high nameability""]","right-left","[""blue"",""orange""]","4","high nameability","38","right","response","1"
"html-audio-button-response","185","749232","0.0-141.0-1.0","CAN_104","104","","","","","","null","stimuli/bleep.m4a","null","orange","blue","[""orange"",""blue"",""high nameability""]","right-left","[""blue"",""orange""]","4","high nameability","38","right","audio_feedback","1"
"html-button-response","186","749752","0.0-142.0","CAN_104","104","","","","","","null","<button class=""jspsych-btn""><img src=""stimuli/white_square.png"" style=""width: 200px;height: 200px;""></button>","null","orange","blue","[""orange"",""blue"",""high nameability""]","right-left","[""blue"",""orange""]","4","high nameability","38","right","iti",""
"html-button-response","187","750228","0.0-143.0","CAN_104","104","","","","","","459","","0","turquoise","lightred","[""turquoise"",""lightred"",""low nameability""]","right-left","[""lightred"",""turquoise""]","4","low nameability","39","right","trigger",""
"html-button-response","188","750805","0.0-144.0-0.0","CAN_104","104","","","","","","571","<button class=""jspsych-btn""><img src=""stimuli/turquoise.png"" style=""width: 200px;height: 200px;""></button>","1","turquoise","lightred","[""turquoise"",""lightred"",""low nameability""]","right-left","[""lightred"",""turquoise""]","4","low nameability","39","right","response","1"
"html-audio-button-response","189","751007","0.0-144.0-1.0","CAN_104","104","","","","","","null","stimuli/bleep.m4a","null","turquoise","lightred","[""turquoise"",""lightred"",""low nameability""]","right-left","[""lightred"",""turquoise""]","4","low nameability","39","right","audio_feedback","1"
"html-button-response","190","751529","0.0-145.0","CAN_104","104","","","","","","null","<button class=""jspsych-btn""><img src=""stimuli/white_square.png"" style=""width: 200px;height: 200px;""></button>","null","turquoise","lightred","[""turquoise"",""lightred"",""low nameability""]","right-left","[""lightred"",""turquoise""]","4","low nameability","39","right","iti",""
"html-button-response","191","752042","0.0-146.0","CAN_104","104","","","","","","500","","0","red","brown","[""red"",""brown"",""high nameability""]","left-right","[""red"",""brown"",""high nameability""]","4","high nameability","40","left","trigger",""
"html-button-response","192","752638","0.0-147.0-0.0","CAN_104","104","","","","","","591","<button class=""jspsych-btn""><img src=""stimuli/red.png"" style=""width: 200px;height: 200px;""></button>","0","red","brown","[""red"",""brown"",""high nameability""]","left-right","[""red"",""brown"",""high nameability""]","4","high nameability","40","left","response","1"
"html-audio-button-response","193","752842","0.0-147.0-1.0","CAN_104","104","","","","","","null","stimuli/bleep.m4a","null","red","brown","[""red"",""brown"",""high nameability""]","left-right","[""red"",""brown"",""high nameability""]","4","high nameability","40","left","audio_feedback","1"
"html-button-response","194","753359","0.0-148.0","CAN_104","104","","","","","","null","<button class=""jspsych-btn""><img src=""stimuli/white_square.png"" style=""width: 200px;height: 200px;""></button>","null","red","brown","[""red"",""brown"",""high nameability""]","left-right","[""red"",""brown"",""high nameability""]","4","high nameability","40","left","iti",""
"pavlovia","195","753405","0.0-149.0","CAN_104","104","","","","","","","","","","","","","","","","","","",""
"pavlovia","196","753412","0.0-150.0","CAN_104","104","","","","","","","","","","","","","","","","","","",""
"html-audio-button-response","197","754572","0.0-151.0","CAN_104","104","","","","","","1216","stimuli/tada.m4a","0","","","","","","","","","","",""
"html-button-response","198","755255","0.0-152.0","CAN_104","104","","","","","","678","","0","","","","","","","","","","",""
"html-button-response","199","756037","0.0-153.0","CAN_104","104","","","","","","775","","0","blue","purple","[""blue"",""purple"",""high nameability""]","left-right","[""blue"",""purple"",""high nameability""]","5","high nameability","41","left","trigger",""
"html-button-response","200","756843","0.0-154.0-0.0","CAN_104","104","","","","","","798","<button class=""jspsych-btn""><img src=""stimuli/blue.png"" style=""width: 200px;height: 200px;""></button>","0","blue","purple","[""blue"",""purple"",""high nameability""]","left-right","[""blue"",""purple"",""high nameability""]","5","high nameability","41","left","response","1"
"html-audio-button-response","201","757053","0.0-154.0-1.0","CAN_104","104","","","","","","null","stimuli/bleep.m4a","null","blue","purple","[""blue"",""purple"",""high nameability""]","left-right","[""blue"",""purple"",""high nameability""]","5","high nameability","41","left","audio_feedback","1"
"html-button-response","202","757574","0.0-155.0","CAN_104","104","","","","","","null","<button class=""jspsych-btn""><img src=""stimuli/white_square.png"" style=""width: 200px;height: 200px;""></button>","null","blue","purple","[""blue"",""purple"",""high nameability""]","left-right","[""blue"",""purple"",""high nameability""]","5","high nameability","41","left","iti",""
"html-button-response","203","758007","0.0-156.0","CAN_104","104","","","","","","417","","0","mustard","lightred","[""mustard"",""lightred"",""low nameability""]","left-right","[""mustard"",""lightred"",""low nameability""]","5","low nameability","42","left","trigger",""
"html-button-response","204","758567","0.0-157.0-0.0","CAN_104","104","","","","","","552","<button class=""jspsych-btn""><img src=""stimuli/mustard.png"" style=""width: 200px;height: 200px;""></button>","0","mustard","lightred","[""mustard"",""lightred"",""low nameability""]","left-right","[""mustard"",""lightred"",""low nameability""]","5","low nameability","42","left","response","1"
"html-audio-button-response","205","758773","0.0-157.0-1.0","CAN_104","104","","","","","","null","stimuli/bleep.m4a","null","mustard","lightred","[""mustard"",""lightred"",""low nameability""]","left-right","[""mustard"",""lightred"",""low nameability""]","5","low nameability","42","left","audio_feedback","1"
"html-button-response","206","759293","0.0-158.0","CAN_104","104","","","","","","null","<button class=""jspsych-btn""><img src=""stimuli/white_square.png"" style=""width: 200px;height: 200px;""></button>","null","mustard","lightred","[""mustard"",""lightred"",""low nameability""]","left-right","[""mustard"",""lightred"",""low nameability""]","5","low nameability","42","left","iti",""
"html-button-response","207","759885","0.0-159.0","CAN_104","104","","","","","","576","","0","brown","yellow","[""brown"",""yellow"",""high nameability""]","left-right","[""brown"",""yellow"",""high nameability""]","5","high nameability","43","left","trigger",""
"html-button-response","208","760466","0.0-160.0-0.0","CAN_104","104","","","","","","574","<button class=""jspsych-btn""><img src=""stimuli/brown.png"" style=""width: 200px;height: 200px;""></button>","0","brown","yellow","[""brown"",""yellow"",""high nameability""]","left-right","[""brown"",""yellow"",""high nameability""]","5","high nameability","43","left","response","1"
"html-audio-button-response","209","760669","0.0-160.0-1.0","CAN_104","104","","","","","","null","stimuli/bleep.m4a","null","brown","yellow","[""brown"",""yellow"",""high nameability""]","left-right","[""brown"",""yellow"",""high nameability""]","5","high nameability","43","left","audio_feedback","1"
"html-button-response","210","761187","0.0-161.0","CAN_104","104","","","","","","null","<button class=""jspsych-btn""><img src=""stimuli/white_square.png"" style=""width: 200px;height: 200px;""></button>","null","brown","yellow","[""brown"",""yellow"",""high nameability""]","left-right","[""brown"",""yellow"",""high nameability""]","5","high nameability","43","left","iti",""
"html-button-response","211","761641","0.0-162.0","CAN_104","104","","","","","","440","","0","neonyellow","turquoise","[""neonyellow"",""turquoise"",""low nameability""]","right-left","[""turquoise"",""neonyellow""]","5","low nameability","44","right","trigger",""
"html-button-response","212","762273","0.0-163.0-0.0","CAN_104","104","","","","","","625","<button class=""jspsych-btn""><img src=""stimuli/neonyellow.png"" style=""width: 200px;height: 200px;""></button>","1","neonyellow","turquoise","[""neonyellow"",""turquoise"",""low nameability""]","right-left","[""turquoise"",""neonyellow""]","5","low nameability","44","right","response","1"
"html-audio-button-response","213","762477","0.0-163.0-1.0","CAN_104","104","","","","","","null","stimuli/bleep.m4a","null","neonyellow","turquoise","[""neonyellow"",""turquoise"",""low nameability""]","right-left","[""turquoise"",""neonyellow""]","5","low nameability","44","right","audio_feedback","1"
"html-button-response","214","762996","0.0-164.0","CAN_104","104","","","","","","null","<button class=""jspsych-btn""><img src=""stimuli/white_square.png"" style=""width: 200px;height: 200px;""></button>","null","neonyellow","turquoise","[""neonyellow"",""turquoise"",""low nameability""]","right-left","[""turquoise"",""neonyellow""]","5","low nameability","44","right","iti",""
"html-button-response","215","763474","0.0-165.0","CAN_104","104","","","","","","460","","0","blue","yellow","[""blue"",""yellow"",""high nameability""]","left-right","[""blue"",""yellow"",""high nameability""]","5","high nameability","45","left","trigger",""
"html-button-response","216","764290","0.0-166.0-0.0","CAN_104","104","","","","","","810","<button class=""jspsych-btn""><img src=""stimuli/blue.png"" style=""width: 200px;height: 200px;""></button>","0","blue","yellow","[""blue"",""yellow"",""high nameability""]","left-right","[""blue"",""yellow"",""high nameability""]","5","high nameability","45","left","response","1"
"html-audio-button-response","217","764493","0.0-166.0-1.0","CAN_104","104","","","","","","null","stimuli/bleep.m4a","null","blue","yellow","[""blue"",""yellow"",""high nameability""]","left-right","[""blue"",""yellow"",""high nameability""]","5","high nameability","45","left","audio_feedback","1"
"html-button-response","218","765013","0.0-167.0","CAN_104","104","","","","","","null","<button class=""jspsych-btn""><img src=""stimuli/white_square.png"" style=""width: 200px;height: 200px;""></button>","null","blue","yellow","[""blue"",""yellow"",""high nameability""]","left-right","[""blue"",""yellow"",""high nameability""]","5","high nameability","45","left","iti",""
"html-button-response","219","765504","0.0-168.0","CAN_104","104","","","","","","474","","0","yellow","red","[""yellow"",""red"",""high nameability""]","right-left","[""red"",""yellow""]","5","high nameability","46","right","trigger",""
"html-button-response","220","766085","0.0-169.0-0.0","CAN_104","104","","","","","","572","<button class=""jspsych-btn""><img src=""stimuli/yellow.png"" style=""width: 200px;height: 200px;""></button>","1","yellow","red","[""yellow"",""red"",""high nameability""]","right-left","[""red"",""yellow""]","5","high nameability","46","right","response","1"
"html-audio-button-response","221","766288","0.0-169.0-1.0","CAN_104","104","","","","","","null","stimuli/bleep.m4a","null","yellow","red","[""yellow"",""red"",""high nameability""]","right-left","[""red"",""yellow""]","5","high nameability","46","right","audio_feedback","1"
"html-button-response","222","766806","0.0-170.0","CAN_104","104","","","","","","null","<button class=""jspsych-btn""><img src=""stimuli/white_square.png"" style=""width: 200px;height: 200px;""></button>","null","yellow","red","[""yellow"",""red"",""high nameability""]","right-left","[""red"",""yellow""]","5","high nameability","46","right","iti",""
"html-button-response","223","767346","0.0-171.0","CAN_104","104","","","","","","526","","0","lightred","mustard","[""lightred"",""mustard"",""low nameability""]","left-right","[""lightred"",""mustard"",""low nameability""]","5","low nameability","47","left","trigger",""
"html-button-response","224","767901","0.0-172.0-0.0","CAN_104","104","","","","","","550","<button class=""jspsych-btn""><img src=""stimuli/lightred.png"" style=""width: 200px;height: 200px;""></button>","0","lightred","mustard","[""lightred"",""mustard"",""low nameability""]","left-right","[""lightred"",""mustard"",""low nameability""]","5","low nameability","47","left","response","1"
"html-audio-button-response","225","768104","0.0-172.0-1.0","CAN_104","104","","","","","","null","stimuli/bleep.m4a","null","lightred","mustard","[""lightred"",""mustard"",""low nameability""]","left-right","[""lightred"",""mustard"",""low nameability""]","5","low nameability","47","left","audio_feedback","1"
"html-button-response","226","768630","0.0-173.0","CAN_104","104","","","","","","null","<button class=""jspsych-btn""><img src=""stimuli/white_square.png"" style=""width: 200px;height: 200px;""></button>","null","lightred","mustard","[""lightred"",""mustard"",""low nameability""]","left-right","[""lightred"",""mustard"",""low nameability""]","5","low nameability","47","left","iti",""
"html-button-response","227","769114","0.0-174.0","CAN_104","104","","","","","","471","","0","blue","brown","[""blue"",""brown"",""high nameability""]","left-right","[""blue"",""brown"",""high nameability""]","5","high nameability","48","left","trigger",""
"html-button-response","228","769669","0.0-175.0-0.0","CAN_104","104","","","","","","548","<button class=""jspsych-btn""><img src=""stimuli/blue.png"" style=""width: 200px;height: 200px;""></button>","0","blue","brown","[""blue"",""brown"",""high nameability""]","left-right","[""blue"",""brown"",""high nameability""]","5","high nameability","48","left","response","1"
"html-audio-button-response","229","769871","0.0-175.0-1.0","CAN_104","104","","","","","","null","stimuli/bleep.m4a","null","blue","brown","[""blue"",""brown"",""high nameability""]","left-right","[""blue"",""brown"",""high nameability""]","5","high nameability","48","left","audio_feedback","1"
"html-button-response","230","770397","0.0-176.0","CAN_104","104","","","","","","null","<button class=""jspsych-btn""><img src=""stimuli/white_square.png"" style=""width: 200px;height: 200px;""></button>","null","blue","brown","[""blue"",""brown"",""high nameability""]","left-right","[""blue"",""brown"",""high nameability""]","5","high nameability","48","left","iti",""
"html-button-response","231","770915","0.0-177.0","CAN_104","104","","","","","","502","","0","blue","red","[""blue"",""red"",""high nameability""]","right-left","[""red"",""blue""]","5","high nameability","49","right","trigger",""
"html-button-response","232","771490","0.0-178.0-0.0","CAN_104","104","","","","","","569","<button class=""jspsych-btn""><img src=""stimuli/blue.png"" style=""width: 200px;height: 200px;""></button>","1","blue","red","[""blue"",""red"",""high nameability""]","right-left","[""red"",""blue""]","5","high nameability","49","right","response","1"
"html-audio-button-response","233","771692","0.0-178.0-1.0","CAN_104","104","","","","","","null","stimuli/bleep.m4a","null","blue","red","[""blue"",""red"",""high nameability""]","right-left","[""red"",""blue""]","5","high nameability","49","right","audio_feedback","1"
"html-button-response","234","772212","0.0-179.0","CAN_104","104","","","","","","null","<button class=""jspsych-btn""><img src=""stimuli/white_square.png"" style=""width: 200px;height: 200px;""></button>","null","blue","red","[""blue"",""red"",""high nameability""]","right-left","[""red"",""blue""]","5","high nameability","49","right","iti",""
"html-button-response","235","772650","0.0-180.0","CAN_104","104","","","","","","422","","0","pink","darkgreenblue","[""pink"",""darkgreenblue"",""low nameability""]","right-left","[""darkgreenblue"",""pink""]","5","low nameability","50","right","trigger",""
"html-button-response","236","773209","0.0-181.0-0.0","CAN_104","104","","","","","","555","<button class=""jspsych-btn""><img src=""stimuli/pink.png"" style=""width: 200px;height: 200px;""></button>","1","pink","darkgreenblue","[""pink"",""darkgreenblue"",""low nameability""]","right-left","[""darkgreenblue"",""pink""]","5","low nameability","50","right","response","1"
"html-audio-button-response","237","773413","0.0-181.0-1.0","CAN_104","104","","","","","","null","stimuli/bleep.m4a","null","pink","darkgreenblue","[""pink"",""darkgreenblue"",""low nameability""]","right-left","[""darkgreenblue"",""pink""]","5","low nameability","50","right","audio_feedback","1"
"html-button-response","238","773933","0.0-182.0","CAN_104","104","","","","","","null","<button class=""jspsych-btn""><img src=""stimuli/white_square.png"" style=""width: 200px;height: 200px;""></button>","null","pink","darkgreenblue","[""pink"",""darkgreenblue"",""low nameability""]","right-left","[""darkgreenblue"",""pink""]","5","low nameability","50","right","iti",""
"pavlovia","239","773991","0.0-183.0","CAN_104","104","","","","","","","","","","","","","","","","","","",""
"pavlovia","240","773999","0.0-184.0","CAN_104","104","","","","","","","","","","","","","","","","","","",""
"html-audio-button-response","241","775451","0.0-185.0","CAN_104","104","","","","","","1515","stimuli/tada.m4a","0","","","","","","","","","","",""
"html-button-response","242","776061","0.0-186.0","CAN_104","104","","","","","","603","","0","","","","","","","","","","",""
"html-button-response","243","776744","0.0-187.0","CAN_104","104","","","","","","675","","0","darkgreenblue","lightred","[""darkgreenblue"",""lightred"",""low nameability""]","left-right","[""darkgreenblue"",""lightred"",""low nameability""]","6","low nameability","51","left","trigger",""
"html-button-response","244","777416","0.0-188.0-0.0","CAN_104","104","","","","","","665","<button class=""jspsych-btn""><img src=""stimuli/darkgreenblue.png"" style=""width: 200px;height: 200px;""></button>","0","darkgreenblue","lightred","[""darkgreenblue"",""lightred"",""low nameability""]","left-right","[""darkgreenblue"",""lightred"",""low nameability""]","6","low nameability","51","left","response","1"
"html-audio-button-response","245","777619","0.0-188.0-1.0","CAN_104","104","","","","","","null","stimuli/bleep.m4a","null","darkgreenblue","lightred","[""darkgreenblue"",""lightred"",""low nameability""]","left-right","[""darkgreenblue"",""lightred"",""low nameability""]","6","low nameability","51","left","audio_feedback","1"
"html-button-response","246","778138","0.0-189.0","CAN_104","104","","","","","","null","<button class=""jspsych-btn""><img src=""stimuli/white_square.png"" style=""width: 200px;height: 200px;""></button>","null","darkgreenblue","lightred","[""darkgreenblue"",""lightred"",""low nameability""]","left-right","[""darkgreenblue"",""lightred"",""low nameability""]","6","low nameability","51","left","iti",""
"html-button-response","247","778658","0.0-190.0","CAN_104","104","","","","","","501","","0","red","blue","[""red"",""blue"",""high nameability""]","right-left","[""blue"",""red""]","6","high nameability","52","right","trigger",""
"html-button-response","248","779235","0.0-191.0-0.0","CAN_104","104","","","","","","570","<button class=""jspsych-btn""><img src=""stimuli/red.png"" style=""width: 200px;height: 200px;""></button>","1","red","blue","[""red"",""blue"",""high nameability""]","right-left","[""blue"",""red""]","6","high nameability","52","right","response","1"
"html-audio-button-response","249","779439","0.0-191.0-1.0","CAN_104","104","","","","","","null","stimuli/bleep.m4a","null","red","blue","[""red"",""blue"",""high nameability""]","right-left","[""blue"",""red""]","6","high nameability","52","right","audio_feedback","1"
"html-button-response","250","779956","0.0-192.0","CAN_104","104","","","","","","null","<button class=""jspsych-btn""><img src=""stimuli/white_square.png"" style=""width: 200px;height: 200px;""></button>","null","red","blue","[""red"",""blue"",""high nameability""]","right-left","[""blue"",""red""]","6","high nameability","52","right","iti",""
"html-button-response","251","780448","0.0-193.0","CAN_104","104","","","","","","476","","0","darkgreenblue","pink","[""darkgreenblue"",""pink"",""low nameability""]","left-right","[""darkgreenblue"",""pink"",""low nameability""]","6","low nameability","53","left","trigger",""
"html-button-response","252","781017","0.0-194.0-0.0","CAN_104","104","","","","","","562","<button class=""jspsych-btn""><img src=""stimuli/darkgreenblue.png"" style=""width: 200px;height: 200px;""></button>","0","darkgreenblue","pink","[""darkgreenblue"",""pink"",""low nameability""]","left-right","[""darkgreenblue"",""pink"",""low nameability""]","6","low nameability","53","left","response","1"
"html-audio-button-response","253","781220","0.0-194.0-1.0","CAN_104","104","","","","","","null","stimuli/bleep.m4a","null","darkgreenblue","pink","[""darkgreenblue"",""pink"",""low nameability""]","left-right","[""darkgreenblue"",""pink"",""low nameability""]","6","low nameability","53","left","audio_feedback","1"
"html-button-response","254","781738","0.0-195.0","CAN_104","104","","","","","","null","<button class=""jspsych-btn""><img src=""stimuli/white_square.png"" style=""width: 200px;height: 200px;""></button>","null","darkgreenblue","pink","[""darkgreenblue"",""pink"",""low nameability""]","left-right","[""darkgreenblue"",""pink"",""low nameability""]","6","low nameability","53","left","iti",""
"html-button-response","255","782108","0.0-196.0","CAN_104","104","","","","","","356","","0","turquoise","darkgreenblue","[""turquoise"",""darkgreenblue"",""low nameability""]","right-left","[""darkgreenblue"",""turquoise""]","6","low nameability","54","right","trigger",""
"html-button-response","256","782702","0.0-197.0-0.0","CAN_104","104","","","","","","589","<button class=""jspsych-btn""><img src=""stimuli/turquoise.png"" style=""width: 200px;height: 200px;""></button>","1","turquoise","darkgreenblue","[""turquoise"",""darkgreenblue"",""low nameability""]","right-left","[""darkgreenblue"",""turquoise""]","6","low nameability","54","right","response","1"
"html-audio-button-response","257","782904","0.0-197.0-1.0","CAN_104","104","","","","","","null","stimuli/bleep.m4a","null","turquoise","darkgreenblue","[""turquoise"",""darkgreenblue"",""low nameability""]","right-left","[""darkgreenblue"",""turquoise""]","6","low nameability","54","right","audio_feedback","1"
"html-button-response","258","783425","0.0-198.0","CAN_104","104","","","","","","null","<button class=""jspsych-btn""><img src=""stimuli/white_square.png"" style=""width: 200px;height: 200px;""></button>","null","turquoise","darkgreenblue","[""turquoise"",""darkgreenblue"",""low nameability""]","right-left","[""darkgreenblue"",""turquoise""]","6","low nameability","54","right","iti",""
"html-button-response","259","783856","0.0-199.0","CAN_104","104","","","","","","418","","0","yellow","purple","[""yellow"",""purple"",""high nameability""]","left-right","[""yellow"",""purple"",""high nameability""]","6","high nameability","55","left","trigger",""
"html-button-response","260","784432","0.0-200.0-0.0","CAN_104","104","","","","","","569","<button class=""jspsych-btn""><img src=""stimuli/yellow.png"" style=""width: 200px;height: 200px;""></button>","0","yellow","purple","[""yellow"",""purple"",""high nameability""]","left-right","[""yellow"",""purple"",""high nameability""]","6","high nameability","55","left","response","1"
"html-audio-button-response","261","784635","0.0-200.0-1.0","CAN_104","104","","","","","","null","stimuli/bleep.m4a","null","yellow","purple","[""yellow"",""purple"",""high nameability""]","left-right","[""yellow"",""purple"",""high nameability""]","6","high nameability","55","left","audio_feedback","1"
"html-button-response","262","785160","0.0-201.0","CAN_104","104","","","","","","null","<button class=""jspsych-btn""><img src=""stimuli/white_square.png"" style=""width: 200px;height: 200px;""></button>","null","yellow","purple","[""yellow"",""purple"",""high nameability""]","left-right","[""yellow"",""purple"",""high nameability""]","6","high nameability","55","left","iti",""
"html-button-response","263","785521","0.0-202.0","CAN_104","104","","","","","","338","","0","turquoise","mustard","[""turquoise"",""mustard"",""low nameability""]","right-left","[""mustard"",""turquoise""]","6","low nameability","56","right","trigger",""
"html-button-response","264","786147","0.0-203.0-0.0","CAN_104","104","","","","","","618","<button class=""jspsych-btn""><img src=""stimuli/turquoise.png"" style=""width: 200px;height: 200px;""></button>","1","turquoise","mustard","[""turquoise"",""mustard"",""low nameability""]","right-left","[""mustard"",""turquoise""]","6","low nameability","56","right","response","1"
"html-audio-button-response","265","786349","0.0-203.0-1.0","CAN_104","104","","","","","","null","stimuli/bleep.m4a","null","turquoise","mustard","[""turquoise"",""mustard"",""low nameability""]","right-left","[""mustard"",""turquoise""]","6","low nameability","56","right","audio_feedback","1"
"html-button-response","266","786864","0.0-204.0","CAN_104","104","","","","","","null","<button class=""jspsych-btn""><img src=""stimuli/white_square.png"" style=""width: 200px;height: 200px;""></button>","null","turquoise","mustard","[""turquoise"",""mustard"",""low nameability""]","right-left","[""mustard"",""turquoise""]","6","low nameability","56","right","iti",""
"html-button-response","267","787322","0.0-205.0","CAN_104","104","","","","","","441","","0","orange","yellow","[""orange"",""yellow"",""high nameability""]","left-right","[""orange"",""yellow"",""high nameability""]","6","high nameability","57","left","trigger",""
"html-button-response","268","787916","0.0-206.0-0.0","CAN_104","104","","","","","","586","<button class=""jspsych-btn""><img src=""stimuli/orange.png"" style=""width: 200px;height: 200px;""></button>","0","orange","yellow","[""orange"",""yellow"",""high nameability""]","left-right","[""orange"",""yellow"",""high nameability""]","6","high nameability","57","left","response","1"
"html-audio-button-response","269","788122","0.0-206.0-1.0","CAN_104","104","","","","","","null","stimuli/bleep.m4a","null","orange","yellow","[""orange"",""yellow"",""high nameability""]","left-right","[""orange"",""yellow"",""high nameability""]","6","high nameability","57","left","audio_feedback","1"
"html-button-response","270","788647","0.0-207.0","CAN_104","104","","","","","","null","<button class=""jspsych-btn""><img src=""stimuli/white_square.png"" style=""width: 200px;height: 200px;""></button>","null","orange","yellow","[""orange"",""yellow"",""high nameability""]","left-right","[""orange"",""yellow"",""high nameability""]","6","high nameability","57","left","iti",""
"html-button-response","271","789104","0.0-208.0","CAN_104","104","","","","","","442","","0","darkgreenblue","turquoise","[""darkgreenblue"",""turquoise"",""low nameability""]","left-right","[""darkgreenblue"",""turquoise"",""low nameability""]","6","low nameability","58","left","trigger",""
"html-button-response","272","789783","0.0-209.0-0.0","CAN_104","104","","","","","","672","<button class=""jspsych-btn""><img src=""stimuli/darkgreenblue.png"" style=""width: 200px;height: 200px;""></button>","0","darkgreenblue","turquoise","[""darkgreenblue"",""turquoise"",""low nameability""]","left-right","[""darkgreenblue"",""turquoise"",""low nameability""]","6","low nameability","58","left","response","1"
"html-audio-button-response","273","789989","0.0-209.0-1.0","CAN_104","104","","","","","","null","stimuli/bleep.m4a","null","darkgreenblue","turquoise","[""darkgreenblue"",""turquoise"",""low nameability""]","left-right","[""darkgreenblue"",""turquoise"",""low nameability""]","6","low nameability","58","left","audio_feedback","1"
"html-button-response","274","790508","0.0-210.0","CAN_104","104","","","","","","null","<button class=""jspsych-btn""><img src=""stimuli/white_square.png"" style=""width: 200px;height: 200px;""></button>","null","darkgreenblue","turquoise","[""darkgreenblue"",""turquoise"",""low nameability""]","left-right","[""darkgreenblue"",""turquoise"",""low nameability""]","6","low nameability","58","left","iti",""
"html-button-response","275","790905","0.0-211.0","CAN_104","104","","","","","","376","","0","mustard","pink","[""mustard"",""pink"",""low nameability""]","right-left","[""pink"",""mustard""]","6","low nameability","59","right","trigger",""
"html-button-response","276","791430","0.0-212.0-0.0","CAN_104","104","","","","","","520","<button class=""jspsych-btn""><img src=""stimuli/mustard.png"" style=""width: 200px;height: 200px;""></button>","1","mustard","pink","[""mustard"",""pink"",""low nameability""]","right-left","[""pink"",""mustard""]","6","low nameability","59","right","response","1"
"html-audio-button-response","277","791632","0.0-212.0-1.0","CAN_104","104","","","","","","null","stimuli/bleep.m4a","null","mustard","pink","[""mustard"",""pink"",""low nameability""]","right-left","[""pink"",""mustard""]","6","low nameability","59","right","audio_feedback","1"
"html-button-response","278","792153","0.0-213.0","CAN_104","104","","","","","","null","<button class=""jspsych-btn""><img src=""stimuli/white_square.png"" style=""width: 200px;height: 200px;""></button>","null","mustard","pink","[""mustard"",""pink"",""low nameability""]","right-left","[""pink"",""mustard""]","6","low nameability","59","right","iti",""
"html-button-response","279","792634","0.0-214.0","CAN_104","104","","","","","","462","","0","pink","mustard","[""pink"",""mustard"",""low nameability""]","left-right","[""pink"",""mustard"",""low nameability""]","6","low nameability","60","left","trigger",""
"html-button-response","280","793254","0.0-215.0-0.0","CAN_104","104","","","","","","613","<button class=""jspsych-btn""><img src=""stimuli/pink.png"" style=""width: 200px;height: 200px;""></button>","0","pink","mustard","[""pink"",""mustard"",""low nameability""]","left-right","[""pink"",""mustard"",""low nameability""]","6","low nameability","60","left","response","1"
"html-audio-button-response","281","793462","0.0-215.0-1.0","CAN_104","104","","","","","","null","stimuli/bleep.m4a","null","pink","mustard","[""pink"",""mustard"",""low nameability""]","left-right","[""pink"",""mustard"",""low nameability""]","6","low nameability","60","left","audio_feedback","1"
"html-button-response","282","793979","0.0-216.0","CAN_104","104","","","","","","null","<button class=""jspsych-btn""><img src=""stimuli/white_square.png"" style=""width: 200px;height: 200px;""></button>","null","pink","mustard","[""pink"",""mustard"",""low nameability""]","left-right","[""pink"",""mustard"",""low nameability""]","6","low nameability","60","left","iti",""
