"trial_type","trial_index","time_elapsed","internal_node_id","subject_id","seed","success","timeout","failed_images","failed_audio","failed_video","rt","stimulus","response","target","foil","choices","combination_order","choices_in_order","round","condition","trial_counter","target_location","trial_kind","correct"
"pavlovia","0","28","0.0-0.0","CAN_117","117","","","","","","","","","","","","","","","","","","",""
"preload","1","673","0.0-1.0","CAN_117","117","true","false","[]","[]","[]","","","","","","","","","","","","","",""
"fullscreen","2","2719","0.0-2.0","CAN_117","117","true","","","","","","","","","","","","","","","","","",""
"html-button-response","3","45367","0.0-3.0","CAN_117","117","","","","","","42622","","0","","","","","","","","","","",""
"html-button-response","4","48025","0.0-4.0","CAN_117","117","","","","","","2643","","0","star","square","[""square"",""star""]","left-right","[""square"",""star""]","1","practice","1","right","trigger",""
"html-button-response","5","49488","0.0-5.0-0.0","CAN_117","117","","","","","","1452","<button class=""jspsych-btn""><img src=""stimuli/star.png"" style=""width: 200px;height: 200px;""></button>","1","star","square","[""square"",""star""]","left-right","[""square"",""star""]","1","practice","1","right","response","1"
"html-audio-button-response","6","49699","0.0-5.0-1.0","CAN_117","117","","","","","","null","stimuli/bleep.m4a","null","star","square","[""square"",""star""]","left-right","[""square"",""star""]","1","practice","1","right","audio_feedback","1"
"html-button-response","7","50219","0.0-6.0","CAN_117","117","","","","","","null","<button class=""jspsych-btn""><img src=""stimuli/white_square.png"" style=""width: 200px;height: 200px;""></button>","null","star","square","[""square"",""star""]","left-right","[""square"",""star""]","1","practice","1","right","iti",""
"html-button-response","8","51335","0.0-7.0","CAN_117","117","","","","","","1094","","0","triangle","pentagram","[""triangle"",""pentagram""]","left-right","[""triangle"",""pentagram""]","1","practice","1","left","trigger",""
"html-button-response","9","52044","0.0-8.0-0.0","CAN_117","117","","","","","","696","<button class=""jspsych-btn""><img src=""stimuli/triangle.png"" style=""width: 200px;height: 200px;""></button>","0","triangle","pentagram","[""triangle"",""pentagram""]","left-right","[""triangle"",""pentagram""]","1","practice","1","left","response","1"
"html-audio-button-response","10","52252","0.0-8.0-1.0","CAN_117","117","","","","","","null","stimuli/bleep.m4a","null","triangle","pentagram","[""triangle"",""pentagram""]","left-right","[""triangle"",""pentagram""]","1","practice","1","left","audio_feedback","1"
"html-button-response","11","52779","0.0-9.0","CAN_117","117","","","","","","null","<button class=""jspsych-btn""><img src=""stimuli/white_square.png"" style=""width: 200px;height: 200px;""></button>","null","triangle","pentagram","[""triangle"",""pentagram""]","left-right","[""triangle"",""pentagram""]","1","practice","1","left","iti",""
"html-button-response","12","53471","0.0-10.0","CAN_117","117","","","","","","673","","0","diamond","rectangle","[""rectangle"",""diamond""]","left-right","[""rectangle"",""diamond""]","1","practice","1","right","trigger",""
"html-button-response","13","54137","0.0-11.0-0.0","CAN_117","117","","","","","","659","<button class=""jspsych-btn""><img src=""stimuli/diamond.png"" style=""width: 200px;height: 200px;""></button>","1","diamond","rectangle","[""rectangle"",""diamond""]","left-right","[""rectangle"",""diamond""]","1","practice","1","right","response","1"
"html-audio-button-response","14","54344","0.0-11.0-1.0","CAN_117","117","","","","","","null","stimuli/bleep.m4a","null","diamond","rectangle","[""rectangle"",""diamond""]","left-right","[""rectangle"",""diamond""]","1","practice","1","right","audio_feedback","1"
"html-button-response","15","54864","0.0-12.0","CAN_117","117","","","","","","null","<button class=""jspsych-btn""><img src=""stimuli/white_square.png"" style=""width: 200px;height: 200px;""></button>","null","diamond","rectangle","[""rectangle"",""diamond""]","left-right","[""rectangle"",""diamond""]","1","practice","1","right","iti",""
"html-button-response","16","55420","0.0-13.0","CAN_117","117","","","","","","529","","0","pentagram","star","[""pentagram"",""star""]","left-right","[""pentagram"",""star""]","1","practice","1","left","trigger",""
"html-button-response","17","56061","0.0-14.0-0.0","CAN_117","117","","","","","","634","<button class=""jspsych-btn""><img src=""stimuli/pentagram.png"" style=""width: 200px;height: 200px;""></button>","0","pentagram","star","[""pentagram"",""star""]","left-right","[""pentagram"",""star""]","1","practice","1","left","response","1"
"html-audio-button-response","18","56274","0.0-14.0-1.0","CAN_117","117","","","","","","null","stimuli/bleep.m4a","null","pentagram","star","[""pentagram"",""star""]","left-right","[""pentagram"",""star""]","1","practice","1","left","audio_feedback","1"
"html-button-response","19","56787","0.0-15.0","CAN_117","117","","","","","","null","<button class=""jspsych-btn""><img src=""stimuli/white_square.png"" style=""width: 200px;height: 200px;""></button>","null","pentagram","star","[""pentagram"",""star""]","left-right","[""pentagram"",""star""]","1","practice","1","left","iti",""
"html-button-response","20","62136","0.0-16.0","CAN_117","117","","","","","","5340","","0","","","","","","","","","","",""
"html-button-response","21","62796","0.0-17.0","CAN_117","117","","","","","","646","","0","orange","yellow","[""orange"",""yellow"",""high nameability""]","right-left","[""yellow"",""orange""]","1","high nameability","1","right","trigger",""
"html-button-response","22","63409","0.0-18.0-0.0","CAN_117","117","","","","","","595","<button class=""jspsych-btn""><img src=""stimuli/orange.png"" style=""width: 200px;height: 200px;""></button>","1","orange","yellow","[""orange"",""yellow"",""high nameability""]","right-left","[""yellow"",""orange""]","1","high nameability","1","right","response","1"
"html-audio-button-response","23","63618","0.0-18.0-1.0","CAN_117","117","","","","","","null","stimuli/bleep.m4a","null","orange","yellow","[""orange"",""yellow"",""high nameability""]","right-left","[""yellow"",""orange""]","1","high nameability","1","right","audio_feedback","1"
"html-button-response","24","64153","0.0-19.0","CAN_117","117","","","","","","null","<button class=""jspsych-btn""><img src=""stimuli/white_square.png"" style=""width: 200px;height: 200px;""></button>","null","orange","yellow","[""orange"",""yellow"",""high nameability""]","right-left","[""yellow"",""orange""]","1","high nameability","1","right","iti",""
"html-button-response","25","64918","0.0-20.0","CAN_117","117","","","","","","748","","0","mustard","lightred","[""mustard"",""lightred"",""low nameability""]","right-left","[""lightred"",""mustard""]","1","low nameability","2","right","trigger",""
"html-button-response","26","65502","0.0-21.0-0.0","CAN_117","117","","","","","","575","<button class=""jspsych-btn""><img src=""stimuli/mustard.png"" style=""width: 200px;height: 200px;""></button>","1","mustard","lightred","[""mustard"",""lightred"",""low nameability""]","right-left","[""lightred"",""mustard""]","1","low nameability","2","right","response","1"
"html-audio-button-response","27","65718","0.0-21.0-1.0","CAN_117","117","","","","","","null","stimuli/bleep.m4a","null","mustard","lightred","[""mustard"",""lightred"",""low nameability""]","right-left","[""lightred"",""mustard""]","1","low nameability","2","right","audio_feedback","1"
"html-button-response","28","66235","0.0-22.0","CAN_117","117","","","","","","null","<button class=""jspsych-btn""><img src=""stimuli/white_square.png"" style=""width: 200px;height: 200px;""></button>","null","mustard","lightred","[""mustard"",""lightred"",""low nameability""]","right-left","[""lightred"",""mustard""]","1","low nameability","2","right","iti",""
"html-button-response","29","66765","0.0-23.0","CAN_117","117","","","","","","504","","0","yellow","brown","[""yellow"",""brown"",""high nameability""]","left-right","[""yellow"",""brown"",""high nameability""]","1","high nameability","3","left","trigger",""
"html-button-response","30","67336","0.0-24.0-0.0","CAN_117","117","","","","","","553","<button class=""jspsych-btn""><img src=""stimuli/yellow.png"" style=""width: 200px;height: 200px;""></button>","0","yellow","brown","[""yellow"",""brown"",""high nameability""]","left-right","[""yellow"",""brown"",""high nameability""]","1","high nameability","3","left","response","1"
"html-audio-button-response","31","67543","0.0-24.0-1.0","CAN_117","117","","","","","","null","stimuli/bleep.m4a","null","yellow","brown","[""yellow"",""brown"",""high nameability""]","left-right","[""yellow"",""brown"",""high nameability""]","1","high nameability","3","left","audio_feedback","1"
"html-button-response","32","68065","0.0-25.0","CAN_117","117","","","","","","null","<button class=""jspsych-btn""><img src=""stimuli/white_square.png"" style=""width: 200px;height: 200px;""></button>","null","yellow","brown","[""yellow"",""brown"",""high nameability""]","left-right","[""yellow"",""brown"",""high nameability""]","1","high nameability","3","left","iti",""
"html-button-response","33","68565","0.0-26.0","CAN_117","117","","","","","","481","","0","brown","red","[""brown"",""red"",""high nameability""]","right-left","[""red"",""brown""]","1","high nameability","4","right","trigger",""
"html-button-response","34","69165","0.0-27.0-0.0","CAN_117","117","","","","","","587","<button class=""jspsych-btn""><img src=""stimuli/brown.png"" style=""width: 200px;height: 200px;""></button>","1","brown","red","[""brown"",""red"",""high nameability""]","right-left","[""red"",""brown""]","1","high nameability","4","right","response","1"
"html-audio-button-response","35","69373","0.0-27.0-1.0","CAN_117","117","","","","","","null","stimuli/bleep.m4a","null","brown","red","[""brown"",""red"",""high nameability""]","right-left","[""red"",""brown""]","1","high nameability","4","right","audio_feedback","1"
"html-button-response","36","69896","0.0-28.0","CAN_117","117","","","","","","null","<button class=""jspsych-btn""><img src=""stimuli/white_square.png"" style=""width: 200px;height: 200px;""></button>","null","brown","red","[""brown"",""red"",""high nameability""]","right-left","[""red"",""brown""]","1","high nameability","4","right","iti",""
"html-button-response","37","70410","0.0-29.0","CAN_117","117","","","","","","495","","0","orange","blue","[""orange"",""blue"",""high nameability""]","left-right","[""orange"",""blue"",""high nameability""]","1","high nameability","5","left","trigger",""
"html-button-response","38","70979","0.0-30.0-0.0","CAN_117","117","","","","","","560","<button class=""jspsych-btn""><img src=""stimuli/orange.png"" style=""width: 200px;height: 200px;""></button>","0","orange","blue","[""orange"",""blue"",""high nameability""]","left-right","[""orange"",""blue"",""high nameability""]","1","high nameability","5","left","response","1"
"html-audio-button-response","39","71184","0.0-30.0-1.0","CAN_117","117","","","","","","null","stimuli/bleep.m4a","null","orange","blue","[""orange"",""blue"",""high nameability""]","left-right","[""orange"",""blue"",""high nameability""]","1","high nameability","5","left","audio_feedback","1"
"html-button-response","40","71702","0.0-31.0","CAN_117","117","","","","","","null","<button class=""jspsych-btn""><img src=""stimuli/white_square.png"" style=""width: 200px;height: 200px;""></button>","null","orange","blue","[""orange"",""blue"",""high nameability""]","left-right","[""orange"",""blue"",""high nameability""]","1","high nameability","5","left","iti",""
"html-button-response","41","72173","0.0-32.0","CAN_117","117","","","","","","465","","0","darkgreenblue","lightred","[""darkgreenblue"",""lightred"",""low nameability""]","left-right","[""darkgreenblue"",""lightred"",""low nameability""]","1","low nameability","6","left","trigger",""
"html-button-response","42","72725","0.0-33.0-0.0","CAN_117","117","","","","","","541","<button class=""jspsych-btn""><img src=""stimuli/darkgreenblue.png"" style=""width: 200px;height: 200px;""></button>","0","darkgreenblue","lightred","[""darkgreenblue"",""lightred"",""low nameability""]","left-right","[""darkgreenblue"",""lightred"",""low nameability""]","1","low nameability","6","left","response","1"
"html-audio-button-response","43","72939","0.0-33.0-1.0","CAN_117","117","","","","","","null","stimuli/bleep.m4a","null","darkgreenblue","lightred","[""darkgreenblue"",""lightred"",""low nameability""]","left-right","[""darkgreenblue"",""lightred"",""low nameability""]","1","low nameability","6","left","audio_feedback","1"
"html-button-response","44","73467","0.0-34.0","CAN_117","117","","","","","","null","<button class=""jspsych-btn""><img src=""stimuli/white_square.png"" style=""width: 200px;height: 200px;""></button>","null","darkgreenblue","lightred","[""darkgreenblue"",""lightred"",""low nameability""]","left-right","[""darkgreenblue"",""lightred"",""low nameability""]","1","low nameability","6","left","iti",""
"html-button-response","45","73905","0.0-35.0","CAN_117","117","","","","","","414","","0","neonyellow","turquoise","[""neonyellow"",""turquoise"",""low nameability""]","right-left","[""turquoise"",""neonyellow""]","1","low nameability","7","right","trigger",""
"html-button-response","46","74498","0.0-36.0-0.0","CAN_117","117","","","","","","584","<button class=""jspsych-btn""><img src=""stimuli/neonyellow.png"" style=""width: 200px;height: 200px;""></button>","1","neonyellow","turquoise","[""neonyellow"",""turquoise"",""low nameability""]","right-left","[""turquoise"",""neonyellow""]","1","low nameability","7","right","response","1"
"html-audio-button-response","47","74699","0.0-36.0-1.0","CAN_117","117","","","","","","null","stimuli/bleep.m4a","null","neonyellow","turquoise","[""neonyellow"",""turquoise"",""low nameability""]","right-left","[""turquoise"",""neonyellow""]","1","low nameability","7","right","audio_feedback","1"
"html-button-response","48","75218","0.0-37.0","CAN_117","117","","","","","","null","<button class=""jspsych-btn""><img src=""stimuli/white_square.png"" style=""width: 200px;height: 200px;""></button>","null","neonyellow","turquoise","[""neonyellow"",""turquoise"",""low nameability""]","right-left","[""turquoise"",""neonyellow""]","1","low nameability","7","right","iti",""
"html-button-response","49","75693","0.0-38.0","CAN_117","117","","","","","","447","","0","red","orange","[""red"",""orange"",""high nameability""]","left-right","[""red"",""orange"",""high nameability""]","1","high nameability","8","left","trigger",""
"html-button-response","50","76277","0.0-39.0-0.0","CAN_117","117","","","","","","573","<button class=""jspsych-btn""><img src=""stimuli/red.png"" style=""width: 200px;height: 200px;""></button>","0","red","orange","[""red"",""orange"",""high nameability""]","left-right","[""red"",""orange"",""high nameability""]","1","high nameability","8","left","response","1"
"html-audio-button-response","51","76486","0.0-39.0-1.0","CAN_117","117","","","","","","null","stimuli/bleep.m4a","null","red","orange","[""red"",""orange"",""high nameability""]","left-right","[""red"",""orange"",""high nameability""]","1","high nameability","8","left","audio_feedback","1"
"html-button-response","52","77002","0.0-40.0","CAN_117","117","","","","","","null","<button class=""jspsych-btn""><img src=""stimuli/white_square.png"" style=""width: 200px;height: 200px;""></button>","null","red","orange","[""red"",""orange"",""high nameability""]","left-right","[""red"",""orange"",""high nameability""]","1","high nameability","8","left","iti",""
"html-button-response","53","77430","0.0-41.0","CAN_117","117","","","","","","411","","0","lightred","mustard","[""lightred"",""mustard"",""low nameability""]","right-left","[""mustard"",""lightred""]","1","low nameability","9","right","trigger",""
"html-button-response","54","77975","0.0-42.0-0.0","CAN_117","117","","","","","","537","<button class=""jspsych-btn""><img src=""stimuli/lightred.png"" style=""width: 200px;height: 200px;""></button>","1","lightred","mustard","[""lightred"",""mustard"",""low nameability""]","right-left","[""mustard"",""lightred""]","1","low nameability","9","right","response","1"
"html-audio-button-response","55","78178","0.0-42.0-1.0","CAN_117","117","","","","","","null","stimuli/bleep.m4a","null","lightred","mustard","[""lightred"",""mustard"",""low nameability""]","right-left","[""mustard"",""lightred""]","1","low nameability","9","right","audio_feedback","1"
"html-button-response","56","78693","0.0-43.0","CAN_117","117","","","","","","null","<button class=""jspsych-btn""><img src=""stimuli/white_square.png"" style=""width: 200px;height: 200px;""></button>","null","lightred","mustard","[""lightred"",""mustard"",""low nameability""]","right-left","[""mustard"",""lightred""]","1","low nameability","9","right","iti",""
"html-button-response","57","79115","0.0-44.0","CAN_117","117","","","","","","414","","0","darkgreenblue","neonyellow","[""darkgreenblue"",""neonyellow"",""low nameability""]","right-left","[""neonyellow"",""darkgreenblue""]","1","low nameability","10","right","trigger",""
"html-button-response","58","79598","0.0-45.0-0.0","CAN_117","117","","","","","","475","<button class=""jspsych-btn""><img src=""stimuli/darkgreenblue.png"" style=""width: 200px;height: 200px;""></button>","1","darkgreenblue","neonyellow","[""darkgreenblue"",""neonyellow"",""low nameability""]","right-left","[""neonyellow"",""darkgreenblue""]","1","low nameability","10","right","response","1"
"html-audio-button-response","59","79799","0.0-45.0-1.0","CAN_117","117","","","","","","null","stimuli/bleep.m4a","null","darkgreenblue","neonyellow","[""darkgreenblue"",""neonyellow"",""low nameability""]","right-left","[""neonyellow"",""darkgreenblue""]","1","low nameability","10","right","audio_feedback","1"
"html-button-response","60","80323","0.0-46.0","CAN_117","117","","","","","","null","<button class=""jspsych-btn""><img src=""stimuli/white_square.png"" style=""width: 200px;height: 200px;""></button>","null","darkgreenblue","neonyellow","[""darkgreenblue"",""neonyellow"",""low nameability""]","right-left","[""neonyellow"",""darkgreenblue""]","1","low nameability","10","right","iti",""
"pavlovia","61","80413","0.0-47.0","CAN_117","117","","","","","","","","","","","","","","","","","","",""
"pavlovia","62","80431","0.0-48.0","CAN_117","117","","","","","","","","","","","","","","","","","","",""
"html-audio-button-response","63","82109","0.0-49.0","CAN_117","117","","","","","","1784","stimuli/tada.m4a","0","","","","","","","","","","",""
"html-button-response","64","82860","0.0-50.0","CAN_117","117","","","","","","743","","0","","","","","","","","","","",""
"html-button-response","65","83666","0.0-51.0","CAN_117","117","","","","","","797","","0","pink","turquoise","[""pink"",""turquoise"",""low nameability""]","right-left","[""turquoise"",""pink""]","2","low nameability","11","right","trigger",""
"html-button-response","66","84289","0.0-52.0-0.0","CAN_117","117","","","","","","614","<button class=""jspsych-btn""><img src=""stimuli/pink.png"" style=""width: 200px;height: 200px;""></button>","1","pink","turquoise","[""pink"",""turquoise"",""low nameability""]","right-left","[""turquoise"",""pink""]","2","low nameability","11","right","response","1"
"html-audio-button-response","67","84493","0.0-52.0-1.0","CAN_117","117","","","","","","null","stimuli/bleep.m4a","null","pink","turquoise","[""pink"",""turquoise"",""low nameability""]","right-left","[""turquoise"",""pink""]","2","low nameability","11","right","audio_feedback","1"
"html-button-response","68","85011","0.0-53.0","CAN_117","117","","","","","","null","<button class=""jspsych-btn""><img src=""stimuli/white_square.png"" style=""width: 200px;height: 200px;""></button>","null","pink","turquoise","[""pink"",""turquoise"",""low nameability""]","right-left","[""turquoise"",""pink""]","2","low nameability","11","right","iti",""
"html-button-response","69","85595","0.0-54.0","CAN_117","117","","","","","","566","","0","pink","neonyellow","[""pink"",""neonyellow"",""low nameability""]","right-left","[""neonyellow"",""pink""]","2","low nameability","12","right","trigger",""
"html-button-response","70","86186","0.0-55.0-0.0","CAN_117","117","","","","","","583","<button class=""jspsych-btn""><img src=""stimuli/pink.png"" style=""width: 200px;height: 200px;""></button>","1","pink","neonyellow","[""pink"",""neonyellow"",""low nameability""]","right-left","[""neonyellow"",""pink""]","2","low nameability","12","right","response","1"
"html-audio-button-response","71","86391","0.0-55.0-1.0","CAN_117","117","","","","","","null","stimuli/bleep.m4a","null","pink","neonyellow","[""pink"",""neonyellow"",""low nameability""]","right-left","[""neonyellow"",""pink""]","2","low nameability","12","right","audio_feedback","1"
"html-button-response","72","86910","0.0-56.0","CAN_117","117","","","","","","null","<button class=""jspsych-btn""><img src=""stimuli/white_square.png"" style=""width: 200px;height: 200px;""></button>","null","pink","neonyellow","[""pink"",""neonyellow"",""low nameability""]","right-left","[""neonyellow"",""pink""]","2","low nameability","12","right","iti",""
"html-button-response","73","87509","0.0-57.0","CAN_117","117","","","","","","575","","0","mustard","pink","[""mustard"",""pink"",""low nameability""]","right-left","[""pink"",""mustard""]","2","low nameability","13","right","trigger",""
"html-button-response","74","88069","0.0-58.0-0.0","CAN_117","117","","","","","","553","<button class=""jspsych-btn""><img src=""stimuli/mustard.png"" style=""width: 200px;height: 200px;""></button>","1","mustard","pink","[""mustard"",""pink"",""low nameability""]","right-left","[""pink"",""mustard""]","2","low nameability","13","right","response","1"
"html-audio-button-response","75","88287","0.0-58.0-1.0","CAN_117","117","","","","","","null","stimuli/bleep.m4a","null","mustard","pink","[""mustard"",""pink"",""low nameability""]","right-left","[""pink"",""mustard""]","2","low nameability","13","right","audio_feedback","1"
"html-button-response","76","88815","0.0-59.0","CAN_117","117","","","","","","null","<button class=""jspsych-btn""><img src=""stimuli/white_square.png"" style=""width: 200px;height: 200px;""></button>","null","mustard","pink","[""mustard"",""pink"",""low nameability""]","right-left","[""pink"",""mustard""]","2","low nameability","13","right","iti",""
"html-button-response","77","89349","0.0-60.0","CAN_117","117","","","","","","488","","0","brown","blue","[""brown"",""blue"",""high nameability""]","right-left","[""blue"",""brown""]","2","high nameability","14","right","trigger",""
"html-button-response","78","89863","0.0-61.0-0.0","CAN_117","117","","","","","","504","<button class=""jspsych-btn""><img src=""stimuli/brown.png"" style=""width: 200px;height: 200px;""></button>","1","brown","blue","[""brown"",""blue"",""high nameability""]","right-left","[""blue"",""brown""]","2","high nameability","14","right","response","1"
"html-audio-button-response","79","90077","0.0-61.0-1.0","CAN_117","117","","","","","","null","stimuli/bleep.m4a","null","brown","blue","[""brown"",""blue"",""high nameability""]","right-left","[""blue"",""brown""]","2","high nameability","14","right","audio_feedback","1"
"html-button-response","80","90613","0.0-62.0","CAN_117","117","","","","","","null","<button class=""jspsych-btn""><img src=""stimuli/white_square.png"" style=""width: 200px;height: 200px;""></button>","null","brown","blue","[""brown"",""blue"",""high nameability""]","right-left","[""blue"",""brown""]","2","high nameability","14","right","iti",""
"html-button-response","81","91123","0.0-63.0","CAN_117","117","","","","","","490","","0","brown","yellow","[""brown"",""yellow"",""high nameability""]","right-left","[""yellow"",""brown""]","2","high nameability","15","right","trigger",""
"html-button-response","82","91707","0.0-64.0-0.0","CAN_117","117","","","","","","575","<button class=""jspsych-btn""><img src=""stimuli/brown.png"" style=""width: 200px;height: 200px;""></button>","1","brown","yellow","[""brown"",""yellow"",""high nameability""]","right-left","[""yellow"",""brown""]","2","high nameability","15","right","response","1"
"html-audio-button-response","83","91917","0.0-64.0-1.0","CAN_117","117","","","","","","null","stimuli/bleep.m4a","null","brown","yellow","[""brown"",""yellow"",""high nameability""]","right-left","[""yellow"",""brown""]","2","high nameability","15","right","audio_feedback","1"
"html-button-response","84","92434","0.0-65.0","CAN_117","117","","","","","","null","<button class=""jspsych-btn""><img src=""stimuli/white_square.png"" style=""width: 200px;height: 200px;""></button>","null","brown","yellow","[""brown"",""yellow"",""high nameability""]","right-left","[""yellow"",""brown""]","2","high nameability","15","right","iti",""
"html-button-response","85","92906","0.0-66.0","CAN_117","117","","","","","","457","","0","purple","brown","[""purple"",""brown"",""high nameability""]","right-left","[""brown"",""purple""]","2","high nameability","16","right","trigger",""
"html-button-response","86","93438","0.0-67.0-0.0","CAN_117","117","","","","","","516","<button class=""jspsych-btn""><img src=""stimuli/purple.png"" style=""width: 200px;height: 200px;""></button>","1","purple","brown","[""purple"",""brown"",""high nameability""]","right-left","[""brown"",""purple""]","2","high nameability","16","right","response","1"
"html-audio-button-response","87","93648","0.0-67.0-1.0","CAN_117","117","","","","","","null","stimuli/bleep.m4a","null","purple","brown","[""purple"",""brown"",""high nameability""]","right-left","[""brown"",""purple""]","2","high nameability","16","right","audio_feedback","1"
"html-button-response","88","94179","0.0-68.0","CAN_117","117","","","","","","null","<button class=""jspsych-btn""><img src=""stimuli/white_square.png"" style=""width: 200px;height: 200px;""></button>","null","purple","brown","[""purple"",""brown"",""high nameability""]","right-left","[""brown"",""purple""]","2","high nameability","16","right","iti",""
"html-button-response","89","94654","0.0-69.0","CAN_117","117","","","","","","450","","0","blue","red","[""blue"",""red"",""high nameability""]","left-right","[""blue"",""red"",""high nameability""]","2","high nameability","17","left","trigger",""
"html-button-response","90","95352","0.0-70.0-0.0","CAN_117","117","","","","","","688","<button class=""jspsych-btn""><img src=""stimuli/blue.png"" style=""width: 200px;height: 200px;""></button>","0","blue","red","[""blue"",""red"",""high nameability""]","left-right","[""blue"",""red"",""high nameability""]","2","high nameability","17","left","response","1"
"html-audio-button-response","91","95563","0.0-70.0-1.0","CAN_117","117","","","","","","null","stimuli/bleep.m4a","null","blue","red","[""blue"",""red"",""high nameability""]","left-right","[""blue"",""red"",""high nameability""]","2","high nameability","17","left","audio_feedback","1"
"html-button-response","92","96085","0.0-71.0","CAN_117","117","","","","","","null","<button class=""jspsych-btn""><img src=""stimuli/white_square.png"" style=""width: 200px;height: 200px;""></button>","null","blue","red","[""blue"",""red"",""high nameability""]","left-right","[""blue"",""red"",""high nameability""]","2","high nameability","17","left","iti",""
"html-button-response","93","96541","0.0-72.0","CAN_117","117","","","","","","440","","0","brown","purple","[""brown"",""purple"",""high nameability""]","left-right","[""brown"",""purple"",""high nameability""]","2","high nameability","18","left","trigger",""
"html-button-response","94","97170","0.0-73.0-0.0","CAN_117","117","","","","","","618","<button class=""jspsych-btn""><img src=""stimuli/brown.png"" style=""width: 200px;height: 200px;""></button>","0","brown","purple","[""brown"",""purple"",""high nameability""]","left-right","[""brown"",""purple"",""high nameability""]","2","high nameability","18","left","response","1"
"html-audio-button-response","95","97380","0.0-73.0-1.0","CAN_117","117","","","","","","null","stimuli/bleep.m4a","null","brown","purple","[""brown"",""purple"",""high nameability""]","left-right","[""brown"",""purple"",""high nameability""]","2","high nameability","18","left","audio_feedback","1"
"html-button-response","96","97899","0.0-74.0","CAN_117","117","","","","","","null","<button class=""jspsych-btn""><img src=""stimuli/white_square.png"" style=""width: 200px;height: 200px;""></button>","null","brown","purple","[""brown"",""purple"",""high nameability""]","left-right","[""brown"",""purple"",""high nameability""]","2","high nameability","18","left","iti",""
"html-button-response","97","98488","0.0-75.0","CAN_117","117","","","","","","567","","0","red","purple","[""red"",""purple"",""high nameability""]","right-left","[""purple"",""red""]","2","high nameability","19","right","trigger",""
"html-button-response","98","99017","0.0-76.0-0.0","CAN_117","117","","","","","","518","<button class=""jspsych-btn""><img src=""stimuli/red.png"" style=""width: 200px;height: 200px;""></button>","1","red","purple","[""red"",""purple"",""high nameability""]","right-left","[""purple"",""red""]","2","high nameability","19","right","response","1"
"html-audio-button-response","99","99219","0.0-76.0-1.0","CAN_117","117","","","","","","null","stimuli/bleep.m4a","null","red","purple","[""red"",""purple"",""high nameability""]","right-left","[""purple"",""red""]","2","high nameability","19","right","audio_feedback","1"
"html-button-response","100","99745","0.0-77.0","CAN_117","117","","","","","","null","<button class=""jspsych-btn""><img src=""stimuli/white_square.png"" style=""width: 200px;height: 200px;""></button>","null","red","purple","[""red"",""purple"",""high nameability""]","right-left","[""purple"",""red""]","2","high nameability","19","right","iti",""
"html-button-response","101","100277","0.0-78.0","CAN_117","117","","","","","","514","","0","purple","yellow","[""purple"",""yellow"",""high nameability""]","right-left","[""yellow"",""purple""]","2","high nameability","20","right","trigger",""
"html-button-response","102","100787","0.0-79.0-0.0","CAN_117","117","","","","","","503","<button class=""jspsych-btn""><img src=""stimuli/purple.png"" style=""width: 200px;height: 200px;""></button>","1","purple","yellow","[""purple"",""yellow"",""high nameability""]","right-left","[""yellow"",""purple""]","2","high nameability","20","right","response","1"
"html-audio-button-response","103","100994","0.0-79.0-1.0","CAN_117","117","","","","","","null","stimuli/bleep.m4a","null","purple","yellow","[""purple"",""yellow"",""high nameability""]","right-left","[""yellow"",""purple""]","2","high nameability","20","right","audio_feedback","1"
"html-button-response","104","101510","0.0-80.0","CAN_117","117","","","","","","null","<button class=""jspsych-btn""><img src=""stimuli/white_square.png"" style=""width: 200px;height: 200px;""></button>","null","purple","yellow","[""purple"",""yellow"",""high nameability""]","right-left","[""yellow"",""purple""]","2","high nameability","20","right","iti",""
"pavlovia","105","101599","0.0-81.0","CAN_117","117","","","","","","","","","","","","","","","","","","",""
"pavlovia","106","101616","0.0-82.0","CAN_117","117","","","","","","","","","","","","","","","","","","",""
"html-audio-button-response","107","103194","0.0-83.0","CAN_117","117","","","","","","1680","stimuli/tada.m4a","0","","","","","","","","","","",""
"html-button-response","108","103800","0.0-84.0","CAN_117","117","","","","","","598","","0","","","","","","","","","","",""
"html-button-response","109","104577","0.0-85.0","CAN_117","117","","","","","","769","","0","darkgreenblue","mustard","[""darkgreenblue"",""mustard"",""low nameability""]","left-right","[""darkgreenblue"",""mustard"",""low nameability""]","3","low nameability","21","left","trigger",""
"html-button-response","110","105229","0.0-86.0-0.0","CAN_117","117","","","","","","642","<button class=""jspsych-btn""><img src=""stimuli/darkgreenblue.png"" style=""width: 200px;height: 200px;""></button>","0","darkgreenblue","mustard","[""darkgreenblue"",""mustard"",""low nameability""]","left-right","[""darkgreenblue"",""mustard"",""low nameability""]","3","low nameability","21","left","response","1"
"html-audio-button-response","111","105435","0.0-86.0-1.0","CAN_117","117","","","","","","null","stimuli/bleep.m4a","null","darkgreenblue","mustard","[""darkgreenblue"",""mustard"",""low nameability""]","left-right","[""darkgreenblue"",""mustard"",""low nameability""]","3","low nameability","21","left","audio_feedback","1"
"html-button-response","112","105954","0.0-87.0","CAN_117","117","","","","","","null","<button class=""jspsych-btn""><img src=""stimuli/white_square.png"" style=""width: 200px;height: 200px;""></button>","null","darkgreenblue","mustard","[""darkgreenblue"",""mustard"",""low nameability""]","left-right","[""darkgreenblue"",""mustard"",""low nameability""]","3","low nameability","21","left","iti",""
"html-button-response","113","106419","0.0-88.0","CAN_117","117","","","","","","453","","0","lightred","pink","[""lightred"",""pink"",""low nameability""]","left-right","[""lightred"",""pink"",""low nameability""]","3","low nameability","22","left","trigger",""
"html-button-response","114","106937","0.0-89.0-0.0","CAN_117","117","","","","","","507","<button class=""jspsych-btn""><img src=""stimuli/lightred.png"" style=""width: 200px;height: 200px;""></button>","0","lightred","pink","[""lightred"",""pink"",""low nameability""]","left-right","[""lightred"",""pink"",""low nameability""]","3","low nameability","22","left","response","1"
"html-audio-button-response","115","107139","0.0-89.0-1.0","CAN_117","117","","","","","","null","stimuli/bleep.m4a","null","lightred","pink","[""lightred"",""pink"",""low nameability""]","left-right","[""lightred"",""pink"",""low nameability""]","3","low nameability","22","left","audio_feedback","1"
"html-button-response","116","107659","0.0-90.0","CAN_117","117","","","","","","null","<button class=""jspsych-btn""><img src=""stimuli/white_square.png"" style=""width: 200px;height: 200px;""></button>","null","lightred","pink","[""lightred"",""pink"",""low nameability""]","left-right","[""lightred"",""pink"",""low nameability""]","3","low nameability","22","left","iti",""
"html-button-response","117","108116","0.0-91.0","CAN_117","117","","","","","","435","","0","mustard","neonyellow","[""mustard"",""neonyellow"",""low nameability""]","right-left","[""neonyellow"",""mustard""]","3","low nameability","23","right","trigger",""
"html-button-response","118","108646","0.0-92.0-0.0","CAN_117","117","","","","","","522","<button class=""jspsych-btn""><img src=""stimuli/mustard.png"" style=""width: 200px;height: 200px;""></button>","1","mustard","neonyellow","[""mustard"",""neonyellow"",""low nameability""]","right-left","[""neonyellow"",""mustard""]","3","low nameability","23","right","response","1"
"html-audio-button-response","119","108850","0.0-92.0-1.0","CAN_117","117","","","","","","null","stimuli/bleep.m4a","null","mustard","neonyellow","[""mustard"",""neonyellow"",""low nameability""]","right-left","[""neonyellow"",""mustard""]","3","low nameability","23","right","audio_feedback","1"
"html-button-response","120","109367","0.0-93.0","CAN_117","117","","","","","","null","<button class=""jspsych-btn""><img src=""stimuli/white_square.png"" style=""width: 200px;height: 200px;""></button>","null","mustard","neonyellow","[""mustard"",""neonyellow"",""low nameability""]","right-left","[""neonyellow"",""mustard""]","3","low nameability","23","right","iti",""
"html-button-response","121","109823","0.0-94.0","CAN_117","117","","","","","","431","","0","pink","mustard","[""pink"",""mustard"",""low nameability""]","right-left","[""mustard"",""pink""]","3","low nameability","24","right","trigger",""
"html-button-response","122","110417","0.0-95.0-0.0","CAN_117","117","","","","","","584","<button class=""jspsych-btn""><img src=""stimuli/pink.png"" style=""width: 200px;height: 200px;""></button>","1","pink","mustard","[""pink"",""mustard"",""low nameability""]","right-left","[""mustard"",""pink""]","3","low nameability","24","right","response","1"
"html-audio-button-response","123","110623","0.0-95.0-1.0","CAN_117","117","","","","","","null","stimuli/bleep.m4a","null","pink","mustard","[""pink"",""mustard"",""low nameability""]","right-left","[""mustard"",""pink""]","3","low nameability","24","right","audio_feedback","1"
"html-button-response","124","111144","0.0-96.0","CAN_117","117","","","","","","null","<button class=""jspsych-btn""><img src=""stimuli/white_square.png"" style=""width: 200px;height: 200px;""></button>","null","pink","mustard","[""pink"",""mustard"",""low nameability""]","right-left","[""mustard"",""pink""]","3","low nameability","24","right","iti",""
"html-button-response","125","111606","0.0-97.0","CAN_117","117","","","","","","441","","0","lightred","turquoise","[""lightred"",""turquoise"",""low nameability""]","right-left","[""turquoise"",""lightred""]","3","low nameability","25","right","trigger",""
"html-button-response","126","112136","0.0-98.0-0.0","CAN_117","117","","","","","","521","<button class=""jspsych-btn""><img src=""stimuli/lightred.png"" style=""width: 200px;height: 200px;""></button>","1","lightred","turquoise","[""lightred"",""turquoise"",""low nameability""]","right-left","[""turquoise"",""lightred""]","3","low nameability","25","right","response","1"
"html-audio-button-response","127","112344","0.0-98.0-1.0","CAN_117","117","","","","","","null","stimuli/bleep.m4a","null","lightred","turquoise","[""lightred"",""turquoise"",""low nameability""]","right-left","[""turquoise"",""lightred""]","3","low nameability","25","right","audio_feedback","1"
"html-button-response","128","112867","0.0-99.0","CAN_117","117","","","","","","null","<button class=""jspsych-btn""><img src=""stimuli/white_square.png"" style=""width: 200px;height: 200px;""></button>","null","lightred","turquoise","[""lightred"",""turquoise"",""low nameability""]","right-left","[""turquoise"",""lightred""]","3","low nameability","25","right","iti",""
"html-button-response","129","113343","0.0-100.0","CAN_117","117","","","","","","457","","0","blue","yellow","[""blue"",""yellow"",""high nameability""]","right-left","[""yellow"",""blue""]","3","high nameability","26","right","trigger",""
"html-button-response","130","113858","0.0-101.0-0.0","CAN_117","117","","","","","","505","<button class=""jspsych-btn""><img src=""stimuli/blue.png"" style=""width: 200px;height: 200px;""></button>","1","blue","yellow","[""blue"",""yellow"",""high nameability""]","right-left","[""yellow"",""blue""]","3","high nameability","26","right","response","1"
"html-audio-button-response","131","114062","0.0-101.0-1.0","CAN_117","117","","","","","","null","stimuli/bleep.m4a","null","blue","yellow","[""blue"",""yellow"",""high nameability""]","right-left","[""yellow"",""blue""]","3","high nameability","26","right","audio_feedback","1"
"html-button-response","132","114586","0.0-102.0","CAN_117","117","","","","","","null","<button class=""jspsych-btn""><img src=""stimuli/white_square.png"" style=""width: 200px;height: 200px;""></button>","null","blue","yellow","[""blue"",""yellow"",""high nameability""]","right-left","[""yellow"",""blue""]","3","high nameability","26","right","iti",""
"html-button-response","133","114990","0.0-103.0","CAN_117","117","","","","","","379","","0","blue","orange","[""blue"",""orange"",""high nameability""]","right-left","[""orange"",""blue""]","3","high nameability","27","right","trigger",""
"html-button-response","134","115483","0.0-104.0-0.0","CAN_117","117","","","","","","485","<button class=""jspsych-btn""><img src=""stimuli/blue.png"" style=""width: 200px;height: 200px;""></button>","1","blue","orange","[""blue"",""orange"",""high nameability""]","right-left","[""orange"",""blue""]","3","high nameability","27","right","response","1"
"html-audio-button-response","135","115693","0.0-104.0-1.0","CAN_117","117","","","","","","null","stimuli/bleep.m4a","null","blue","orange","[""blue"",""orange"",""high nameability""]","right-left","[""orange"",""blue""]","3","high nameability","27","right","audio_feedback","1"
"html-button-response","136","116217","0.0-105.0","CAN_117","117","","","","","","null","<button class=""jspsych-btn""><img src=""stimuli/white_square.png"" style=""width: 200px;height: 200px;""></button>","null","blue","orange","[""blue"",""orange"",""high nameability""]","right-left","[""orange"",""blue""]","3","high nameability","27","right","iti",""
"html-button-response","137","116639","0.0-106.0","CAN_117","117","","","","","","405","","0","lightred","darkgreenblue","[""lightred"",""darkgreenblue"",""low nameability""]","right-left","[""darkgreenblue"",""lightred""]","3","low nameability","28","right","trigger",""
"html-button-response","138","117166","0.0-107.0-0.0","CAN_117","117","","","","","","519","<button class=""jspsych-btn""><img src=""stimuli/lightred.png"" style=""width: 200px;height: 200px;""></button>","1","lightred","darkgreenblue","[""lightred"",""darkgreenblue"",""low nameability""]","right-left","[""darkgreenblue"",""lightred""]","3","low nameability","28","right","response","1"
"html-audio-button-response","139","117374","0.0-107.0-1.0","CAN_117","117","","","","","","null","stimuli/bleep.m4a","null","lightred","darkgreenblue","[""lightred"",""darkgreenblue"",""low nameability""]","right-left","[""darkgreenblue"",""lightred""]","3","low nameability","28","right","audio_feedback","1"
"html-button-response","140","117895","0.0-108.0","CAN_117","117","","","","","","null","<button class=""jspsych-btn""><img src=""stimuli/white_square.png"" style=""width: 200px;height: 200px;""></button>","null","lightred","darkgreenblue","[""lightred"",""darkgreenblue"",""low nameability""]","right-left","[""darkgreenblue"",""lightred""]","3","low nameability","28","right","iti",""
"html-button-response","141","118349","0.0-109.0","CAN_117","117","","","","","","435","","0","turquoise","pink","[""turquoise"",""pink"",""low nameability""]","left-right","[""turquoise"",""pink"",""low nameability""]","3","low nameability","29","left","trigger",""
"html-button-response","142","118960","0.0-110.0-0.0","CAN_117","117","","","","","","603","<button class=""jspsych-btn""><img src=""stimuli/turquoise.png"" style=""width: 200px;height: 200px;""></button>","0","turquoise","pink","[""turquoise"",""pink"",""low nameability""]","left-right","[""turquoise"",""pink"",""low nameability""]","3","low nameability","29","left","response","1"
"html-audio-button-response","143","119168","0.0-110.0-1.0","CAN_117","117","","","","","","null","stimuli/bleep.m4a","null","turquoise","pink","[""turquoise"",""pink"",""low nameability""]","left-right","[""turquoise"",""pink"",""low nameability""]","3","low nameability","29","left","audio_feedback","1"
"html-button-response","144","119684","0.0-111.0","CAN_117","117","","","","","","null","<button class=""jspsych-btn""><img src=""stimuli/white_square.png"" style=""width: 200px;height: 200px;""></button>","null","turquoise","pink","[""turquoise"",""pink"",""low nameability""]","left-right","[""turquoise"",""pink"",""low nameability""]","3","low nameability","29","left","iti",""
"html-button-response","145","120114","0.0-112.0","CAN_117","117","","","","","","410","","0","yellow","purple","[""yellow"",""purple"",""high nameability""]","left-right","[""yellow"",""purple"",""high nameability""]","3","high nameability","30","left","trigger",""
"html-button-response","146","120696","0.0-113.0-0.0","CAN_117","117","","","","","","572","<button class=""jspsych-btn""><img src=""stimuli/yellow.png"" style=""width: 200px;height: 200px;""></button>","0","yellow","purple","[""yellow"",""purple"",""high nameability""]","left-right","[""yellow"",""purple"",""high nameability""]","3","high nameability","30","left","response","1"
"html-audio-button-response","147","120904","0.0-113.0-1.0","CAN_117","117","","","","","","null","stimuli/bleep.m4a","null","yellow","purple","[""yellow"",""purple"",""high nameability""]","left-right","[""yellow"",""purple"",""high nameability""]","3","high nameability","30","left","audio_feedback","1"
"html-button-response","148","121423","0.0-114.0","CAN_117","117","","","","","","null","<button class=""jspsych-btn""><img src=""stimuli/white_square.png"" style=""width: 200px;height: 200px;""></button>","null","yellow","purple","[""yellow"",""purple"",""high nameability""]","left-right","[""yellow"",""purple"",""high nameability""]","3","high nameability","30","left","iti",""
"pavlovia","149","121489","0.0-115.0","CAN_117","117","","","","","","","","","","","","","","","","","","",""
"pavlovia","150","121498","0.0-116.0","CAN_117","117","","","","","","","","","","","","","","","","","","",""
"html-audio-button-response","151","123582","0.0-117.0","CAN_117","117","","","","","","2157","stimuli/tada.m4a","0","","","","","","","","","","",""
"html-button-response","152","124041","0.0-118.0","CAN_117","117","","","","","","453","","0","","","","","","","","","","",""
"html-button-response","153","124709","0.0-119.0","CAN_117","117","","","","","","659","","0","purple","blue","[""purple"",""blue"",""high nameability""]","left-right","[""purple"",""blue"",""high nameability""]","4","high nameability","31","left","trigger",""
"html-button-response","154","125334","0.0-120.0-0.0","CAN_117","117","","","","","","616","<button class=""jspsych-btn""><img src=""stimuli/purple.png"" style=""width: 200px;height: 200px;""></button>","0","purple","blue","[""purple"",""blue"",""high nameability""]","left-right","[""purple"",""blue"",""high nameability""]","4","high nameability","31","left","response","1"
"html-audio-button-response","155","125539","0.0-120.0-1.0","CAN_117","117","","","","","","null","stimuli/bleep.m4a","null","purple","blue","[""purple"",""blue"",""high nameability""]","left-right","[""purple"",""blue"",""high nameability""]","4","high nameability","31","left","audio_feedback","1"
"html-button-response","156","126062","0.0-121.0","CAN_117","117","","","","","","null","<button class=""jspsych-btn""><img src=""stimuli/white_square.png"" style=""width: 200px;height: 200px;""></button>","null","purple","blue","[""purple"",""blue"",""high nameability""]","left-right","[""purple"",""blue"",""high nameability""]","4","high nameability","31","left","iti",""
"html-button-response","157","126533","0.0-122.0","CAN_117","117","","","","","","451","","0","mustard","turquoise","[""mustard"",""turquoise"",""low nameability""]","left-right","[""mustard"",""turquoise"",""low nameability""]","4","low nameability","32","left","trigger",""
"html-button-response","158","127179","0.0-123.0-0.0","CAN_117","117","","","","","","640","<button class=""jspsych-btn""><img src=""stimuli/mustard.png"" style=""width: 200px;height: 200px;""></button>","0","mustard","turquoise","[""mustard"",""turquoise"",""low nameability""]","left-right","[""mustard"",""turquoise"",""low nameability""]","4","low nameability","32","left","response","1"
"html-audio-button-response","159","127383","0.0-123.0-1.0","CAN_117","117","","","","","","null","stimuli/bleep.m4a","null","mustard","turquoise","[""mustard"",""turquoise"",""low nameability""]","left-right","[""mustard"",""turquoise"",""low nameability""]","4","low nameability","32","left","audio_feedback","1"
"html-button-response","160","127903","0.0-124.0","CAN_117","117","","","","","","null","<button class=""jspsych-btn""><img src=""stimuli/white_square.png"" style=""width: 200px;height: 200px;""></button>","null","mustard","turquoise","[""mustard"",""turquoise"",""low nameability""]","left-right","[""mustard"",""turquoise"",""low nameability""]","4","low nameability","32","left","iti",""
"html-button-response","161","128354","0.0-125.0","CAN_117","117","","","","","","433","","0","blue","brown","[""blue"",""brown"",""high nameability""]","right-left","[""brown"",""blue""]","4","high nameability","33","right","trigger",""
"html-button-response","162","128909","0.0-126.0-0.0","CAN_117","117","","","","","","548","<button class=""jspsych-btn""><img src=""stimuli/blue.png"" style=""width: 200px;height: 200px;""></button>","1","blue","brown","[""blue"",""brown"",""high nameability""]","right-left","[""brown"",""blue""]","4","high nameability","33","right","response","1"
"html-audio-button-response","163","129117","0.0-126.0-1.0","CAN_117","117","","","","","","null","stimuli/bleep.m4a","null","blue","brown","[""blue"",""brown"",""high nameability""]","right-left","[""brown"",""blue""]","4","high nameability","33","right","audio_feedback","1"
"html-button-response","164","129635","0.0-127.0","CAN_117","117","","","","","","null","<button class=""jspsych-btn""><img src=""stimuli/white_square.png"" style=""width: 200px;height: 200px;""></button>","null","blue","brown","[""blue"",""brown"",""high nameability""]","right-left","[""brown"",""blue""]","4","high nameability","33","right","iti",""
"html-button-response","165","130138","0.0-128.0","CAN_117","117","","","","","","483","","0","turquoise","lightred","[""turquoise"",""lightred"",""low nameability""]","left-right","[""turquoise"",""lightred"",""low nameability""]","4","low nameability","34","left","trigger",""
"html-button-response","166","130701","0.0-129.0-0.0","CAN_117","117","","","","","","556","<button class=""jspsych-btn""><img src=""stimuli/turquoise.png"" style=""width: 200px;height: 200px;""></button>","0","turquoise","lightred","[""turquoise"",""lightred"",""low nameability""]","left-right","[""turquoise"",""lightred"",""low nameability""]","4","low nameability","34","left","response","1"
"html-audio-button-response","167","130908","0.0-129.0-1.0","CAN_117","117","","","","","","null","stimuli/bleep.m4a","null","turquoise","lightred","[""turquoise"",""lightred"",""low nameability""]","left-right","[""turquoise"",""lightred"",""low nameability""]","4","low nameability","34","left","audio_feedback","1"
"html-button-response","168","131427","0.0-130.0","CAN_117","117","","","","","","null","<button class=""jspsych-btn""><img src=""stimuli/white_square.png"" style=""width: 200px;height: 200px;""></button>","null","turquoise","lightred","[""turquoise"",""lightred"",""low nameability""]","left-right","[""turquoise"",""lightred"",""low nameability""]","4","low nameability","34","left","iti",""
"html-button-response","169","131842","0.0-131.0","CAN_117","117","","","","","","397","","0","yellow","blue","[""yellow"",""blue"",""high nameability""]","left-right","[""yellow"",""blue"",""high nameability""]","4","high nameability","35","left","trigger",""
"html-button-response","170","132452","0.0-132.0-0.0","CAN_117","117","","","","","","603","<button class=""jspsych-btn""><img src=""stimuli/yellow.png"" style=""width: 200px;height: 200px;""></button>","0","yellow","blue","[""yellow"",""blue"",""high nameability""]","left-right","[""yellow"",""blue"",""high nameability""]","4","high nameability","35","left","response","1"
"html-audio-button-response","171","132658","0.0-132.0-1.0","CAN_117","117","","","","","","null","stimuli/bleep.m4a","null","yellow","blue","[""yellow"",""blue"",""high nameability""]","left-right","[""yellow"",""blue"",""high nameability""]","4","high nameability","35","left","audio_feedback","1"
"html-button-response","172","133176","0.0-133.0","CAN_117","117","","","","","","null","<button class=""jspsych-btn""><img src=""stimuli/white_square.png"" style=""width: 200px;height: 200px;""></button>","null","yellow","blue","[""yellow"",""blue"",""high nameability""]","left-right","[""yellow"",""blue"",""high nameability""]","4","high nameability","35","left","iti",""
"html-button-response","173","133627","0.0-134.0","CAN_117","117","","","","","","434","","0","darkgreenblue","pink","[""darkgreenblue"",""pink"",""low nameability""]","left-right","[""darkgreenblue"",""pink"",""low nameability""]","4","low nameability","36","left","trigger",""
"html-button-response","174","134204","0.0-135.0-0.0","CAN_117","117","","","","","","566","<button class=""jspsych-btn""><img src=""stimuli/darkgreenblue.png"" style=""width: 200px;height: 200px;""></button>","0","darkgreenblue","pink","[""darkgreenblue"",""pink"",""low nameability""]","left-right","[""darkgreenblue"",""pink"",""low nameability""]","4","low nameability","36","left","response","1"
"html-audio-button-response","175","134411","0.0-135.0-1.0","CAN_117","117","","","","","","null","stimuli/bleep.m4a","null","darkgreenblue","pink","[""darkgreenblue"",""pink"",""low nameability""]","left-right","[""darkgreenblue"",""pink"",""low nameability""]","4","low nameability","36","left","audio_feedback","1"
"html-button-response","176","134929","0.0-136.0","CAN_117","117","","","","","","null","<button class=""jspsych-btn""><img src=""stimuli/white_square.png"" style=""width: 200px;height: 200px;""></button>","null","darkgreenblue","pink","[""darkgreenblue"",""pink"",""low nameability""]","left-right","[""darkgreenblue"",""pink"",""low nameability""]","4","low nameability","36","left","iti",""
"html-button-response","177","135366","0.0-137.0","CAN_117","117","","","","","","417","","0","neonyellow","mustard","[""neonyellow"",""mustard"",""low nameability""]","left-right","[""neonyellow"",""mustard"",""low nameability""]","4","low nameability","37","left","trigger",""
"html-button-response","178","135962","0.0-138.0-0.0","CAN_117","117","","","","","","591","<button class=""jspsych-btn""><img src=""stimuli/neonyellow.png"" style=""width: 200px;height: 200px;""></button>","0","neonyellow","mustard","[""neonyellow"",""mustard"",""low nameability""]","left-right","[""neonyellow"",""mustard"",""low nameability""]","4","low nameability","37","left","response","1"
"html-audio-button-response","179","136167","0.0-138.0-1.0","CAN_117","117","","","","","","null","stimuli/bleep.m4a","null","neonyellow","mustard","[""neonyellow"",""mustard"",""low nameability""]","left-right","[""neonyellow"",""mustard"",""low nameability""]","4","low nameability","37","left","audio_feedback","1"
"html-button-response","180","136687","0.0-139.0","CAN_117","117","","","","","","null","<button class=""jspsych-btn""><img src=""stimuli/white_square.png"" style=""width: 200px;height: 200px;""></button>","null","neonyellow","mustard","[""neonyellow"",""mustard"",""low nameability""]","left-right","[""neonyellow"",""mustard"",""low nameability""]","4","low nameability","37","left","iti",""
"html-button-response","181","137161","0.0-140.0","CAN_117","117","","","","","","456","","0","brown","orange","[""brown"",""orange"",""high nameability""]","right-left","[""orange"",""brown""]","4","high nameability","38","right","trigger",""
"html-button-response","182","137816","0.0-141.0-0.0","CAN_117","117","","","","","","649","<button class=""jspsych-btn""><img src=""stimuli/brown.png"" style=""width: 200px;height: 200px;""></button>","1","brown","orange","[""brown"",""orange"",""high nameability""]","right-left","[""orange"",""brown""]","4","high nameability","38","right","response","1"
"html-audio-button-response","183","138019","0.0-141.0-1.0","CAN_117","117","","","","","","null","stimuli/bleep.m4a","null","brown","orange","[""brown"",""orange"",""high nameability""]","right-left","[""orange"",""brown""]","4","high nameability","38","right","audio_feedback","1"
"html-button-response","184","138533","0.0-142.0","CAN_117","117","","","","","","null","<button class=""jspsych-btn""><img src=""stimuli/white_square.png"" style=""width: 200px;height: 200px;""></button>","null","brown","orange","[""brown"",""orange"",""high nameability""]","right-left","[""orange"",""brown""]","4","high nameability","38","right","iti",""
"html-button-response","185","139008","0.0-143.0","CAN_117","117","","","","","","461","","0","lightred","neonyellow","[""lightred"",""neonyellow"",""low nameability""]","left-right","[""lightred"",""neonyellow"",""low nameability""]","4","low nameability","39","left","trigger",""
"html-button-response","186","139577","0.0-144.0-0.0","CAN_117","117","","","","","","560","<button class=""jspsych-btn""><img src=""stimuli/lightred.png"" style=""width: 200px;height: 200px;""></button>","0","lightred","neonyellow","[""lightred"",""neonyellow"",""low nameability""]","left-right","[""lightred"",""neonyellow"",""low nameability""]","4","low nameability","39","left","response","1"
"html-audio-button-response","187","139783","0.0-144.0-1.0","CAN_117","117","","","","","","null","stimuli/bleep.m4a","null","lightred","neonyellow","[""lightred"",""neonyellow"",""low nameability""]","left-right","[""lightred"",""neonyellow"",""low nameability""]","4","low nameability","39","left","audio_feedback","1"
"html-button-response","188","140303","0.0-145.0","CAN_117","117","","","","","","null","<button class=""jspsych-btn""><img src=""stimuli/white_square.png"" style=""width: 200px;height: 200px;""></button>","null","lightred","neonyellow","[""lightred"",""neonyellow"",""low nameability""]","left-right","[""lightred"",""neonyellow"",""low nameability""]","4","low nameability","39","left","iti",""
"html-button-response","189","140766","0.0-146.0","CAN_117","117","","","","","","445","","0","turquoise","mustard","[""turquoise"",""mustard"",""low nameability""]","right-left","[""mustard"",""turquoise""]","4","low nameability","40","right","trigger",""
"html-button-response","190","141341","0.0-147.0-0.0","CAN_117","117","","","","","","566","<button class=""jspsych-btn""><img src=""stimuli/turquoise.png"" style=""width: 200px;height: 200px;""></button>","1","turquoise","mustard","[""turquoise"",""mustard"",""low nameability""]","right-left","[""mustard"",""turquoise""]","4","low nameability","40","right","response","1"
"html-audio-button-response","191","141551","0.0-147.0-1.0","CAN_117","117","","","","","","null","stimuli/bleep.m4a","null","turquoise","mustard","[""turquoise"",""mustard"",""low nameability""]","right-left","[""mustard"",""turquoise""]","4","low nameability","40","right","audio_feedback","1"
"html-button-response","192","142073","0.0-148.0","CAN_117","117","","","","","","null","<button class=""jspsych-btn""><img src=""stimuli/white_square.png"" style=""width: 200px;height: 200px;""></button>","null","turquoise","mustard","[""turquoise"",""mustard"",""low nameability""]","right-left","[""mustard"",""turquoise""]","4","low nameability","40","right","iti",""
"pavlovia","193","142137","0.0-149.0","CAN_117","117","","","","","","","","","","","","","","","","","","",""
"pavlovia","194","142145","0.0-150.0","CAN_117","117","","","","","","","","","","","","","","","","","","",""
"html-audio-button-response","195","145176","0.0-151.0","CAN_117","117","","","","","","3104","stimuli/tada.m4a","0","","","","","","","","","","",""
"html-button-response","196","145744","0.0-152.0","CAN_117","117","","","","","","560","","0","","","","","","","","","","",""
"html-button-response","197","146602","0.0-153.0","CAN_117","117","","","","","","846","","0","orange","red","[""orange"",""red"",""high nameability""]","right-left","[""red"",""orange""]","5","high nameability","41","right","trigger",""
"html-button-response","198","147177","0.0-154.0-0.0","CAN_117","117","","","","","","570","<button class=""jspsych-btn""><img src=""stimuli/orange.png"" style=""width: 200px;height: 200px;""></button>","1","orange","red","[""orange"",""red"",""high nameability""]","right-left","[""red"",""orange""]","5","high nameability","41","right","response","1"
"html-audio-button-response","199","147383","0.0-154.0-1.0","CAN_117","117","","","","","","null","stimuli/bleep.m4a","null","orange","red","[""orange"",""red"",""high nameability""]","right-left","[""red"",""orange""]","5","high nameability","41","right","audio_feedback","1"
"html-button-response","200","147901","0.0-155.0","CAN_117","117","","","","","","null","<button class=""jspsych-btn""><img src=""stimuli/white_square.png"" style=""width: 200px;height: 200px;""></button>","null","orange","red","[""orange"",""red"",""high nameability""]","right-left","[""red"",""orange""]","5","high nameability","41","right","iti",""
"html-button-response","201","148422","0.0-156.0","CAN_117","117","","","","","","496","","0","red","brown","[""red"",""brown"",""high nameability""]","right-left","[""brown"",""red""]","5","high nameability","42","right","trigger",""
"html-button-response","202","148966","0.0-157.0-0.0","CAN_117","117","","","","","","530","<button class=""jspsych-btn""><img src=""stimuli/red.png"" style=""width: 200px;height: 200px;""></button>","1","red","brown","[""red"",""brown"",""high nameability""]","right-left","[""brown"",""red""]","5","high nameability","42","right","response","1"
"html-audio-button-response","203","149183","0.0-157.0-1.0","CAN_117","117","","","","","","null","stimuli/bleep.m4a","null","red","brown","[""red"",""brown"",""high nameability""]","right-left","[""brown"",""red""]","5","high nameability","42","right","audio_feedback","1"
"html-button-response","204","149715","0.0-158.0","CAN_117","117","","","","","","null","<button class=""jspsych-btn""><img src=""stimuli/white_square.png"" style=""width: 200px;height: 200px;""></button>","null","red","brown","[""red"",""brown"",""high nameability""]","right-left","[""brown"",""red""]","5","high nameability","42","right","iti",""
"html-button-response","205","150174","0.0-159.0","CAN_117","117","","","","","","433","","0","neonyellow","lightred","[""neonyellow"",""lightred"",""low nameability""]","left-right","[""neonyellow"",""lightred"",""low nameability""]","5","low nameability","43","left","trigger",""
"html-button-response","206","150817","0.0-160.0-0.0","CAN_117","117","","","","","","629","<button class=""jspsych-btn""><img src=""stimuli/neonyellow.png"" style=""width: 200px;height: 200px;""></button>","0","neonyellow","lightred","[""neonyellow"",""lightred"",""low nameability""]","left-right","[""neonyellow"",""lightred"",""low nameability""]","5","low nameability","43","left","response","1"
"html-audio-button-response","207","151033","0.0-160.0-1.0","CAN_117","117","","","","","","null","stimuli/bleep.m4a","null","neonyellow","lightred","[""neonyellow"",""lightred"",""low nameability""]","left-right","[""neonyellow"",""lightred"",""low nameability""]","5","low nameability","43","left","audio_feedback","1"
"html-button-response","208","151557","0.0-161.0","CAN_117","117","","","","","","null","<button class=""jspsych-btn""><img src=""stimuli/white_square.png"" style=""width: 200px;height: 200px;""></button>","null","neonyellow","lightred","[""neonyellow"",""lightred"",""low nameability""]","left-right","[""neonyellow"",""lightred"",""low nameability""]","5","low nameability","43","left","iti",""
"html-button-response","209","152028","0.0-162.0","CAN_117","117","","","","","","452","","0","red","yellow","[""red"",""yellow"",""high nameability""]","right-left","[""yellow"",""red""]","5","high nameability","44","right","trigger",""
"html-button-response","210","152594","0.0-163.0-0.0","CAN_117","117","","","","","","557","<button class=""jspsych-btn""><img src=""stimuli/red.png"" style=""width: 200px;height: 200px;""></button>","1","red","yellow","[""red"",""yellow"",""high nameability""]","right-left","[""yellow"",""red""]","5","high nameability","44","right","response","1"
"html-audio-button-response","211","152818","0.0-163.0-1.0","CAN_117","117","","","","","","null","stimuli/bleep.m4a","null","red","yellow","[""red"",""yellow"",""high nameability""]","right-left","[""yellow"",""red""]","5","high nameability","44","right","audio_feedback","1"
"html-button-response","212","153355","0.0-164.0","CAN_117","117","","","","","","null","<button class=""jspsych-btn""><img src=""stimuli/white_square.png"" style=""width: 200px;height: 200px;""></button>","null","red","yellow","[""red"",""yellow"",""high nameability""]","right-left","[""yellow"",""red""]","5","high nameability","44","right","iti",""
"html-button-response","213","153845","0.0-165.0","CAN_117","117","","","","","","451","","0","turquoise","neonyellow","[""turquoise"",""neonyellow"",""low nameability""]","right-left","[""neonyellow"",""turquoise""]","5","low nameability","45","right","trigger",""
"html-button-response","214","154386","0.0-166.0-0.0","CAN_117","117","","","","","","523","<button class=""jspsych-btn""><img src=""stimuli/turquoise.png"" style=""width: 200px;height: 200px;""></button>","1","turquoise","neonyellow","[""turquoise"",""neonyellow"",""low nameability""]","right-left","[""neonyellow"",""turquoise""]","5","low nameability","45","right","response","1"
"html-audio-button-response","215","154599","0.0-166.0-1.0","CAN_117","117","","","","","","null","stimuli/bleep.m4a","null","turquoise","neonyellow","[""turquoise"",""neonyellow"",""low nameability""]","right-left","[""neonyellow"",""turquoise""]","5","low nameability","45","right","audio_feedback","1"
"html-button-response","216","155131","0.0-167.0","CAN_117","117","","","","","","null","<button class=""jspsych-btn""><img src=""stimuli/white_square.png"" style=""width: 200px;height: 200px;""></button>","null","turquoise","neonyellow","[""turquoise"",""neonyellow"",""low nameability""]","right-left","[""neonyellow"",""turquoise""]","5","low nameability","45","right","iti",""
"html-button-response","217","155644","0.0-168.0","CAN_117","117","","","","","","480","","0","mustard","darkgreenblue","[""mustard"",""darkgreenblue"",""low nameability""]","left-right","[""mustard"",""darkgreenblue"",""low nameability""]","5","low nameability","46","left","trigger",""
"html-button-response","218","156192","0.0-169.0-0.0","CAN_117","117","","","","","","538","<button class=""jspsych-btn""><img src=""stimuli/mustard.png"" style=""width: 200px;height: 200px;""></button>","0","mustard","darkgreenblue","[""mustard"",""darkgreenblue"",""low nameability""]","left-right","[""mustard"",""darkgreenblue"",""low nameability""]","5","low nameability","46","left","response","1"
"html-audio-button-response","219","156403","0.0-169.0-1.0","CAN_117","117","","","","","","null","stimuli/bleep.m4a","null","mustard","darkgreenblue","[""mustard"",""darkgreenblue"",""low nameability""]","left-right","[""mustard"",""darkgreenblue"",""low nameability""]","5","low nameability","46","left","audio_feedback","1"
"html-button-response","220","156930","0.0-170.0","CAN_117","117","","","","","","null","<button class=""jspsych-btn""><img src=""stimuli/white_square.png"" style=""width: 200px;height: 200px;""></button>","null","mustard","darkgreenblue","[""mustard"",""darkgreenblue"",""low nameability""]","left-right","[""mustard"",""darkgreenblue"",""low nameability""]","5","low nameability","46","left","iti",""
"html-button-response","221","157418","0.0-171.0","CAN_117","117","","","","","","469","","0","yellow","red","[""yellow"",""red"",""high nameability""]","left-right","[""yellow"",""red"",""high nameability""]","5","high nameability","47","left","trigger",""
"html-button-response","222","158013","0.0-172.0-0.0","CAN_117","117","","","","","","578","<button class=""jspsych-btn""><img src=""stimuli/yellow.png"" style=""width: 200px;height: 200px;""></button>","0","yellow","red","[""yellow"",""red"",""high nameability""]","left-right","[""yellow"",""red"",""high nameability""]","5","high nameability","47","left","response","1"
"html-audio-button-response","223","158219","0.0-172.0-1.0","CAN_117","117","","","","","","null","stimuli/bleep.m4a","null","yellow","red","[""yellow"",""red"",""high nameability""]","left-right","[""yellow"",""red"",""high nameability""]","5","high nameability","47","left","audio_feedback","1"
"html-button-response","224","158738","0.0-173.0","CAN_117","117","","","","","","null","<button class=""jspsych-btn""><img src=""stimuli/white_square.png"" style=""width: 200px;height: 200px;""></button>","null","yellow","red","[""yellow"",""red"",""high nameability""]","left-right","[""yellow"",""red"",""high nameability""]","5","high nameability","47","left","iti",""
"html-button-response","225","159256","0.0-174.0","CAN_117","117","","","","","","492","","0","darkgreenblue","turquoise","[""darkgreenblue"",""turquoise"",""low nameability""]","left-right","[""darkgreenblue"",""turquoise"",""low nameability""]","5","low nameability","48","left","trigger",""
"html-button-response","226","159915","0.0-175.0-0.0","CAN_117","117","","","","","","650","<button class=""jspsych-btn""><img src=""stimuli/darkgreenblue.png"" style=""width: 200px;height: 200px;""></button>","0","darkgreenblue","turquoise","[""darkgreenblue"",""turquoise"",""low nameability""]","left-right","[""darkgreenblue"",""turquoise"",""low nameability""]","5","low nameability","48","left","response","1"
"html-audio-button-response","227","160119","0.0-175.0-1.0","CAN_117","117","","","","","","null","stimuli/bleep.m4a","null","darkgreenblue","turquoise","[""darkgreenblue"",""turquoise"",""low nameability""]","left-right","[""darkgreenblue"",""turquoise"",""low nameability""]","5","low nameability","48","left","audio_feedback","1"
"html-button-response","228","160648","0.0-176.0","CAN_117","117","","","","","","null","<button class=""jspsych-btn""><img src=""stimuli/white_square.png"" style=""width: 200px;height: 200px;""></button>","null","darkgreenblue","turquoise","[""darkgreenblue"",""turquoise"",""low nameability""]","left-right","[""darkgreenblue"",""turquoise"",""low nameability""]","5","low nameability","48","left","iti",""
"html-button-response","229","161145","0.0-177.0","CAN_117","117","","","","","","472","","0","neonyellow","darkgreenblue","[""neonyellow"",""darkgreenblue"",""low nameability""]","left-right","[""neonyellow"",""darkgreenblue"",""low nameability""]","5","low nameability","49","left","trigger",""
"html-button-response","230","161701","0.0-178.0-0.0","CAN_117","117","","","","","","547","<button class=""jspsych-btn""><img src=""stimuli/neonyellow.png"" style=""width: 200px;height: 200px;""></button>","0","neonyellow","darkgreenblue","[""neonyellow"",""darkgreenblue"",""low nameability""]","left-right","[""neonyellow"",""darkgreenblue"",""low nameability""]","5","low nameability","49","left","response","1"
"html-audio-button-response","231","161911","0.0-178.0-1.0","CAN_117","117","","","","","","null","stimuli/bleep.m4a","null","neonyellow","darkgreenblue","[""neonyellow"",""darkgreenblue"",""low nameability""]","left-right","[""neonyellow"",""darkgreenblue"",""low nameability""]","5","low nameability","49","left","audio_feedback","1"
"html-button-response","232","162438","0.0-179.0","CAN_117","117","","","","","","null","<button class=""jspsych-btn""><img src=""stimuli/white_square.png"" style=""width: 200px;height: 200px;""></button>","null","neonyellow","darkgreenblue","[""neonyellow"",""darkgreenblue"",""low nameability""]","left-right","[""neonyellow"",""darkgreenblue"",""low nameability""]","5","low nameability","49","left","iti",""
"html-button-response","233","163033","0.0-180.0","CAN_117","117","","","","","","575","","0","yellow","orange","[""yellow"",""orange"",""high nameability""]","left-right","[""yellow"",""orange"",""high nameability""]","5","high nameability","50","left","trigger",""
"html-button-response","234","163566","0.0-181.0-0.0","CAN_117","117","","","","","","526","<button class=""jspsych-btn""><img src=""stimuli/yellow.png"" style=""width: 200px;height: 200px;""></button>","0","yellow","orange","[""yellow"",""orange"",""high nameability""]","left-right","[""yellow"",""orange"",""high nameability""]","5","high nameability","50","left","response","1"
"html-audio-button-response","235","163780","0.0-181.0-1.0","CAN_117","117","","","","","","null","stimuli/bleep.m4a","null","yellow","orange","[""yellow"",""orange"",""high nameability""]","left-right","[""yellow"",""orange"",""high nameability""]","5","high nameability","50","left","audio_feedback","1"
"html-button-response","236","164305","0.0-182.0","CAN_117","117","","","","","","null","<button class=""jspsych-btn""><img src=""stimuli/white_square.png"" style=""width: 200px;height: 200px;""></button>","null","yellow","orange","[""yellow"",""orange"",""high nameability""]","left-right","[""yellow"",""orange"",""high nameability""]","5","high nameability","50","left","iti",""
"pavlovia","237","164429","0.0-183.0","CAN_117","117","","","","","","","","","","","","","","","","","","",""
"pavlovia","238","164442","0.0-184.0","CAN_117","117","","","","","","","","","","","","","","","","","","",""
"html-audio-button-response","239","165893","0.0-185.0","CAN_117","117","","","","","","1584","stimuli/tada.m4a","0","","","","","","","","","","",""
"html-button-response","240","166621","0.0-186.0","CAN_117","117","","","","","","717","","0","","","","","","","","","","",""
"html-button-response","241","167229","0.0-187.0","CAN_117","117","","","","","","599","","0","orange","purple","[""orange"",""purple"",""high nameability""]","left-right","[""orange"",""purple"",""high nameability""]","6","high nameability","51","left","trigger",""
"html-button-response","242","167809","0.0-188.0-0.0","CAN_117","117","","","","","","570","<button class=""jspsych-btn""><img src=""stimuli/orange.png"" style=""width: 200px;height: 200px;""></button>","0","orange","purple","[""orange"",""purple"",""high nameability""]","left-right","[""orange"",""purple"",""high nameability""]","6","high nameability","51","left","response","1"
"html-audio-button-response","243","168019","0.0-188.0-1.0","CAN_117","117","","","","","","null","stimuli/bleep.m4a","null","orange","purple","[""orange"",""purple"",""high nameability""]","left-right","[""orange"",""purple"",""high nameability""]","6","high nameability","51","left","audio_feedback","1"
"html-button-response","244","168553","0.0-189.0","CAN_117","117","","","","","","null","<button class=""jspsych-btn""><img src=""stimuli/white_square.png"" style=""width: 200px;height: 200px;""></button>","null","orange","purple","[""orange"",""purple"",""high nameability""]","left-right","[""orange"",""purple"",""high nameability""]","6","high nameability","51","left","iti",""
"html-button-response","245","169065","0.0-190.0","CAN_117","117","","","","","","500","","0","orange","brown","[""orange"",""brown"",""high nameability""]","right-left","[""brown"",""orange""]","6","high nameability","52","right","trigger",""
"html-button-response","246","169551","0.0-191.0-0.0","CAN_117","117","","","","","","476","<button class=""jspsych-btn""><img src=""stimuli/orange.png"" style=""width: 200px;height: 200px;""></button>","1","orange","brown","[""orange"",""brown"",""high nameability""]","right-left","[""brown"",""orange""]","6","high nameability","52","right","response","1"
"html-audio-button-response","247","169759","0.0-191.0-1.0","CAN_117","117","","","","","","null","stimuli/bleep.m4a","null","orange","brown","[""orange"",""brown"",""high nameability""]","right-left","[""brown"",""orange""]","6","high nameability","52","right","audio_feedback","1"
"html-button-response","248","170285","0.0-192.0","CAN_117","117","","","","","","null","<button class=""jspsych-btn""><img src=""stimuli/white_square.png"" style=""width: 200px;height: 200px;""></button>","null","orange","brown","[""orange"",""brown"",""high nameability""]","right-left","[""brown"",""orange""]","6","high nameability","52","right","iti",""
"html-button-response","249","170876","0.0-193.0","CAN_117","117","","","","","","571","","0","pink","darkgreenblue","[""pink"",""darkgreenblue"",""low nameability""]","right-left","[""darkgreenblue"",""pink""]","6","low nameability","53","right","trigger",""
"html-button-response","250","171392","0.0-194.0-0.0","CAN_117","117","","","","","","509","<button class=""jspsych-btn""><img src=""stimuli/pink.png"" style=""width: 200px;height: 200px;""></button>","1","pink","darkgreenblue","[""pink"",""darkgreenblue"",""low nameability""]","right-left","[""darkgreenblue"",""pink""]","6","low nameability","53","right","response","1"
"html-audio-button-response","251","171598","0.0-194.0-1.0","CAN_117","117","","","","","","null","stimuli/bleep.m4a","null","pink","darkgreenblue","[""pink"",""darkgreenblue"",""low nameability""]","right-left","[""darkgreenblue"",""pink""]","6","low nameability","53","right","audio_feedback","1"
"html-button-response","252","172118","0.0-195.0","CAN_117","117","","","","","","null","<button class=""jspsych-btn""><img src=""stimuli/white_square.png"" style=""width: 200px;height: 200px;""></button>","null","pink","darkgreenblue","[""pink"",""darkgreenblue"",""low nameability""]","right-left","[""darkgreenblue"",""pink""]","6","low nameability","53","right","iti",""
"html-button-response","253","172679","0.0-196.0","CAN_117","117","","","","","","541","","0","neonyellow","pink","[""neonyellow"",""pink"",""low nameability""]","left-right","[""neonyellow"",""pink"",""low nameability""]","6","low nameability","54","left","trigger",""
"html-button-response","254","173233","0.0-197.0-0.0","CAN_117","117","","","","","","546","<button class=""jspsych-btn""><img src=""stimuli/neonyellow.png"" style=""width: 200px;height: 200px;""></button>","0","neonyellow","pink","[""neonyellow"",""pink"",""low nameability""]","left-right","[""neonyellow"",""pink"",""low nameability""]","6","low nameability","54","left","response","1"
"html-audio-button-response","255","173440","0.0-197.0-1.0","CAN_117","117","","","","","","null","stimuli/bleep.m4a","null","neonyellow","pink","[""neonyellow"",""pink"",""low nameability""]","left-right","[""neonyellow"",""pink"",""low nameability""]","6","low nameability","54","left","audio_feedback","1"
"html-button-response","256","173962","0.0-198.0","CAN_117","117","","","","","","null","<button class=""jspsych-btn""><img src=""stimuli/white_square.png"" style=""width: 200px;height: 200px;""></button>","null","neonyellow","pink","[""neonyellow"",""pink"",""low nameability""]","left-right","[""neonyellow"",""pink"",""low nameability""]","6","low nameability","54","left","iti",""
"html-button-response","257","174501","0.0-199.0","CAN_117","117","","","","","","520","","0","pink","lightred","[""pink"",""lightred"",""low nameability""]","right-left","[""lightred"",""pink""]","6","low nameability","55","right","trigger",""
"html-button-response","258","175037","0.0-200.0-0.0","CAN_117","117","","","","","","528","<button class=""jspsych-btn""><img src=""stimuli/pink.png"" style=""width: 200px;height: 200px;""></button>","1","pink","lightred","[""pink"",""lightred"",""low nameability""]","right-left","[""lightred"",""pink""]","6","low nameability","55","right","response","1"
"html-audio-button-response","259","175242","0.0-200.0-1.0","CAN_117","117","","","","","","null","stimuli/bleep.m4a","null","pink","lightred","[""pink"",""lightred"",""low nameability""]","right-left","[""lightred"",""pink""]","6","low nameability","55","right","audio_feedback","1"
"html-button-response","260","175767","0.0-201.0","CAN_117","117","","","","","","null","<button class=""jspsych-btn""><img src=""stimuli/white_square.png"" style=""width: 200px;height: 200px;""></button>","null","pink","lightred","[""pink"",""lightred"",""low nameability""]","right-left","[""lightred"",""pink""]","6","low nameability","55","right","iti",""
"html-button-response","261","176290","0.0-202.0","CAN_117","117","","","","","","504","","0","blue","purple","[""blue"",""purple"",""high nameability""]","left-right","[""blue"",""purple"",""high nameability""]","6","high nameability","56","left","trigger",""
"html-button-response","262","176926","0.0-203.0-0.0","CAN_117","117","","","","","","626","<button class=""jspsych-btn""><img src=""stimuli/blue.png"" style=""width: 200px;height: 200px;""></button>","0","blue","purple","[""blue"",""purple"",""high nameability""]","left-right","[""blue"",""purple"",""high nameability""]","6","high nameability","56","left","response","1"
"html-audio-button-response","263","177131","0.0-203.0-1.0","CAN_117","117","","","","","","null","stimuli/bleep.m4a","null","blue","purple","[""blue"",""purple"",""high nameability""]","left-right","[""blue"",""purple"",""high nameability""]","6","high nameability","56","left","audio_feedback","1"
"html-button-response","264","177649","0.0-204.0","CAN_117","117","","","","","","null","<button class=""jspsych-btn""><img src=""stimuli/white_square.png"" style=""width: 200px;height: 200px;""></button>","null","blue","purple","[""blue"",""purple"",""high nameability""]","left-right","[""blue"",""purple"",""high nameability""]","6","high nameability","56","left","iti",""
"html-button-response","265","178128","0.0-205.0","CAN_117","117","","","","","","458","","0","purple","orange","[""purple"",""orange"",""high nameability""]","left-right","[""purple"",""orange"",""high nameability""]","6","high nameability","57","left","trigger",""
"html-button-response","266","178671","0.0-206.0-0.0","CAN_117","117","","","","","","534","<button class=""jspsych-btn""><img src=""stimuli/purple.png"" style=""width: 200px;height: 200px;""></button>","0","purple","orange","[""purple"",""orange"",""high nameability""]","left-right","[""purple"",""orange"",""high nameability""]","6","high nameability","57","left","response","1"
"html-audio-button-response","267","178872","0.0-206.0-1.0","CAN_117","117","","","","","","null","stimuli/bleep.m4a","null","purple","orange","[""purple"",""orange"",""high nameability""]","left-right","[""purple"",""orange"",""high nameability""]","6","high nameability","57","left","audio_feedback","1"
"html-button-response","268","179388","0.0-207.0","CAN_117","117","","","","","","null","<button class=""jspsych-btn""><img src=""stimuli/white_square.png"" style=""width: 200px;height: 200px;""></button>","null","purple","orange","[""purple"",""orange"",""high nameability""]","left-right","[""purple"",""orange"",""high nameability""]","6","high nameability","57","left","iti",""
"html-button-response","269","179839","0.0-208.0","CAN_117","117","","","","","","433","","0","purple","red","[""purple"",""red"",""high nameability""]","left-right","[""purple"",""red"",""high nameability""]","6","high nameability","58","left","trigger",""
"html-button-response","270","180396","0.0-209.0-0.0","CAN_117","117","","","","","","550","<button class=""jspsych-btn""><img src=""stimuli/purple.png"" style=""width: 200px;height: 200px;""></button>","0","purple","red","[""purple"",""red"",""high nameability""]","left-right","[""purple"",""red"",""high nameability""]","6","high nameability","58","left","response","1"
"html-audio-button-response","271","180602","0.0-209.0-1.0","CAN_117","117","","","","","","null","stimuli/bleep.m4a","null","purple","red","[""purple"",""red"",""high nameability""]","left-right","[""purple"",""red"",""high nameability""]","6","high nameability","58","left","audio_feedback","1"
"html-button-response","272","181120","0.0-210.0","CAN_117","117","","","","","","null","<button class=""jspsych-btn""><img src=""stimuli/white_square.png"" style=""width: 200px;height: 200px;""></button>","null","purple","red","[""purple"",""red"",""high nameability""]","left-right","[""purple"",""red"",""high nameability""]","6","high nameability","58","left","iti",""
"html-button-response","273","181570","0.0-211.0","CAN_117","117","","","","","","431","","0","red","blue","[""red"",""blue"",""high nameability""]","left-right","[""red"",""blue"",""high nameability""]","6","high nameability","59","left","trigger",""
"html-button-response","274","182125","0.0-212.0-0.0","CAN_117","117","","","","","","545","<button class=""jspsych-btn""><img src=""stimuli/red.png"" style=""width: 200px;height: 200px;""></button>","0","red","blue","[""red"",""blue"",""high nameability""]","left-right","[""red"",""blue"",""high nameability""]","6","high nameability","59","left","response","1"
"html-audio-button-response","275","182330","0.0-212.0-1.0","CAN_117","117","","","","","","null","stimuli/bleep.m4a","null","red","blue","[""red"",""blue"",""high nameability""]","left-right","[""red"",""blue"",""high nameability""]","6","high nameability","59","left","audio_feedback","1"
"html-button-response","276","182849","0.0-213.0","CAN_117","117","","","","","","null","<button class=""jspsych-btn""><img src=""stimuli/white_square.png"" style=""width: 200px;height: 200px;""></button>","null","red","blue","[""red"",""blue"",""high nameability""]","left-right","[""red"",""blue"",""high nameability""]","6","high nameability","59","left","iti",""
"html-button-response","277","183316","0.0-214.0","CAN_117","117","","","","","","447","","0","turquoise","darkgreenblue","[""turquoise"",""darkgreenblue"",""low nameability""]","left-right","[""turquoise"",""darkgreenblue"",""low nameability""]","6","low nameability","60","left","trigger",""
"html-button-response","278","183859","0.0-215.0-0.0","CAN_117","117","","","","","","534","<button class=""jspsych-btn""><img src=""stimuli/turquoise.png"" style=""width: 200px;height: 200px;""></button>","0","turquoise","darkgreenblue","[""turquoise"",""darkgreenblue"",""low nameability""]","left-right","[""turquoise"",""darkgreenblue"",""low nameability""]","6","low nameability","60","left","response","1"
"html-audio-button-response","279","184063","0.0-215.0-1.0","CAN_117","117","","","","","","null","stimuli/bleep.m4a","null","turquoise","darkgreenblue","[""turquoise"",""darkgreenblue"",""low nameability""]","left-right","[""turquoise"",""darkgreenblue"",""low nameability""]","6","low nameability","60","left","audio_feedback","1"
"html-button-response","280","184585","0.0-216.0","CAN_117","117","","","","","","null","<button class=""jspsych-btn""><img src=""stimuli/white_square.png"" style=""width: 200px;height: 200px;""></button>","null","turquoise","darkgreenblue","[""turquoise"",""darkgreenblue"",""low nameability""]","left-right","[""turquoise"",""darkgreenblue"",""low nameability""]","6","low nameability","60","left","iti",""
