"trial_type","trial_index","time_elapsed","internal_node_id","subject_id","seed","success","timeout","failed_images","failed_audio","failed_video","rt","stimulus","response","target","foil","choices","combination_order","choices_in_order","round","condition","trial_counter","target_location","trial_kind","correct"
"pavlovia","0","23","0.0-0.0","CAN_142","142","","","","","","","","","","","","","","","","","","",""
"preload","1","738","0.0-1.0","CAN_142","142","true","false","[]","[]","[]","","","","","","","","","","","","","",""
"fullscreen","2","265872","0.0-2.0","CAN_142","142","true","","","","","","","","","","","","","","","","","",""
"html-button-response","3","315737","0.0-3.0","CAN_142","142","","","","","","49832","","0","","","","","","","","","","",""
"html-button-response","4","318843","0.0-4.0","CAN_142","142","","","","","","3074","","0","star","square","[""square"",""star""]","left-right","[""square"",""star""]","1","practice","1","right","trigger",""
"html-button-response","5","323855","0.0-5.0-0.0","CAN_142","142","","","","","","4993","<button class=""jspsych-btn""><img src=""stimuli/star.png"" style=""width: 200px;height: 200px;""></button>","1","star","square","[""square"",""star""]","left-right","[""square"",""star""]","1","practice","1","right","response","1"
"html-audio-button-response","6","324072","0.0-5.0-1.0","CAN_142","142","","","","","","null","stimuli/bleep.m4a","null","star","square","[""square"",""star""]","left-right","[""square"",""star""]","1","practice","1","right","audio_feedback","1"
"html-button-response","7","324613","0.0-6.0","CAN_142","142","","","","","","null","<button class=""jspsych-btn""><img src=""stimuli/white_square.png"" style=""width: 200px;height: 200px;""></button>","null","star","square","[""square"",""star""]","left-right","[""square"",""star""]","1","practice","1","right","iti",""
"html-button-response","8","329505","0.0-7.0","CAN_142","142","","","","","","4872","","0","triangle","pentagram","[""triangle"",""pentagram""]","left-right","[""triangle"",""pentagram""]","1","practice","1","left","trigger",""
"html-button-response","9","331253","0.0-8.0-0.0","CAN_142","142","","","","","","1735","<button class=""jspsych-btn""><img src=""stimuli/triangle.png"" style=""width: 200px;height: 200px;""></button>","0","triangle","pentagram","[""triangle"",""pentagram""]","left-right","[""triangle"",""pentagram""]","1","practice","1","left","response","1"
"html-audio-button-response","10","331459","0.0-8.0-1.0","CAN_142","142","","","","","","null","stimuli/bleep.m4a","null","triangle","pentagram","[""triangle"",""pentagram""]","left-right","[""triangle"",""pentagram""]","1","practice","1","left","audio_feedback","1"
"html-button-response","11","331981","0.0-9.0","CAN_142","142","","","","","","null","<button class=""jspsych-btn""><img src=""stimuli/white_square.png"" style=""width: 200px;height: 200px;""></button>","null","triangle","pentagram","[""triangle"",""pentagram""]","left-right","[""triangle"",""pentagram""]","1","practice","1","left","iti",""
"html-button-response","12","332807","0.0-10.0","CAN_142","142","","","","","","807","","0","diamond","rectangle","[""rectangle"",""diamond""]","left-right","[""rectangle"",""diamond""]","1","practice","1","right","trigger",""
"html-button-response","13","333905","0.0-11.0-0.0","CAN_142","142","","","","","","1086","<button class=""jspsych-btn""><img src=""stimuli/diamond.png"" style=""width: 200px;height: 200px;""></button>","1","diamond","rectangle","[""rectangle"",""diamond""]","left-right","[""rectangle"",""diamond""]","1","practice","1","right","response","1"
"html-audio-button-response","14","334111","0.0-11.0-1.0","CAN_142","142","","","","","","null","stimuli/bleep.m4a","null","diamond","rectangle","[""rectangle"",""diamond""]","left-right","[""rectangle"",""diamond""]","1","practice","1","right","audio_feedback","1"
"html-button-response","15","334635","0.0-12.0","CAN_142","142","","","","","","null","<button class=""jspsych-btn""><img src=""stimuli/white_square.png"" style=""width: 200px;height: 200px;""></button>","null","diamond","rectangle","[""rectangle"",""diamond""]","left-right","[""rectangle"",""diamond""]","1","practice","1","right","iti",""
"html-button-response","16","335502","0.0-13.0","CAN_142","142","","","","","","847","","0","pentagram","star","[""pentagram"",""star""]","left-right","[""pentagram"",""star""]","1","practice","1","left","trigger",""
"html-button-response","17","336504","0.0-14.0-0.0","CAN_142","142","","","","","","991","<button class=""jspsych-btn""><img src=""stimuli/pentagram.png"" style=""width: 200px;height: 200px;""></button>","0","pentagram","star","[""pentagram"",""star""]","left-right","[""pentagram"",""star""]","1","practice","1","left","response","1"
"html-audio-button-response","18","336706","0.0-14.0-1.0","CAN_142","142","","","","","","null","stimuli/bleep.m4a","null","pentagram","star","[""pentagram"",""star""]","left-right","[""pentagram"",""star""]","1","practice","1","left","audio_feedback","1"
"html-button-response","19","337230","0.0-15.0","CAN_142","142","","","","","","null","<button class=""jspsych-btn""><img src=""stimuli/white_square.png"" style=""width: 200px;height: 200px;""></button>","null","pentagram","star","[""pentagram"",""star""]","left-right","[""pentagram"",""star""]","1","practice","1","left","iti",""
"html-button-response","20","346815","0.0-16.0","CAN_142","142","","","","","","9569","","0","","","","","","","","","","",""
"html-button-response","21","347679","0.0-17.0","CAN_142","142","","","","","","854","","0","neonyellow","pink","[""neonyellow"",""pink"",""low nameability""]","left-right","[""neonyellow"",""pink"",""low nameability""]","1","low nameability","1","left","trigger",""
"html-button-response","22","348602","0.0-18.0-0.0","CAN_142","142","","","","","","911","<button class=""jspsych-btn""><img src=""stimuli/neonyellow.png"" style=""width: 200px;height: 200px;""></button>","0","neonyellow","pink","[""neonyellow"",""pink"",""low nameability""]","left-right","[""neonyellow"",""pink"",""low nameability""]","1","low nameability","1","left","response","1"
"html-audio-button-response","23","348811","0.0-18.0-1.0","CAN_142","142","","","","","","null","stimuli/bleep.m4a","null","neonyellow","pink","[""neonyellow"",""pink"",""low nameability""]","left-right","[""neonyellow"",""pink"",""low nameability""]","1","low nameability","1","left","audio_feedback","1"
"html-button-response","24","349333","0.0-19.0","CAN_142","142","","","","","","null","<button class=""jspsych-btn""><img src=""stimuli/white_square.png"" style=""width: 200px;height: 200px;""></button>","null","neonyellow","pink","[""neonyellow"",""pink"",""low nameability""]","left-right","[""neonyellow"",""pink"",""low nameability""]","1","low nameability","1","left","iti",""
"html-button-response","25","349898","0.0-20.0","CAN_142","142","","","","","","550","","0","orange","red","[""orange"",""red"",""high nameability""]","left-right","[""orange"",""red"",""high nameability""]","1","high nameability","2","left","trigger",""
"html-button-response","26","351784","0.0-21.0-0.0","CAN_142","142","","","","","","1876","<button class=""jspsych-btn""><img src=""stimuli/orange.png"" style=""width: 200px;height: 200px;""></button>","0","orange","red","[""orange"",""red"",""high nameability""]","left-right","[""orange"",""red"",""high nameability""]","1","high nameability","2","left","response","1"
"html-audio-button-response","27","352000","0.0-21.0-1.0","CAN_142","142","","","","","","null","stimuli/bleep.m4a","null","orange","red","[""orange"",""red"",""high nameability""]","left-right","[""orange"",""red"",""high nameability""]","1","high nameability","2","left","audio_feedback","1"
"html-button-response","28","352530","0.0-22.0","CAN_142","142","","","","","","null","<button class=""jspsych-btn""><img src=""stimuli/white_square.png"" style=""width: 200px;height: 200px;""></button>","null","orange","red","[""orange"",""red"",""high nameability""]","left-right","[""orange"",""red"",""high nameability""]","1","high nameability","2","left","iti",""
"html-button-response","29","353239","0.0-23.0","CAN_142","142","","","","","","688","","0","pink","lightred","[""pink"",""lightred"",""low nameability""]","left-right","[""pink"",""lightred"",""low nameability""]","1","low nameability","3","left","trigger",""
"html-button-response","30","354312","0.0-24.0-0.0","CAN_142","142","","","","","","1064","<button class=""jspsych-btn""><img src=""stimuli/pink.png"" style=""width: 200px;height: 200px;""></button>","0","pink","lightred","[""pink"",""lightred"",""low nameability""]","left-right","[""pink"",""lightred"",""low nameability""]","1","low nameability","3","left","response","1"
"html-audio-button-response","31","354523","0.0-24.0-1.0","CAN_142","142","","","","","","null","stimuli/bleep.m4a","null","pink","lightred","[""pink"",""lightred"",""low nameability""]","left-right","[""pink"",""lightred"",""low nameability""]","1","low nameability","3","left","audio_feedback","1"
"html-button-response","32","355047","0.0-25.0","CAN_142","142","","","","","","null","<button class=""jspsych-btn""><img src=""stimuli/white_square.png"" style=""width: 200px;height: 200px;""></button>","null","pink","lightred","[""pink"",""lightred"",""low nameability""]","left-right","[""pink"",""lightred"",""low nameability""]","1","low nameability","3","left","iti",""
"html-button-response","33","355836","0.0-26.0","CAN_142","142","","","","","","757","","0","orange","yellow","[""orange"",""yellow"",""high nameability""]","right-left","[""yellow"",""orange""]","1","high nameability","4","right","trigger",""
"html-button-response","34","356912","0.0-27.0-0.0","CAN_142","142","","","","","","1063","<button class=""jspsych-btn""><img src=""stimuli/orange.png"" style=""width: 200px;height: 200px;""></button>","1","orange","yellow","[""orange"",""yellow"",""high nameability""]","right-left","[""yellow"",""orange""]","1","high nameability","4","right","response","1"
"html-audio-button-response","35","357124","0.0-27.0-1.0","CAN_142","142","","","","","","null","stimuli/bleep.m4a","null","orange","yellow","[""orange"",""yellow"",""high nameability""]","right-left","[""yellow"",""orange""]","1","high nameability","4","right","audio_feedback","1"
"html-button-response","36","357645","0.0-28.0","CAN_142","142","","","","","","null","<button class=""jspsych-btn""><img src=""stimuli/white_square.png"" style=""width: 200px;height: 200px;""></button>","null","orange","yellow","[""orange"",""yellow"",""high nameability""]","right-left","[""yellow"",""orange""]","1","high nameability","4","right","iti",""
"html-button-response","37","358443","0.0-29.0","CAN_142","142","","","","","","776","","0","yellow","orange","[""yellow"",""orange"",""high nameability""]","left-right","[""yellow"",""orange"",""high nameability""]","1","high nameability","5","left","trigger",""
"html-button-response","38","359390","0.0-30.0-0.0","CAN_142","142","","","","","","938","<button class=""jspsych-btn""><img src=""stimuli/yellow.png"" style=""width: 200px;height: 200px;""></button>","0","yellow","orange","[""yellow"",""orange"",""high nameability""]","left-right","[""yellow"",""orange"",""high nameability""]","1","high nameability","5","left","response","1"
"html-audio-button-response","39","359599","0.0-30.0-1.0","CAN_142","142","","","","","","null","stimuli/bleep.m4a","null","yellow","orange","[""yellow"",""orange"",""high nameability""]","left-right","[""yellow"",""orange"",""high nameability""]","1","high nameability","5","left","audio_feedback","1"
"html-button-response","40","360122","0.0-31.0","CAN_142","142","","","","","","null","<button class=""jspsych-btn""><img src=""stimuli/white_square.png"" style=""width: 200px;height: 200px;""></button>","null","yellow","orange","[""yellow"",""orange"",""high nameability""]","left-right","[""yellow"",""orange"",""high nameability""]","1","high nameability","5","left","iti",""
"html-button-response","41","360841","0.0-32.0","CAN_142","142","","","","","","702","","0","turquoise","neonyellow","[""turquoise"",""neonyellow"",""low nameability""]","left-right","[""turquoise"",""neonyellow"",""low nameability""]","1","low nameability","6","left","trigger",""
"html-button-response","42","361869","0.0-33.0-0.0","CAN_142","142","","","","","","1013","<button class=""jspsych-btn""><img src=""stimuli/turquoise.png"" style=""width: 200px;height: 200px;""></button>","0","turquoise","neonyellow","[""turquoise"",""neonyellow"",""low nameability""]","left-right","[""turquoise"",""neonyellow"",""low nameability""]","1","low nameability","6","left","response","1"
"html-audio-button-response","43","362075","0.0-33.0-1.0","CAN_142","142","","","","","","null","stimuli/bleep.m4a","null","turquoise","neonyellow","[""turquoise"",""neonyellow"",""low nameability""]","left-right","[""turquoise"",""neonyellow"",""low nameability""]","1","low nameability","6","left","audio_feedback","1"
"html-button-response","44","362597","0.0-34.0","CAN_142","142","","","","","","null","<button class=""jspsych-btn""><img src=""stimuli/white_square.png"" style=""width: 200px;height: 200px;""></button>","null","turquoise","neonyellow","[""turquoise"",""neonyellow"",""low nameability""]","left-right","[""turquoise"",""neonyellow"",""low nameability""]","1","low nameability","6","left","iti",""
"html-button-response","45","363306","0.0-35.0","CAN_142","142","","","","","","690","","0","blue","red","[""blue"",""red"",""high nameability""]","right-left","[""red"",""blue""]","1","high nameability","7","right","trigger",""
"html-button-response","46","364207","0.0-36.0-0.0","CAN_142","142","","","","","","886","<button class=""jspsych-btn""><img src=""stimuli/blue.png"" style=""width: 200px;height: 200px;""></button>","1","blue","red","[""blue"",""red"",""high nameability""]","right-left","[""red"",""blue""]","1","high nameability","7","right","response","1"
"html-audio-button-response","47","364422","0.0-36.0-1.0","CAN_142","142","","","","","","null","stimuli/bleep.m4a","null","blue","red","[""blue"",""red"",""high nameability""]","right-left","[""red"",""blue""]","1","high nameability","7","right","audio_feedback","1"
"html-button-response","48","364941","0.0-37.0","CAN_142","142","","","","","","null","<button class=""jspsych-btn""><img src=""stimuli/white_square.png"" style=""width: 200px;height: 200px;""></button>","null","blue","red","[""blue"",""red"",""high nameability""]","right-left","[""red"",""blue""]","1","high nameability","7","right","iti",""
"html-button-response","49","365649","0.0-38.0","CAN_142","142","","","","","","692","","0","turquoise","pink","[""turquoise"",""pink"",""low nameability""]","right-left","[""pink"",""turquoise""]","1","low nameability","8","right","trigger",""
"html-button-response","50","367324","0.0-39.0-0.0","CAN_142","142","","","","","","1665","<button class=""jspsych-btn""><img src=""stimuli/turquoise.png"" style=""width: 200px;height: 200px;""></button>","1","turquoise","pink","[""turquoise"",""pink"",""low nameability""]","right-left","[""pink"",""turquoise""]","1","low nameability","8","right","response","1"
"html-audio-button-response","51","367535","0.0-39.0-1.0","CAN_142","142","","","","","","null","stimuli/bleep.m4a","null","turquoise","pink","[""turquoise"",""pink"",""low nameability""]","right-left","[""pink"",""turquoise""]","1","low nameability","8","right","audio_feedback","1"
"html-button-response","52","368056","0.0-40.0","CAN_142","142","","","","","","null","<button class=""jspsych-btn""><img src=""stimuli/white_square.png"" style=""width: 200px;height: 200px;""></button>","null","turquoise","pink","[""turquoise"",""pink"",""low nameability""]","right-left","[""pink"",""turquoise""]","1","low nameability","8","right","iti",""
"html-button-response","53","368727","0.0-41.0","CAN_142","142","","","","","","649","","0","darkgreenblue","lightred","[""darkgreenblue"",""lightred"",""low nameability""]","right-left","[""lightred"",""darkgreenblue""]","1","low nameability","9","right","trigger",""
"html-button-response","54","369714","0.0-42.0-0.0","CAN_142","142","","","","","","978","<button class=""jspsych-btn""><img src=""stimuli/darkgreenblue.png"" style=""width: 200px;height: 200px;""></button>","1","darkgreenblue","lightred","[""darkgreenblue"",""lightred"",""low nameability""]","right-left","[""lightred"",""darkgreenblue""]","1","low nameability","9","right","response","1"
"html-audio-button-response","55","369922","0.0-42.0-1.0","CAN_142","142","","","","","","null","stimuli/bleep.m4a","null","darkgreenblue","lightred","[""darkgreenblue"",""lightred"",""low nameability""]","right-left","[""lightred"",""darkgreenblue""]","1","low nameability","9","right","audio_feedback","1"
"html-button-response","56","370442","0.0-43.0","CAN_142","142","","","","","","null","<button class=""jspsych-btn""><img src=""stimuli/white_square.png"" style=""width: 200px;height: 200px;""></button>","null","darkgreenblue","lightred","[""darkgreenblue"",""lightred"",""low nameability""]","right-left","[""lightred"",""darkgreenblue""]","1","low nameability","9","right","iti",""
"html-button-response","57","371390","0.0-44.0","CAN_142","142","","","","","","933","","0","blue","yellow","[""blue"",""yellow"",""high nameability""]","right-left","[""yellow"",""blue""]","1","high nameability","10","right","trigger",""
"html-button-response","58","372335","0.0-45.0-0.0","CAN_142","142","","","","","","935","<button class=""jspsych-btn""><img src=""stimuli/blue.png"" style=""width: 200px;height: 200px;""></button>","1","blue","yellow","[""blue"",""yellow"",""high nameability""]","right-left","[""yellow"",""blue""]","1","high nameability","10","right","response","1"
"html-audio-button-response","59","372551","0.0-45.0-1.0","CAN_142","142","","","","","","null","stimuli/bleep.m4a","null","blue","yellow","[""blue"",""yellow"",""high nameability""]","right-left","[""yellow"",""blue""]","1","high nameability","10","right","audio_feedback","1"
"html-button-response","60","373070","0.0-46.0","CAN_142","142","","","","","","null","<button class=""jspsych-btn""><img src=""stimuli/white_square.png"" style=""width: 200px;height: 200px;""></button>","null","blue","yellow","[""blue"",""yellow"",""high nameability""]","right-left","[""yellow"",""blue""]","1","high nameability","10","right","iti",""
"pavlovia","61","373163","0.0-47.0","CAN_142","142","","","","","","","","","","","","","","","","","","",""
"pavlovia","62","373182","0.0-48.0","CAN_142","142","","","","","","","","","","","","","","","","","","",""
"html-audio-button-response","63","375512","0.0-49.0","CAN_142","142","","","","","","2445","stimuli/tada.m4a","0","","","","","","","","","","",""
"html-button-response","64","376999","0.0-50.0","CAN_142","142","","","","","","1479","","0","","","","","","","","","","",""
"html-button-response","65","378182","0.0-51.0","CAN_142","142","","","","","","1170","","0","lightred","mustard","[""lightred"",""mustard"",""low nameability""]","left-right","[""lightred"",""mustard"",""low nameability""]","2","low nameability","11","left","trigger",""
"html-button-response","66","379232","0.0-52.0-0.0","CAN_142","142","","","","","","1042","<button class=""jspsych-btn""><img src=""stimuli/lightred.png"" style=""width: 200px;height: 200px;""></button>","0","lightred","mustard","[""lightred"",""mustard"",""low nameability""]","left-right","[""lightred"",""mustard"",""low nameability""]","2","low nameability","11","left","response","1"
"html-audio-button-response","67","379439","0.0-52.0-1.0","CAN_142","142","","","","","","null","stimuli/bleep.m4a","null","lightred","mustard","[""lightred"",""mustard"",""low nameability""]","left-right","[""lightred"",""mustard"",""low nameability""]","2","low nameability","11","left","audio_feedback","1"
"html-button-response","68","379964","0.0-53.0","CAN_142","142","","","","","","null","<button class=""jspsych-btn""><img src=""stimuli/white_square.png"" style=""width: 200px;height: 200px;""></button>","null","lightred","mustard","[""lightred"",""mustard"",""low nameability""]","left-right","[""lightred"",""mustard"",""low nameability""]","2","low nameability","11","left","iti",""
"html-button-response","69","380586","0.0-54.0","CAN_142","142","","","","","","604","","0","brown","red","[""brown"",""red"",""high nameability""]","right-left","[""red"",""brown""]","2","high nameability","12","right","trigger",""
"html-button-response","70","381535","0.0-55.0-0.0","CAN_142","142","","","","","","938","<button class=""jspsych-btn""><img src=""stimuli/brown.png"" style=""width: 200px;height: 200px;""></button>","1","brown","red","[""brown"",""red"",""high nameability""]","right-left","[""red"",""brown""]","2","high nameability","12","right","response","1"
"html-audio-button-response","71","381738","0.0-55.0-1.0","CAN_142","142","","","","","","null","stimuli/bleep.m4a","null","brown","red","[""brown"",""red"",""high nameability""]","right-left","[""red"",""brown""]","2","high nameability","12","right","audio_feedback","1"
"html-button-response","72","382262","0.0-56.0","CAN_142","142","","","","","","null","<button class=""jspsych-btn""><img src=""stimuli/white_square.png"" style=""width: 200px;height: 200px;""></button>","null","brown","red","[""brown"",""red"",""high nameability""]","right-left","[""red"",""brown""]","2","high nameability","12","right","iti",""
"html-button-response","73","382942","0.0-57.0","CAN_142","142","","","","","","660","","0","neonyellow","lightred","[""neonyellow"",""lightred"",""low nameability""]","left-right","[""neonyellow"",""lightred"",""low nameability""]","2","low nameability","13","left","trigger",""
"html-button-response","74","383883","0.0-58.0-0.0","CAN_142","142","","","","","","936","<button class=""jspsych-btn""><img src=""stimuli/neonyellow.png"" style=""width: 200px;height: 200px;""></button>","0","neonyellow","lightred","[""neonyellow"",""lightred"",""low nameability""]","left-right","[""neonyellow"",""lightred"",""low nameability""]","2","low nameability","13","left","response","1"
"html-audio-button-response","75","384086","0.0-58.0-1.0","CAN_142","142","","","","","","null","stimuli/bleep.m4a","null","neonyellow","lightred","[""neonyellow"",""lightred"",""low nameability""]","left-right","[""neonyellow"",""lightred"",""low nameability""]","2","low nameability","13","left","audio_feedback","1"
"html-button-response","76","384605","0.0-59.0","CAN_142","142","","","","","","null","<button class=""jspsych-btn""><img src=""stimuli/white_square.png"" style=""width: 200px;height: 200px;""></button>","null","neonyellow","lightred","[""neonyellow"",""lightred"",""low nameability""]","left-right","[""neonyellow"",""lightred"",""low nameability""]","2","low nameability","13","left","iti",""
"html-button-response","77","385292","0.0-60.0","CAN_142","142","","","","","","667","","0","brown","yellow","[""brown"",""yellow"",""high nameability""]","left-right","[""brown"",""yellow"",""high nameability""]","2","high nameability","14","left","trigger",""
"html-button-response","78","386295","0.0-61.0-0.0","CAN_142","142","","","","","","996","<button class=""jspsych-btn""><img src=""stimuli/brown.png"" style=""width: 200px;height: 200px;""></button>","0","brown","yellow","[""brown"",""yellow"",""high nameability""]","left-right","[""brown"",""yellow"",""high nameability""]","2","high nameability","14","left","response","1"
"html-audio-button-response","79","386499","0.0-61.0-1.0","CAN_142","142","","","","","","null","stimuli/bleep.m4a","null","brown","yellow","[""brown"",""yellow"",""high nameability""]","left-right","[""brown"",""yellow"",""high nameability""]","2","high nameability","14","left","audio_feedback","1"
"html-button-response","80","387022","0.0-62.0","CAN_142","142","","","","","","null","<button class=""jspsych-btn""><img src=""stimuli/white_square.png"" style=""width: 200px;height: 200px;""></button>","null","brown","yellow","[""brown"",""yellow"",""high nameability""]","left-right","[""brown"",""yellow"",""high nameability""]","2","high nameability","14","left","iti",""
"html-button-response","81","387720","0.0-63.0","CAN_142","142","","","","","","679","","0","purple","yellow","[""purple"",""yellow"",""high nameability""]","left-right","[""purple"",""yellow"",""high nameability""]","2","high nameability","15","left","trigger",""
"html-button-response","82","388619","0.0-64.0-0.0","CAN_142","142","","","","","","889","<button class=""jspsych-btn""><img src=""stimuli/purple.png"" style=""width: 200px;height: 200px;""></button>","0","purple","yellow","[""purple"",""yellow"",""high nameability""]","left-right","[""purple"",""yellow"",""high nameability""]","2","high nameability","15","left","response","1"
"html-audio-button-response","83","388823","0.0-64.0-1.0","CAN_142","142","","","","","","null","stimuli/bleep.m4a","null","purple","yellow","[""purple"",""yellow"",""high nameability""]","left-right","[""purple"",""yellow"",""high nameability""]","2","high nameability","15","left","audio_feedback","1"
"html-button-response","84","389345","0.0-65.0","CAN_142","142","","","","","","null","<button class=""jspsych-btn""><img src=""stimuli/white_square.png"" style=""width: 200px;height: 200px;""></button>","null","purple","yellow","[""purple"",""yellow"",""high nameability""]","left-right","[""purple"",""yellow"",""high nameability""]","2","high nameability","15","left","iti",""
"html-button-response","85","389960","0.0-66.0","CAN_142","142","","","","","","596","","0","darkgreenblue","neonyellow","[""darkgreenblue"",""neonyellow"",""low nameability""]","right-left","[""neonyellow"",""darkgreenblue""]","2","low nameability","16","right","trigger",""
"html-button-response","86","390849","0.0-67.0-0.0","CAN_142","142","","","","","","881","<button class=""jspsych-btn""><img src=""stimuli/darkgreenblue.png"" style=""width: 200px;height: 200px;""></button>","1","darkgreenblue","neonyellow","[""darkgreenblue"",""neonyellow"",""low nameability""]","right-left","[""neonyellow"",""darkgreenblue""]","2","low nameability","16","right","response","1"
"html-audio-button-response","87","391056","0.0-67.0-1.0","CAN_142","142","","","","","","null","stimuli/bleep.m4a","null","darkgreenblue","neonyellow","[""darkgreenblue"",""neonyellow"",""low nameability""]","right-left","[""neonyellow"",""darkgreenblue""]","2","low nameability","16","right","audio_feedback","1"
"html-button-response","88","391576","0.0-68.0","CAN_142","142","","","","","","null","<button class=""jspsych-btn""><img src=""stimuli/white_square.png"" style=""width: 200px;height: 200px;""></button>","null","darkgreenblue","neonyellow","[""darkgreenblue"",""neonyellow"",""low nameability""]","right-left","[""neonyellow"",""darkgreenblue""]","2","low nameability","16","right","iti",""
"html-button-response","89","392342","0.0-69.0","CAN_142","142","","","","","","747","","0","yellow","red","[""yellow"",""red"",""high nameability""]","right-left","[""red"",""yellow""]","2","high nameability","17","right","trigger",""
"html-button-response","90","393159","0.0-70.0-0.0","CAN_142","142","","","","","","808","<button class=""jspsych-btn""><img src=""stimuli/yellow.png"" style=""width: 200px;height: 200px;""></button>","1","yellow","red","[""yellow"",""red"",""high nameability""]","right-left","[""red"",""yellow""]","2","high nameability","17","right","response","1"
"html-audio-button-response","91","393369","0.0-70.0-1.0","CAN_142","142","","","","","","null","stimuli/bleep.m4a","null","yellow","red","[""yellow"",""red"",""high nameability""]","right-left","[""red"",""yellow""]","2","high nameability","17","right","audio_feedback","1"
"html-button-response","92","393891","0.0-71.0","CAN_142","142","","","","","","null","<button class=""jspsych-btn""><img src=""stimuli/white_square.png"" style=""width: 200px;height: 200px;""></button>","null","yellow","red","[""yellow"",""red"",""high nameability""]","right-left","[""red"",""yellow""]","2","high nameability","17","right","iti",""
"html-button-response","93","394536","0.0-72.0","CAN_142","142","","","","","","628","","0","lightred","neonyellow","[""lightred"",""neonyellow"",""low nameability""]","right-left","[""neonyellow"",""lightred""]","2","low nameability","18","right","trigger",""
"html-button-response","94","395364","0.0-73.0-0.0","CAN_142","142","","","","","","820","<button class=""jspsych-btn""><img src=""stimuli/lightred.png"" style=""width: 200px;height: 200px;""></button>","1","lightred","neonyellow","[""lightred"",""neonyellow"",""low nameability""]","right-left","[""neonyellow"",""lightred""]","2","low nameability","18","right","response","1"
"html-audio-button-response","95","395567","0.0-73.0-1.0","CAN_142","142","","","","","","null","stimuli/bleep.m4a","null","lightred","neonyellow","[""lightred"",""neonyellow"",""low nameability""]","right-left","[""neonyellow"",""lightred""]","2","low nameability","18","right","audio_feedback","1"
"html-button-response","96","396087","0.0-74.0","CAN_142","142","","","","","","null","<button class=""jspsych-btn""><img src=""stimuli/white_square.png"" style=""width: 200px;height: 200px;""></button>","null","lightred","neonyellow","[""lightred"",""neonyellow"",""low nameability""]","right-left","[""neonyellow"",""lightred""]","2","low nameability","18","right","iti",""
"html-button-response","97","396801","0.0-75.0","CAN_142","142","","","","","","694","","0","pink","turquoise","[""pink"",""turquoise"",""low nameability""]","right-left","[""turquoise"",""pink""]","2","low nameability","19","right","trigger",""
"html-button-response","98","397536","0.0-76.0-0.0","CAN_142","142","","","","","","727","<button class=""jspsych-btn""><img src=""stimuli/pink.png"" style=""width: 200px;height: 200px;""></button>","1","pink","turquoise","[""pink"",""turquoise"",""low nameability""]","right-left","[""turquoise"",""pink""]","2","low nameability","19","right","response","1"
"html-audio-button-response","99","397739","0.0-76.0-1.0","CAN_142","142","","","","","","null","stimuli/bleep.m4a","null","pink","turquoise","[""pink"",""turquoise"",""low nameability""]","right-left","[""turquoise"",""pink""]","2","low nameability","19","right","audio_feedback","1"
"html-button-response","100","398266","0.0-77.0","CAN_142","142","","","","","","null","<button class=""jspsych-btn""><img src=""stimuli/white_square.png"" style=""width: 200px;height: 200px;""></button>","null","pink","turquoise","[""pink"",""turquoise"",""low nameability""]","right-left","[""turquoise"",""pink""]","2","low nameability","19","right","iti",""
"html-button-response","101","399031","0.0-78.0","CAN_142","142","","","","","","750","","0","mustard","neonyellow","[""mustard"",""neonyellow"",""low nameability""]","right-left","[""neonyellow"",""mustard""]","2","low nameability","20","right","trigger",""
"html-button-response","102","399839","0.0-79.0-0.0","CAN_142","142","","","","","","799","<button class=""jspsych-btn""><img src=""stimuli/mustard.png"" style=""width: 200px;height: 200px;""></button>","1","mustard","neonyellow","[""mustard"",""neonyellow"",""low nameability""]","right-left","[""neonyellow"",""mustard""]","2","low nameability","20","right","response","1"
"html-audio-button-response","103","400051","0.0-79.0-1.0","CAN_142","142","","","","","","null","stimuli/bleep.m4a","null","mustard","neonyellow","[""mustard"",""neonyellow"",""low nameability""]","right-left","[""neonyellow"",""mustard""]","2","low nameability","20","right","audio_feedback","1"
"html-button-response","104","400573","0.0-80.0","CAN_142","142","","","","","","null","<button class=""jspsych-btn""><img src=""stimuli/white_square.png"" style=""width: 200px;height: 200px;""></button>","null","mustard","neonyellow","[""mustard"",""neonyellow"",""low nameability""]","right-left","[""neonyellow"",""mustard""]","2","low nameability","20","right","iti",""
"pavlovia","105","400655","0.0-81.0","CAN_142","142","","","","","","","","","","","","","","","","","","",""
"pavlovia","106","400663","0.0-82.0","CAN_142","142","","","","","","","","","","","","","","","","","","",""
"html-audio-button-response","107","402803","0.0-83.0","CAN_142","142","","","","","","2229","stimuli/tada.m4a","0","","","","","","","","","","",""
"html-button-response","108","404038","0.0-84.0","CAN_142","142","","","","","","1226","","0","","","","","","","","","","",""
"html-button-response","109","405197","0.0-85.0","CAN_142","142","","","","","","1152","","0","orange","brown","[""orange"",""brown"",""high nameability""]","right-left","[""brown"",""orange""]","3","high nameability","21","right","trigger",""
"html-button-response","110","406220","0.0-86.0-0.0","CAN_142","142","","","","","","1011","<button class=""jspsych-btn""><img src=""stimuli/orange.png"" style=""width: 200px;height: 200px;""></button>","1","orange","brown","[""orange"",""brown"",""high nameability""]","right-left","[""brown"",""orange""]","3","high nameability","21","right","response","1"
"html-audio-button-response","111","406431","0.0-86.0-1.0","CAN_142","142","","","","","","null","stimuli/bleep.m4a","null","orange","brown","[""orange"",""brown"",""high nameability""]","right-left","[""brown"",""orange""]","3","high nameability","21","right","audio_feedback","1"
"html-button-response","112","406953","0.0-87.0","CAN_142","142","","","","","","null","<button class=""jspsych-btn""><img src=""stimuli/white_square.png"" style=""width: 200px;height: 200px;""></button>","null","orange","brown","[""orange"",""brown"",""high nameability""]","right-left","[""brown"",""orange""]","3","high nameability","21","right","iti",""
"html-button-response","113","407704","0.0-88.0","CAN_142","142","","","","","","732","","0","mustard","lightred","[""mustard"",""lightred"",""low nameability""]","left-right","[""mustard"",""lightred"",""low nameability""]","3","low nameability","22","left","trigger",""
"html-button-response","114","408610","0.0-89.0-0.0","CAN_142","142","","","","","","895","<button class=""jspsych-btn""><img src=""stimuli/mustard.png"" style=""width: 200px;height: 200px;""></button>","0","mustard","lightred","[""mustard"",""lightred"",""low nameability""]","left-right","[""mustard"",""lightred"",""low nameability""]","3","low nameability","22","left","response","1"
"html-audio-button-response","115","408815","0.0-89.0-1.0","CAN_142","142","","","","","","null","stimuli/bleep.m4a","null","mustard","lightred","[""mustard"",""lightred"",""low nameability""]","left-right","[""mustard"",""lightred"",""low nameability""]","3","low nameability","22","left","audio_feedback","1"
"html-button-response","116","409334","0.0-90.0","CAN_142","142","","","","","","null","<button class=""jspsych-btn""><img src=""stimuli/white_square.png"" style=""width: 200px;height: 200px;""></button>","null","mustard","lightred","[""mustard"",""lightred"",""low nameability""]","left-right","[""mustard"",""lightred"",""low nameability""]","3","low nameability","22","left","iti",""
"html-button-response","117","410030","0.0-91.0","CAN_142","142","","","","","","678","","0","red","blue","[""red"",""blue"",""high nameability""]","left-right","[""red"",""blue"",""high nameability""]","3","high nameability","23","left","trigger",""
"html-button-response","118","410922","0.0-92.0-0.0","CAN_142","142","","","","","","881","<button class=""jspsych-btn""><img src=""stimuli/red.png"" style=""width: 200px;height: 200px;""></button>","0","red","blue","[""red"",""blue"",""high nameability""]","left-right","[""red"",""blue"",""high nameability""]","3","high nameability","23","left","response","1"
"html-audio-button-response","119","411126","0.0-92.0-1.0","CAN_142","142","","","","","","null","stimuli/bleep.m4a","null","red","blue","[""red"",""blue"",""high nameability""]","left-right","[""red"",""blue"",""high nameability""]","3","high nameability","23","left","audio_feedback","1"
"html-button-response","120","411645","0.0-93.0","CAN_142","142","","","","","","null","<button class=""jspsych-btn""><img src=""stimuli/white_square.png"" style=""width: 200px;height: 200px;""></button>","null","red","blue","[""red"",""blue"",""high nameability""]","left-right","[""red"",""blue"",""high nameability""]","3","high nameability","23","left","iti",""
"html-button-response","121","412448","0.0-94.0","CAN_142","142","","","","","","780","","0","purple","blue","[""purple"",""blue"",""high nameability""]","right-left","[""blue"",""purple""]","3","high nameability","24","right","trigger",""
"html-button-response","122","413315","0.0-95.0-0.0","CAN_142","142","","","","","","854","<button class=""jspsych-btn""><img src=""stimuli/purple.png"" style=""width: 200px;height: 200px;""></button>","1","purple","blue","[""purple"",""blue"",""high nameability""]","right-left","[""blue"",""purple""]","3","high nameability","24","right","response","1"
"html-audio-button-response","123","413517","0.0-95.0-1.0","CAN_142","142","","","","","","null","stimuli/bleep.m4a","null","purple","blue","[""purple"",""blue"",""high nameability""]","right-left","[""blue"",""purple""]","3","high nameability","24","right","audio_feedback","1"
"html-button-response","124","414035","0.0-96.0","CAN_142","142","","","","","","null","<button class=""jspsych-btn""><img src=""stimuli/white_square.png"" style=""width: 200px;height: 200px;""></button>","null","purple","blue","[""purple"",""blue"",""high nameability""]","right-left","[""blue"",""purple""]","3","high nameability","24","right","iti",""
"html-button-response","125","414844","0.0-97.0","CAN_142","142","","","","","","793","","0","turquoise","mustard","[""turquoise"",""mustard"",""low nameability""]","left-right","[""turquoise"",""mustard"",""low nameability""]","3","low nameability","25","left","trigger",""
"html-button-response","126","415813","0.0-98.0-0.0","CAN_142","142","","","","","","961","<button class=""jspsych-btn""><img src=""stimuli/turquoise.png"" style=""width: 200px;height: 200px;""></button>","0","turquoise","mustard","[""turquoise"",""mustard"",""low nameability""]","left-right","[""turquoise"",""mustard"",""low nameability""]","3","low nameability","25","left","response","1"
"html-audio-button-response","127","416019","0.0-98.0-1.0","CAN_142","142","","","","","","null","stimuli/bleep.m4a","null","turquoise","mustard","[""turquoise"",""mustard"",""low nameability""]","left-right","[""turquoise"",""mustard"",""low nameability""]","3","low nameability","25","left","audio_feedback","1"
"html-button-response","128","416541","0.0-99.0","CAN_142","142","","","","","","null","<button class=""jspsych-btn""><img src=""stimuli/white_square.png"" style=""width: 200px;height: 200px;""></button>","null","turquoise","mustard","[""turquoise"",""mustard"",""low nameability""]","left-right","[""turquoise"",""mustard"",""low nameability""]","3","low nameability","25","left","iti",""
"html-button-response","129","417306","0.0-100.0","CAN_142","142","","","","","","744","","0","mustard","pink","[""mustard"",""pink"",""low nameability""]","left-right","[""mustard"",""pink"",""low nameability""]","3","low nameability","26","left","trigger",""
"html-button-response","130","418181","0.0-101.0-0.0","CAN_142","142","","","","","","865","<button class=""jspsych-btn""><img src=""stimuli/mustard.png"" style=""width: 200px;height: 200px;""></button>","0","mustard","pink","[""mustard"",""pink"",""low nameability""]","left-right","[""mustard"",""pink"",""low nameability""]","3","low nameability","26","left","response","1"
"html-audio-button-response","131","418387","0.0-101.0-1.0","CAN_142","142","","","","","","null","stimuli/bleep.m4a","null","mustard","pink","[""mustard"",""pink"",""low nameability""]","left-right","[""mustard"",""pink"",""low nameability""]","3","low nameability","26","left","audio_feedback","1"
"html-button-response","132","418905","0.0-102.0","CAN_142","142","","","","","","null","<button class=""jspsych-btn""><img src=""stimuli/white_square.png"" style=""width: 200px;height: 200px;""></button>","null","mustard","pink","[""mustard"",""pink"",""low nameability""]","left-right","[""mustard"",""pink"",""low nameability""]","3","low nameability","26","left","iti",""
"html-button-response","133","419564","0.0-103.0","CAN_142","142","","","","","","642","","0","blue","brown","[""blue"",""brown"",""high nameability""]","left-right","[""blue"",""brown"",""high nameability""]","3","high nameability","27","left","trigger",""
"html-button-response","134","420393","0.0-104.0-0.0","CAN_142","142","","","","","","817","<button class=""jspsych-btn""><img src=""stimuli/blue.png"" style=""width: 200px;height: 200px;""></button>","0","blue","brown","[""blue"",""brown"",""high nameability""]","left-right","[""blue"",""brown"",""high nameability""]","3","high nameability","27","left","response","1"
"html-audio-button-response","135","420594","0.0-104.0-1.0","CAN_142","142","","","","","","null","stimuli/bleep.m4a","null","blue","brown","[""blue"",""brown"",""high nameability""]","left-right","[""blue"",""brown"",""high nameability""]","3","high nameability","27","left","audio_feedback","1"
"html-button-response","136","421113","0.0-105.0","CAN_142","142","","","","","","null","<button class=""jspsych-btn""><img src=""stimuli/white_square.png"" style=""width: 200px;height: 200px;""></button>","null","blue","brown","[""blue"",""brown"",""high nameability""]","left-right","[""blue"",""brown"",""high nameability""]","3","high nameability","27","left","iti",""
"html-button-response","137","421871","0.0-106.0","CAN_142","142","","","","","","743","","0","purple","red","[""purple"",""red"",""high nameability""]","left-right","[""purple"",""red"",""high nameability""]","3","high nameability","28","left","trigger",""
"html-button-response","138","422631","0.0-107.0-0.0","CAN_142","142","","","","","","749","<button class=""jspsych-btn""><img src=""stimuli/purple.png"" style=""width: 200px;height: 200px;""></button>","0","purple","red","[""purple"",""red"",""high nameability""]","left-right","[""purple"",""red"",""high nameability""]","3","high nameability","28","left","response","1"
"html-audio-button-response","139","422834","0.0-107.0-1.0","CAN_142","142","","","","","","null","stimuli/bleep.m4a","null","purple","red","[""purple"",""red"",""high nameability""]","left-right","[""purple"",""red"",""high nameability""]","3","high nameability","28","left","audio_feedback","1"
"html-button-response","140","423356","0.0-108.0","CAN_142","142","","","","","","null","<button class=""jspsych-btn""><img src=""stimuli/white_square.png"" style=""width: 200px;height: 200px;""></button>","null","purple","red","[""purple"",""red"",""high nameability""]","left-right","[""purple"",""red"",""high nameability""]","3","high nameability","28","left","iti",""
"html-button-response","141","424087","0.0-109.0","CAN_142","142","","","","","","715","","0","purple","brown","[""purple"",""brown"",""high nameability""]","left-right","[""purple"",""brown"",""high nameability""]","3","high nameability","29","left","trigger",""
"html-button-response","142","424895","0.0-110.0-0.0","CAN_142","142","","","","","","800","<button class=""jspsych-btn""><img src=""stimuli/purple.png"" style=""width: 200px;height: 200px;""></button>","0","purple","brown","[""purple"",""brown"",""high nameability""]","left-right","[""purple"",""brown"",""high nameability""]","3","high nameability","29","left","response","1"
"html-audio-button-response","143","425099","0.0-110.0-1.0","CAN_142","142","","","","","","null","stimuli/bleep.m4a","null","purple","brown","[""purple"",""brown"",""high nameability""]","left-right","[""purple"",""brown"",""high nameability""]","3","high nameability","29","left","audio_feedback","1"
"html-button-response","144","425618","0.0-111.0","CAN_142","142","","","","","","null","<button class=""jspsych-btn""><img src=""stimuli/white_square.png"" style=""width: 200px;height: 200px;""></button>","null","purple","brown","[""purple"",""brown"",""high nameability""]","left-right","[""purple"",""brown"",""high nameability""]","3","high nameability","29","left","iti",""
"html-button-response","145","426364","0.0-112.0","CAN_142","142","","","","","","726","","0","darkgreenblue","turquoise","[""darkgreenblue"",""turquoise"",""low nameability""]","right-left","[""turquoise"",""darkgreenblue""]","3","low nameability","30","right","trigger",""
"html-button-response","146","427253","0.0-113.0-0.0","CAN_142","142","","","","","","878","<button class=""jspsych-btn""><img src=""stimuli/darkgreenblue.png"" style=""width: 200px;height: 200px;""></button>","1","darkgreenblue","turquoise","[""darkgreenblue"",""turquoise"",""low nameability""]","right-left","[""turquoise"",""darkgreenblue""]","3","low nameability","30","right","response","1"
"html-audio-button-response","147","427458","0.0-113.0-1.0","CAN_142","142","","","","","","null","stimuli/bleep.m4a","null","darkgreenblue","turquoise","[""darkgreenblue"",""turquoise"",""low nameability""]","right-left","[""turquoise"",""darkgreenblue""]","3","low nameability","30","right","audio_feedback","1"
"html-button-response","148","427982","0.0-114.0","CAN_142","142","","","","","","null","<button class=""jspsych-btn""><img src=""stimuli/white_square.png"" style=""width: 200px;height: 200px;""></button>","null","darkgreenblue","turquoise","[""darkgreenblue"",""turquoise"",""low nameability""]","right-left","[""turquoise"",""darkgreenblue""]","3","low nameability","30","right","iti",""
"pavlovia","149","428051","0.0-115.0","CAN_142","142","","","","","","","","","","","","","","","","","","",""
"pavlovia","150","428057","0.0-116.0","CAN_142","142","","","","","","","","","","","","","","","","","","",""
"html-audio-button-response","151","430463","0.0-117.0","CAN_142","142","","","","","","2480","stimuli/tada.m4a","0","","","","","","","","","","",""
"html-button-response","152","431721","0.0-118.0","CAN_142","142","","","","","","1251","","0","","","","","","","","","","",""
"html-button-response","153","432782","0.0-119.0","CAN_142","142","","","","","","1052","","0","pink","darkgreenblue","[""pink"",""darkgreenblue"",""low nameability""]","right-left","[""darkgreenblue"",""pink""]","4","low nameability","31","right","trigger",""
"html-button-response","154","433720","0.0-120.0-0.0","CAN_142","142","","","","","","929","<button class=""jspsych-btn""><img src=""stimuli/pink.png"" style=""width: 200px;height: 200px;""></button>","1","pink","darkgreenblue","[""pink"",""darkgreenblue"",""low nameability""]","right-left","[""darkgreenblue"",""pink""]","4","low nameability","31","right","response","1"
"html-audio-button-response","155","433926","0.0-120.0-1.0","CAN_142","142","","","","","","null","stimuli/bleep.m4a","null","pink","darkgreenblue","[""pink"",""darkgreenblue"",""low nameability""]","right-left","[""darkgreenblue"",""pink""]","4","low nameability","31","right","audio_feedback","1"
"html-button-response","156","434447","0.0-121.0","CAN_142","142","","","","","","null","<button class=""jspsych-btn""><img src=""stimuli/white_square.png"" style=""width: 200px;height: 200px;""></button>","null","pink","darkgreenblue","[""pink"",""darkgreenblue"",""low nameability""]","right-left","[""darkgreenblue"",""pink""]","4","low nameability","31","right","iti",""
"html-button-response","157","435059","0.0-122.0","CAN_142","142","","","","","","589","","0","pink","neonyellow","[""pink"",""neonyellow"",""low nameability""]","right-left","[""neonyellow"",""pink""]","4","low nameability","32","right","trigger",""
"html-button-response","158","435856","0.0-123.0-0.0","CAN_142","142","","","","","","788","<button class=""jspsych-btn""><img src=""stimuli/pink.png"" style=""width: 200px;height: 200px;""></button>","1","pink","neonyellow","[""pink"",""neonyellow"",""low nameability""]","right-left","[""neonyellow"",""pink""]","4","low nameability","32","right","response","1"
"html-audio-button-response","159","436059","0.0-123.0-1.0","CAN_142","142","","","","","","null","stimuli/bleep.m4a","null","pink","neonyellow","[""pink"",""neonyellow"",""low nameability""]","right-left","[""neonyellow"",""pink""]","4","low nameability","32","right","audio_feedback","1"
"html-button-response","160","436576","0.0-124.0","CAN_142","142","","","","","","null","<button class=""jspsych-btn""><img src=""stimuli/white_square.png"" style=""width: 200px;height: 200px;""></button>","null","pink","neonyellow","[""pink"",""neonyellow"",""low nameability""]","right-left","[""neonyellow"",""pink""]","4","low nameability","32","right","iti",""
"html-button-response","161","437259","0.0-125.0","CAN_142","142","","","","","","661","","0","red","yellow","[""red"",""yellow"",""high nameability""]","right-left","[""yellow"",""red""]","4","high nameability","33","right","trigger",""
"html-button-response","162","438042","0.0-126.0-0.0","CAN_142","142","","","","","","773","<button class=""jspsych-btn""><img src=""stimuli/red.png"" style=""width: 200px;height: 200px;""></button>","1","red","yellow","[""red"",""yellow"",""high nameability""]","right-left","[""yellow"",""red""]","4","high nameability","33","right","response","1"
"html-audio-button-response","163","438247","0.0-126.0-1.0","CAN_142","142","","","","","","null","stimuli/bleep.m4a","null","red","yellow","[""red"",""yellow"",""high nameability""]","right-left","[""yellow"",""red""]","4","high nameability","33","right","audio_feedback","1"
"html-button-response","164","438769","0.0-127.0","CAN_142","142","","","","","","null","<button class=""jspsych-btn""><img src=""stimuli/white_square.png"" style=""width: 200px;height: 200px;""></button>","null","red","yellow","[""red"",""yellow"",""high nameability""]","right-left","[""yellow"",""red""]","4","high nameability","33","right","iti",""
"html-button-response","165","439391","0.0-128.0","CAN_142","142","","","","","","603","","0","blue","orange","[""blue"",""orange"",""high nameability""]","left-right","[""blue"",""orange"",""high nameability""]","4","high nameability","34","left","trigger",""
"html-button-response","166","440203","0.0-129.0-0.0","CAN_142","142","","","","","","797","<button class=""jspsych-btn""><img src=""stimuli/blue.png"" style=""width: 200px;height: 200px;""></button>","0","blue","orange","[""blue"",""orange"",""high nameability""]","left-right","[""blue"",""orange"",""high nameability""]","4","high nameability","34","left","response","1"
"html-audio-button-response","167","440412","0.0-129.0-1.0","CAN_142","142","","","","","","null","stimuli/bleep.m4a","null","blue","orange","[""blue"",""orange"",""high nameability""]","left-right","[""blue"",""orange"",""high nameability""]","4","high nameability","34","left","audio_feedback","1"
"html-button-response","168","440935","0.0-130.0","CAN_142","142","","","","","","null","<button class=""jspsych-btn""><img src=""stimuli/white_square.png"" style=""width: 200px;height: 200px;""></button>","null","blue","orange","[""blue"",""orange"",""high nameability""]","left-right","[""blue"",""orange"",""high nameability""]","4","high nameability","34","left","iti",""
"html-button-response","169","441605","0.0-131.0","CAN_142","142","","","","","","648","","0","mustard","turquoise","[""mustard"",""turquoise"",""low nameability""]","left-right","[""mustard"",""turquoise"",""low nameability""]","4","low nameability","35","left","trigger",""
"html-button-response","170","442383","0.0-132.0-0.0","CAN_142","142","","","","","","769","<button class=""jspsych-btn""><img src=""stimuli/mustard.png"" style=""width: 200px;height: 200px;""></button>","0","mustard","turquoise","[""mustard"",""turquoise"",""low nameability""]","left-right","[""mustard"",""turquoise"",""low nameability""]","4","low nameability","35","left","response","1"
"html-audio-button-response","171","442591","0.0-132.0-1.0","CAN_142","142","","","","","","null","stimuli/bleep.m4a","null","mustard","turquoise","[""mustard"",""turquoise"",""low nameability""]","left-right","[""mustard"",""turquoise"",""low nameability""]","4","low nameability","35","left","audio_feedback","1"
"html-button-response","172","443113","0.0-133.0","CAN_142","142","","","","","","null","<button class=""jspsych-btn""><img src=""stimuli/white_square.png"" style=""width: 200px;height: 200px;""></button>","null","mustard","turquoise","[""mustard"",""turquoise"",""low nameability""]","left-right","[""mustard"",""turquoise"",""low nameability""]","4","low nameability","35","left","iti",""
"html-button-response","173","443672","0.0-134.0","CAN_142","142","","","","","","539","","0","blue","purple","[""blue"",""purple"",""high nameability""]","right-left","[""purple"",""blue""]","4","high nameability","36","right","trigger",""
"html-button-response","174","444361","0.0-135.0-0.0","CAN_142","142","","","","","","679","<button class=""jspsych-btn""><img src=""stimuli/blue.png"" style=""width: 200px;height: 200px;""></button>","1","blue","purple","[""blue"",""purple"",""high nameability""]","right-left","[""purple"",""blue""]","4","high nameability","36","right","response","1"
"html-audio-button-response","175","444571","0.0-135.0-1.0","CAN_142","142","","","","","","null","stimuli/bleep.m4a","null","blue","purple","[""blue"",""purple"",""high nameability""]","right-left","[""purple"",""blue""]","4","high nameability","36","right","audio_feedback","1"
"html-button-response","176","445097","0.0-136.0","CAN_142","142","","","","","","null","<button class=""jspsych-btn""><img src=""stimuli/white_square.png"" style=""width: 200px;height: 200px;""></button>","null","blue","purple","[""blue"",""purple"",""high nameability""]","right-left","[""purple"",""blue""]","4","high nameability","36","right","iti",""
"html-button-response","177","445760","0.0-137.0","CAN_142","142","","","","","","621","","0","orange","blue","[""orange"",""blue"",""high nameability""]","right-left","[""blue"",""orange""]","4","high nameability","37","right","trigger",""
"html-button-response","178","446601","0.0-138.0-0.0","CAN_142","142","","","","","","829","<button class=""jspsych-btn""><img src=""stimuli/orange.png"" style=""width: 200px;height: 200px;""></button>","1","orange","blue","[""orange"",""blue"",""high nameability""]","right-left","[""blue"",""orange""]","4","high nameability","37","right","response","1"
"html-audio-button-response","179","446812","0.0-138.0-1.0","CAN_142","142","","","","","","null","stimuli/bleep.m4a","null","orange","blue","[""orange"",""blue"",""high nameability""]","right-left","[""blue"",""orange""]","4","high nameability","37","right","audio_feedback","1"
"html-button-response","180","447333","0.0-139.0","CAN_142","142","","","","","","null","<button class=""jspsych-btn""><img src=""stimuli/white_square.png"" style=""width: 200px;height: 200px;""></button>","null","orange","blue","[""orange"",""blue"",""high nameability""]","right-left","[""blue"",""orange""]","4","high nameability","37","right","iti",""
"html-button-response","181","448037","0.0-140.0","CAN_142","142","","","","","","682","","0","brown","blue","[""brown"",""blue"",""high nameability""]","left-right","[""brown"",""blue"",""high nameability""]","4","high nameability","38","left","trigger",""
"html-button-response","182","448898","0.0-141.0-0.0","CAN_142","142","","","","","","846","<button class=""jspsych-btn""><img src=""stimuli/brown.png"" style=""width: 200px;height: 200px;""></button>","0","brown","blue","[""brown"",""blue"",""high nameability""]","left-right","[""brown"",""blue"",""high nameability""]","4","high nameability","38","left","response","1"
"html-audio-button-response","183","449115","0.0-141.0-1.0","CAN_142","142","","","","","","null","stimuli/bleep.m4a","null","brown","blue","[""brown"",""blue"",""high nameability""]","left-right","[""brown"",""blue"",""high nameability""]","4","high nameability","38","left","audio_feedback","1"
"html-button-response","184","449633","0.0-142.0","CAN_142","142","","","","","","null","<button class=""jspsych-btn""><img src=""stimuli/white_square.png"" style=""width: 200px;height: 200px;""></button>","null","brown","blue","[""brown"",""blue"",""high nameability""]","left-right","[""brown"",""blue"",""high nameability""]","4","high nameability","38","left","iti",""
"html-button-response","185","450315","0.0-143.0","CAN_142","142","","","","","","661","","0","lightred","turquoise","[""lightred"",""turquoise"",""low nameability""]","right-left","[""turquoise"",""lightred""]","4","low nameability","39","right","trigger",""
"html-button-response","186","451156","0.0-144.0-0.0","CAN_142","142","","","","","","833","<button class=""jspsych-btn""><img src=""stimuli/lightred.png"" style=""width: 200px;height: 200px;""></button>","1","lightred","turquoise","[""lightred"",""turquoise"",""low nameability""]","right-left","[""turquoise"",""lightred""]","4","low nameability","39","right","response","1"
"html-audio-button-response","187","451359","0.0-144.0-1.0","CAN_142","142","","","","","","null","stimuli/bleep.m4a","null","lightred","turquoise","[""lightred"",""turquoise"",""low nameability""]","right-left","[""turquoise"",""lightred""]","4","low nameability","39","right","audio_feedback","1"
"html-button-response","188","451882","0.0-145.0","CAN_142","142","","","","","","null","<button class=""jspsych-btn""><img src=""stimuli/white_square.png"" style=""width: 200px;height: 200px;""></button>","null","lightred","turquoise","[""lightred"",""turquoise"",""low nameability""]","right-left","[""turquoise"",""lightred""]","4","low nameability","39","right","iti",""
"html-button-response","189","452565","0.0-146.0","CAN_142","142","","","","","","666","","0","brown","orange","[""brown"",""orange"",""high nameability""]","right-left","[""orange"",""brown""]","4","high nameability","40","right","trigger",""
"html-button-response","190","453280","0.0-147.0-0.0","CAN_142","142","","","","","","707","<button class=""jspsych-btn""><img src=""stimuli/brown.png"" style=""width: 200px;height: 200px;""></button>","1","brown","orange","[""brown"",""orange"",""high nameability""]","right-left","[""orange"",""brown""]","4","high nameability","40","right","response","1"
"html-audio-button-response","191","453485","0.0-147.0-1.0","CAN_142","142","","","","","","null","stimuli/bleep.m4a","null","brown","orange","[""brown"",""orange"",""high nameability""]","right-left","[""orange"",""brown""]","4","high nameability","40","right","audio_feedback","1"
"html-button-response","192","453999","0.0-148.0","CAN_142","142","","","","","","null","<button class=""jspsych-btn""><img src=""stimuli/white_square.png"" style=""width: 200px;height: 200px;""></button>","null","brown","orange","[""brown"",""orange"",""high nameability""]","right-left","[""orange"",""brown""]","4","high nameability","40","right","iti",""
"pavlovia","193","454052","0.0-149.0","CAN_142","142","","","","","","","","","","","","","","","","","","",""
"pavlovia","194","454064","0.0-150.0","CAN_142","142","","","","","","","","","","","","","","","","","","",""
"html-audio-button-response","195","455942","0.0-151.0","CAN_142","142","","","","","","1939","stimuli/tada.m4a","0","","","","","","","","","","",""
"html-button-response","196","457163","0.0-152.0","CAN_142","142","","","","","","1214","","0","","","","","","","","","","",""
"html-button-response","197","458132","0.0-153.0","CAN_142","142","","","","","","959","","0","darkgreenblue","mustard","[""darkgreenblue"",""mustard"",""low nameability""]","left-right","[""darkgreenblue"",""mustard"",""low nameability""]","5","low nameability","41","left","trigger",""
"html-button-response","198","458931","0.0-154.0-0.0","CAN_142","142","","","","","","789","<button class=""jspsych-btn""><img src=""stimuli/darkgreenblue.png"" style=""width: 200px;height: 200px;""></button>","0","darkgreenblue","mustard","[""darkgreenblue"",""mustard"",""low nameability""]","left-right","[""darkgreenblue"",""mustard"",""low nameability""]","5","low nameability","41","left","response","1"
"html-audio-button-response","199","459136","0.0-154.0-1.0","CAN_142","142","","","","","","null","stimuli/bleep.m4a","null","darkgreenblue","mustard","[""darkgreenblue"",""mustard"",""low nameability""]","left-right","[""darkgreenblue"",""mustard"",""low nameability""]","5","low nameability","41","left","audio_feedback","1"
"html-button-response","200","459652","0.0-155.0","CAN_142","142","","","","","","null","<button class=""jspsych-btn""><img src=""stimuli/white_square.png"" style=""width: 200px;height: 200px;""></button>","null","darkgreenblue","mustard","[""darkgreenblue"",""mustard"",""low nameability""]","left-right","[""darkgreenblue"",""mustard"",""low nameability""]","5","low nameability","41","left","iti",""
"html-button-response","201","460173","0.0-156.0","CAN_142","142","","","","","","497","","0","lightred","darkgreenblue","[""lightred"",""darkgreenblue"",""low nameability""]","left-right","[""lightred"",""darkgreenblue"",""low nameability""]","5","low nameability","42","left","trigger",""
"html-button-response","202","460954","0.0-157.0-0.0","CAN_142","142","","","","","","771","<button class=""jspsych-btn""><img src=""stimuli/lightred.png"" style=""width: 200px;height: 200px;""></button>","0","lightred","darkgreenblue","[""lightred"",""darkgreenblue"",""low nameability""]","left-right","[""lightred"",""darkgreenblue"",""low nameability""]","5","low nameability","42","left","response","1"
"html-audio-button-response","203","461159","0.0-157.0-1.0","CAN_142","142","","","","","","null","stimuli/bleep.m4a","null","lightred","darkgreenblue","[""lightred"",""darkgreenblue"",""low nameability""]","left-right","[""lightred"",""darkgreenblue"",""low nameability""]","5","low nameability","42","left","audio_feedback","1"
"html-button-response","204","461674","0.0-158.0","CAN_142","142","","","","","","null","<button class=""jspsych-btn""><img src=""stimuli/white_square.png"" style=""width: 200px;height: 200px;""></button>","null","lightred","darkgreenblue","[""lightred"",""darkgreenblue"",""low nameability""]","left-right","[""lightred"",""darkgreenblue"",""low nameability""]","5","low nameability","42","left","iti",""
"html-button-response","205","462331","0.0-159.0","CAN_142","142","","","","","","639","","0","turquoise","lightred","[""turquoise"",""lightred"",""low nameability""]","right-left","[""lightred"",""turquoise""]","5","low nameability","43","right","trigger",""
"html-button-response","206","463093","0.0-160.0-0.0","CAN_142","142","","","","","","753","<button class=""jspsych-btn""><img src=""stimuli/turquoise.png"" style=""width: 200px;height: 200px;""></button>","1","turquoise","lightred","[""turquoise"",""lightred"",""low nameability""]","right-left","[""lightred"",""turquoise""]","5","low nameability","43","right","response","1"
"html-audio-button-response","207","463299","0.0-160.0-1.0","CAN_142","142","","","","","","null","stimuli/bleep.m4a","null","turquoise","lightred","[""turquoise"",""lightred"",""low nameability""]","right-left","[""lightred"",""turquoise""]","5","low nameability","43","right","audio_feedback","1"
"html-button-response","208","463820","0.0-161.0","CAN_142","142","","","","","","null","<button class=""jspsych-btn""><img src=""stimuli/white_square.png"" style=""width: 200px;height: 200px;""></button>","null","turquoise","lightred","[""turquoise"",""lightred"",""low nameability""]","right-left","[""lightred"",""turquoise""]","5","low nameability","43","right","iti",""
"html-button-response","209","464444","0.0-162.0","CAN_142","142","","","","","","608","","0","mustard","darkgreenblue","[""mustard"",""darkgreenblue"",""low nameability""]","left-right","[""mustard"",""darkgreenblue"",""low nameability""]","5","low nameability","44","left","trigger",""
"html-button-response","210","465205","0.0-163.0-0.0","CAN_142","142","","","","","","754","<button class=""jspsych-btn""><img src=""stimuli/mustard.png"" style=""width: 200px;height: 200px;""></button>","0","mustard","darkgreenblue","[""mustard"",""darkgreenblue"",""low nameability""]","left-right","[""mustard"",""darkgreenblue"",""low nameability""]","5","low nameability","44","left","response","1"
"html-audio-button-response","211","465410","0.0-163.0-1.0","CAN_142","142","","","","","","null","stimuli/bleep.m4a","null","mustard","darkgreenblue","[""mustard"",""darkgreenblue"",""low nameability""]","left-right","[""mustard"",""darkgreenblue"",""low nameability""]","5","low nameability","44","left","audio_feedback","1"
"html-button-response","212","465935","0.0-164.0","CAN_142","142","","","","","","null","<button class=""jspsych-btn""><img src=""stimuli/white_square.png"" style=""width: 200px;height: 200px;""></button>","null","mustard","darkgreenblue","[""mustard"",""darkgreenblue"",""low nameability""]","left-right","[""mustard"",""darkgreenblue"",""low nameability""]","5","low nameability","44","left","iti",""
"html-button-response","213","466531","0.0-165.0","CAN_142","142","","","","","","571","","0","orange","purple","[""orange"",""purple"",""high nameability""]","left-right","[""orange"",""purple"",""high nameability""]","5","high nameability","45","left","trigger",""
"html-button-response","214","467248","0.0-166.0-0.0","CAN_142","142","","","","","","712","<button class=""jspsych-btn""><img src=""stimuli/orange.png"" style=""width: 200px;height: 200px;""></button>","0","orange","purple","[""orange"",""purple"",""high nameability""]","left-right","[""orange"",""purple"",""high nameability""]","5","high nameability","45","left","response","1"
"html-audio-button-response","215","467455","0.0-166.0-1.0","CAN_142","142","","","","","","null","stimuli/bleep.m4a","null","orange","purple","[""orange"",""purple"",""high nameability""]","left-right","[""orange"",""purple"",""high nameability""]","5","high nameability","45","left","audio_feedback","1"
"html-button-response","216","467978","0.0-167.0","CAN_142","142","","","","","","null","<button class=""jspsych-btn""><img src=""stimuli/white_square.png"" style=""width: 200px;height: 200px;""></button>","null","orange","purple","[""orange"",""purple"",""high nameability""]","left-right","[""orange"",""purple"",""high nameability""]","5","high nameability","45","left","iti",""
"html-button-response","217","468693","0.0-168.0","CAN_142","142","","","","","","693","","0","red","orange","[""red"",""orange"",""high nameability""]","left-right","[""red"",""orange"",""high nameability""]","5","high nameability","46","left","trigger",""
"html-button-response","218","469385","0.0-169.0-0.0","CAN_142","142","","","","","","681","<button class=""jspsych-btn""><img src=""stimuli/red.png"" style=""width: 200px;height: 200px;""></button>","0","red","orange","[""red"",""orange"",""high nameability""]","left-right","[""red"",""orange"",""high nameability""]","5","high nameability","46","left","response","1"
"html-audio-button-response","219","469587","0.0-169.0-1.0","CAN_142","142","","","","","","null","stimuli/bleep.m4a","null","red","orange","[""red"",""orange"",""high nameability""]","left-right","[""red"",""orange"",""high nameability""]","5","high nameability","46","left","audio_feedback","1"
"html-button-response","220","470114","0.0-170.0","CAN_142","142","","","","","","null","<button class=""jspsych-btn""><img src=""stimuli/white_square.png"" style=""width: 200px;height: 200px;""></button>","null","red","orange","[""red"",""orange"",""high nameability""]","left-right","[""red"",""orange"",""high nameability""]","5","high nameability","46","left","iti",""
"html-button-response","221","470718","0.0-171.0","CAN_142","142","","","","","","585","","0","pink","mustard","[""pink"",""mustard"",""low nameability""]","right-left","[""mustard"",""pink""]","5","low nameability","47","right","trigger",""
"html-button-response","222","471499","0.0-172.0-0.0","CAN_142","142","","","","","","773","<button class=""jspsych-btn""><img src=""stimuli/pink.png"" style=""width: 200px;height: 200px;""></button>","1","pink","mustard","[""pink"",""mustard"",""low nameability""]","right-left","[""mustard"",""pink""]","5","low nameability","47","right","response","1"
"html-audio-button-response","223","471701","0.0-172.0-1.0","CAN_142","142","","","","","","null","stimuli/bleep.m4a","null","pink","mustard","[""pink"",""mustard"",""low nameability""]","right-left","[""mustard"",""pink""]","5","low nameability","47","right","audio_feedback","1"
"html-button-response","224","472215","0.0-173.0","CAN_142","142","","","","","","null","<button class=""jspsych-btn""><img src=""stimuli/white_square.png"" style=""width: 200px;height: 200px;""></button>","null","pink","mustard","[""pink"",""mustard"",""low nameability""]","right-left","[""mustard"",""pink""]","5","low nameability","47","right","iti",""
"html-button-response","225","472901","0.0-174.0","CAN_142","142","","","","","","669","","0","yellow","purple","[""yellow"",""purple"",""high nameability""]","right-left","[""purple"",""yellow""]","5","high nameability","48","right","trigger",""
"html-button-response","226","473696","0.0-175.0-0.0","CAN_142","142","","","","","","786","<button class=""jspsych-btn""><img src=""stimuli/yellow.png"" style=""width: 200px;height: 200px;""></button>","1","yellow","purple","[""yellow"",""purple"",""high nameability""]","right-left","[""purple"",""yellow""]","5","high nameability","48","right","response","1"
"html-audio-button-response","227","473899","0.0-175.0-1.0","CAN_142","142","","","","","","null","stimuli/bleep.m4a","null","yellow","purple","[""yellow"",""purple"",""high nameability""]","right-left","[""purple"",""yellow""]","5","high nameability","48","right","audio_feedback","1"
"html-button-response","228","474417","0.0-176.0","CAN_142","142","","","","","","null","<button class=""jspsych-btn""><img src=""stimuli/white_square.png"" style=""width: 200px;height: 200px;""></button>","null","yellow","purple","[""yellow"",""purple"",""high nameability""]","right-left","[""purple"",""yellow""]","5","high nameability","48","right","iti",""
"html-button-response","229","475160","0.0-177.0","CAN_142","142","","","","","","719","","0","neonyellow","darkgreenblue","[""neonyellow"",""darkgreenblue"",""low nameability""]","left-right","[""neonyellow"",""darkgreenblue"",""low nameability""]","5","low nameability","49","left","trigger",""
"html-button-response","230","475867","0.0-178.0-0.0","CAN_142","142","","","","","","695","<button class=""jspsych-btn""><img src=""stimuli/neonyellow.png"" style=""width: 200px;height: 200px;""></button>","0","neonyellow","darkgreenblue","[""neonyellow"",""darkgreenblue"",""low nameability""]","left-right","[""neonyellow"",""darkgreenblue"",""low nameability""]","5","low nameability","49","left","response","1"
"html-audio-button-response","231","476072","0.0-178.0-1.0","CAN_142","142","","","","","","null","stimuli/bleep.m4a","null","neonyellow","darkgreenblue","[""neonyellow"",""darkgreenblue"",""low nameability""]","left-right","[""neonyellow"",""darkgreenblue"",""low nameability""]","5","low nameability","49","left","audio_feedback","1"
"html-button-response","232","476591","0.0-179.0","CAN_142","142","","","","","","null","<button class=""jspsych-btn""><img src=""stimuli/white_square.png"" style=""width: 200px;height: 200px;""></button>","null","neonyellow","darkgreenblue","[""neonyellow"",""darkgreenblue"",""low nameability""]","left-right","[""neonyellow"",""darkgreenblue"",""low nameability""]","5","low nameability","49","left","iti",""
"html-button-response","233","477207","0.0-180.0","CAN_142","142","","","","","","599","","0","red","purple","[""red"",""purple"",""high nameability""]","left-right","[""red"",""purple"",""high nameability""]","5","high nameability","50","left","trigger",""
"html-button-response","234","478028","0.0-181.0-0.0","CAN_142","142","","","","","","812","<button class=""jspsych-btn""><img src=""stimuli/red.png"" style=""width: 200px;height: 200px;""></button>","0","red","purple","[""red"",""purple"",""high nameability""]","left-right","[""red"",""purple"",""high nameability""]","5","high nameability","50","left","response","1"
"html-audio-button-response","235","478231","0.0-181.0-1.0","CAN_142","142","","","","","","null","stimuli/bleep.m4a","null","red","purple","[""red"",""purple"",""high nameability""]","left-right","[""red"",""purple"",""high nameability""]","5","high nameability","50","left","audio_feedback","1"
"html-button-response","236","478751","0.0-182.0","CAN_142","142","","","","","","null","<button class=""jspsych-btn""><img src=""stimuli/white_square.png"" style=""width: 200px;height: 200px;""></button>","null","red","purple","[""red"",""purple"",""high nameability""]","left-right","[""red"",""purple"",""high nameability""]","5","high nameability","50","left","iti",""
"pavlovia","237","478818","0.0-183.0","CAN_142","142","","","","","","","","","","","","","","","","","","",""
"pavlovia","238","478826","0.0-184.0","CAN_142","142","","","","","","","","","","","","","","","","","","",""
"html-audio-button-response","239","481706","0.0-185.0","CAN_142","142","","","","","","2952","stimuli/tada.m4a","0","","","","","","","","","","",""
"html-button-response","240","482744","0.0-186.0","CAN_142","142","","","","","","1031","","0","","","","","","","","","","",""
"html-button-response","241","483871","0.0-187.0","CAN_142","142","","","","","","1117","","0","yellow","blue","[""yellow"",""blue"",""high nameability""]","right-left","[""blue"",""yellow""]","6","high nameability","51","right","trigger",""
"html-button-response","242","484661","0.0-188.0-0.0","CAN_142","142","","","","","","775","<button class=""jspsych-btn""><img src=""stimuli/yellow.png"" style=""width: 200px;height: 200px;""></button>","1","yellow","blue","[""yellow"",""blue"",""high nameability""]","right-left","[""blue"",""yellow""]","6","high nameability","51","right","response","1"
"html-audio-button-response","243","484867","0.0-188.0-1.0","CAN_142","142","","","","","","null","stimuli/bleep.m4a","null","yellow","blue","[""yellow"",""blue"",""high nameability""]","right-left","[""blue"",""yellow""]","6","high nameability","51","right","audio_feedback","1"
"html-button-response","244","485387","0.0-189.0","CAN_142","142","","","","","","null","<button class=""jspsych-btn""><img src=""stimuli/white_square.png"" style=""width: 200px;height: 200px;""></button>","null","yellow","blue","[""yellow"",""blue"",""high nameability""]","right-left","[""blue"",""yellow""]","6","high nameability","51","right","iti",""
"html-button-response","245","486260","0.0-190.0","CAN_142","142","","","","","","856","","0","yellow","brown","[""yellow"",""brown"",""high nameability""]","right-left","[""brown"",""yellow""]","6","high nameability","52","right","trigger",""
"html-button-response","246","486942","0.0-191.0-0.0","CAN_142","142","","","","","","672","<button class=""jspsych-btn""><img src=""stimuli/yellow.png"" style=""width: 200px;height: 200px;""></button>","1","yellow","brown","[""yellow"",""brown"",""high nameability""]","right-left","[""brown"",""yellow""]","6","high nameability","52","right","response","1"
"html-audio-button-response","247","487147","0.0-191.0-1.0","CAN_142","142","","","","","","null","stimuli/bleep.m4a","null","yellow","brown","[""yellow"",""brown"",""high nameability""]","right-left","[""brown"",""yellow""]","6","high nameability","52","right","audio_feedback","1"
"html-button-response","248","487668","0.0-192.0","CAN_142","142","","","","","","null","<button class=""jspsych-btn""><img src=""stimuli/white_square.png"" style=""width: 200px;height: 200px;""></button>","null","yellow","brown","[""yellow"",""brown"",""high nameability""]","right-left","[""brown"",""yellow""]","6","high nameability","52","right","iti",""
"html-button-response","249","488550","0.0-193.0","CAN_142","142","","","","","","862","","0","brown","purple","[""brown"",""purple"",""high nameability""]","right-left","[""purple"",""brown""]","6","high nameability","53","right","trigger",""
"html-button-response","250","489344","0.0-194.0-0.0","CAN_142","142","","","","","","785","<button class=""jspsych-btn""><img src=""stimuli/brown.png"" style=""width: 200px;height: 200px;""></button>","1","brown","purple","[""brown"",""purple"",""high nameability""]","right-left","[""purple"",""brown""]","6","high nameability","53","right","response","1"
"html-audio-button-response","251","489547","0.0-194.0-1.0","CAN_142","142","","","","","","null","stimuli/bleep.m4a","null","brown","purple","[""brown"",""purple"",""high nameability""]","right-left","[""purple"",""brown""]","6","high nameability","53","right","audio_feedback","1"
"html-button-response","252","490067","0.0-195.0","CAN_142","142","","","","","","null","<button class=""jspsych-btn""><img src=""stimuli/white_square.png"" style=""width: 200px;height: 200px;""></button>","null","brown","purple","[""brown"",""purple"",""high nameability""]","right-left","[""purple"",""brown""]","6","high nameability","53","right","iti",""
"html-button-response","253","490827","0.0-196.0","CAN_142","142","","","","","","744","","0","red","brown","[""red"",""brown"",""high nameability""]","left-right","[""red"",""brown"",""high nameability""]","6","high nameability","54","left","trigger",""
"html-button-response","254","491550","0.0-197.0-0.0","CAN_142","142","","","","","","712","<button class=""jspsych-btn""><img src=""stimuli/red.png"" style=""width: 200px;height: 200px;""></button>","0","red","brown","[""red"",""brown"",""high nameability""]","left-right","[""red"",""brown"",""high nameability""]","6","high nameability","54","left","response","1"
"html-audio-button-response","255","491755","0.0-197.0-1.0","CAN_142","142","","","","","","null","stimuli/bleep.m4a","null","red","brown","[""red"",""brown"",""high nameability""]","left-right","[""red"",""brown"",""high nameability""]","6","high nameability","54","left","audio_feedback","1"
"html-button-response","256","492269","0.0-198.0","CAN_142","142","","","","","","null","<button class=""jspsych-btn""><img src=""stimuli/white_square.png"" style=""width: 200px;height: 200px;""></button>","null","red","brown","[""red"",""brown"",""high nameability""]","left-right","[""red"",""brown"",""high nameability""]","6","high nameability","54","left","iti",""
"html-button-response","257","493025","0.0-199.0","CAN_142","142","","","","","","738","","0","purple","orange","[""purple"",""orange"",""high nameability""]","right-left","[""orange"",""purple""]","6","high nameability","55","right","trigger",""
"html-button-response","258","493710","0.0-200.0-0.0","CAN_142","142","","","","","","676","<button class=""jspsych-btn""><img src=""stimuli/purple.png"" style=""width: 200px;height: 200px;""></button>","1","purple","orange","[""purple"",""orange"",""high nameability""]","right-left","[""orange"",""purple""]","6","high nameability","55","right","response","1"
"html-audio-button-response","259","493917","0.0-200.0-1.0","CAN_142","142","","","","","","null","stimuli/bleep.m4a","null","purple","orange","[""purple"",""orange"",""high nameability""]","right-left","[""orange"",""purple""]","6","high nameability","55","right","audio_feedback","1"
"html-button-response","260","494438","0.0-201.0","CAN_142","142","","","","","","null","<button class=""jspsych-btn""><img src=""stimuli/white_square.png"" style=""width: 200px;height: 200px;""></button>","null","purple","orange","[""purple"",""orange"",""high nameability""]","right-left","[""orange"",""purple""]","6","high nameability","55","right","iti",""
"html-button-response","261","495076","0.0-202.0","CAN_142","142","","","","","","615","","0","neonyellow","turquoise","[""neonyellow"",""turquoise"",""low nameability""]","left-right","[""neonyellow"",""turquoise"",""low nameability""]","6","low nameability","56","left","trigger",""
"html-button-response","262","495812","0.0-203.0-0.0","CAN_142","142","","","","","","728","<button class=""jspsych-btn""><img src=""stimuli/neonyellow.png"" style=""width: 200px;height: 200px;""></button>","0","neonyellow","turquoise","[""neonyellow"",""turquoise"",""low nameability""]","left-right","[""neonyellow"",""turquoise"",""low nameability""]","6","low nameability","56","left","response","1"
"html-audio-button-response","263","496013","0.0-203.0-1.0","CAN_142","142","","","","","","null","stimuli/bleep.m4a","null","neonyellow","turquoise","[""neonyellow"",""turquoise"",""low nameability""]","left-right","[""neonyellow"",""turquoise"",""low nameability""]","6","low nameability","56","left","audio_feedback","1"
"html-button-response","264","496531","0.0-204.0","CAN_142","142","","","","","","null","<button class=""jspsych-btn""><img src=""stimuli/white_square.png"" style=""width: 200px;height: 200px;""></button>","null","neonyellow","turquoise","[""neonyellow"",""turquoise"",""low nameability""]","left-right","[""neonyellow"",""turquoise"",""low nameability""]","6","low nameability","56","left","iti",""
"html-button-response","265","497145","0.0-205.0","CAN_142","142","","","","","","595","","0","darkgreenblue","pink","[""darkgreenblue"",""pink"",""low nameability""]","left-right","[""darkgreenblue"",""pink"",""low nameability""]","6","low nameability","57","left","trigger",""
"html-button-response","266","497974","0.0-206.0-0.0","CAN_142","142","","","","","","819","<button class=""jspsych-btn""><img src=""stimuli/darkgreenblue.png"" style=""width: 200px;height: 200px;""></button>","0","darkgreenblue","pink","[""darkgreenblue"",""pink"",""low nameability""]","left-right","[""darkgreenblue"",""pink"",""low nameability""]","6","low nameability","57","left","response","1"
"html-audio-button-response","267","498178","0.0-206.0-1.0","CAN_142","142","","","","","","null","stimuli/bleep.m4a","null","darkgreenblue","pink","[""darkgreenblue"",""pink"",""low nameability""]","left-right","[""darkgreenblue"",""pink"",""low nameability""]","6","low nameability","57","left","audio_feedback","1"
"html-button-response","268","498697","0.0-207.0","CAN_142","142","","","","","","null","<button class=""jspsych-btn""><img src=""stimuli/white_square.png"" style=""width: 200px;height: 200px;""></button>","null","darkgreenblue","pink","[""darkgreenblue"",""pink"",""low nameability""]","left-right","[""darkgreenblue"",""pink"",""low nameability""]","6","low nameability","57","left","iti",""
"html-button-response","269","499421","0.0-208.0","CAN_142","142","","","","","","707","","0","neonyellow","mustard","[""neonyellow"",""mustard"",""low nameability""]","left-right","[""neonyellow"",""mustard"",""low nameability""]","6","low nameability","58","left","trigger",""
"html-button-response","270","500192","0.0-209.0-0.0","CAN_142","142","","","","","","764","<button class=""jspsych-btn""><img src=""stimuli/neonyellow.png"" style=""width: 200px;height: 200px;""></button>","0","neonyellow","mustard","[""neonyellow"",""mustard"",""low nameability""]","left-right","[""neonyellow"",""mustard"",""low nameability""]","6","low nameability","58","left","response","1"
"html-audio-button-response","271","500394","0.0-209.0-1.0","CAN_142","142","","","","","","null","stimuli/bleep.m4a","null","neonyellow","mustard","[""neonyellow"",""mustard"",""low nameability""]","left-right","[""neonyellow"",""mustard"",""low nameability""]","6","low nameability","58","left","audio_feedback","1"
"html-button-response","272","500909","0.0-210.0","CAN_142","142","","","","","","null","<button class=""jspsych-btn""><img src=""stimuli/white_square.png"" style=""width: 200px;height: 200px;""></button>","null","neonyellow","mustard","[""neonyellow"",""mustard"",""low nameability""]","left-right","[""neonyellow"",""mustard"",""low nameability""]","6","low nameability","58","left","iti",""
"html-button-response","273","501914","0.0-211.0","CAN_142","142","","","","","","991","","0","turquoise","darkgreenblue","[""turquoise"",""darkgreenblue"",""low nameability""]","right-left","[""darkgreenblue"",""turquoise""]","6","low nameability","59","right","trigger",""
"html-button-response","274","502705","0.0-212.0-0.0","CAN_142","142","","","","","","782","<button class=""jspsych-btn""><img src=""stimuli/turquoise.png"" style=""width: 200px;height: 200px;""></button>","1","turquoise","darkgreenblue","[""turquoise"",""darkgreenblue"",""low nameability""]","right-left","[""darkgreenblue"",""turquoise""]","6","low nameability","59","right","response","1"
"html-audio-button-response","275","502911","0.0-212.0-1.0","CAN_142","142","","","","","","null","stimuli/bleep.m4a","null","turquoise","darkgreenblue","[""turquoise"",""darkgreenblue"",""low nameability""]","right-left","[""darkgreenblue"",""turquoise""]","6","low nameability","59","right","audio_feedback","1"
"html-button-response","276","503432","0.0-213.0","CAN_142","142","","","","","","null","<button class=""jspsych-btn""><img src=""stimuli/white_square.png"" style=""width: 200px;height: 200px;""></button>","null","turquoise","darkgreenblue","[""turquoise"",""darkgreenblue"",""low nameability""]","right-left","[""darkgreenblue"",""turquoise""]","6","low nameability","59","right","iti",""
"html-button-response","277","504046","0.0-214.0","CAN_142","142","","","","","","599","","0","lightred","pink","[""lightred"",""pink"",""low nameability""]","right-left","[""pink"",""lightred""]","6","low nameability","60","right","trigger",""
"html-button-response","278","504852","0.0-215.0-0.0","CAN_142","142","","","","","","798","<button class=""jspsych-btn""><img src=""stimuli/lightred.png"" style=""width: 200px;height: 200px;""></button>","1","lightred","pink","[""lightred"",""pink"",""low nameability""]","right-left","[""pink"",""lightred""]","6","low nameability","60","right","response","1"
"html-audio-button-response","279","505057","0.0-215.0-1.0","CAN_142","142","","","","","","null","stimuli/bleep.m4a","null","lightred","pink","[""lightred"",""pink"",""low nameability""]","right-left","[""pink"",""lightred""]","6","low nameability","60","right","audio_feedback","1"
"html-button-response","280","505576","0.0-216.0","CAN_142","142","","","","","","null","<button class=""jspsych-btn""><img src=""stimuli/white_square.png"" style=""width: 200px;height: 200px;""></button>","null","lightred","pink","[""lightred"",""pink"",""low nameability""]","right-left","[""pink"",""lightred""]","6","low nameability","60","right","iti",""
