"trial_type","trial_index","time_elapsed","internal_node_id","subject_id","seed","success","timeout","failed_images","failed_audio","failed_video","rt","stimulus","response","target","foil","choices","combination_order","choices_in_order","round","condition","trial_counter","target_location","trial_kind","correct"
"pavlovia","0","20","0.0-0.0","CAN_112","112","","","","","","","","","","","","","","","","","","",""
"preload","1","1133","0.0-1.0","CAN_112","112","true","false","[]","[]","[]","","","","","","","","","","","","","",""
"fullscreen","2","5483","0.0-2.0","CAN_112","112","true","","","","","","","","","","","","","","","","","",""
"html-button-response","3","49917","0.0-3.0","CAN_112","112","","","","","","44415","","0","","","","","","","","","","",""
"html-button-response","4","53759","0.0-4.0","CAN_112","112","","","","","","3827","","0","star","square","[""square"",""star""]","left-right","[""square"",""star""]","1","practice","1","right","trigger",""
"html-button-response","5","60701","0.0-5.0-0.0","CAN_112","112","","","","","","6922","<button class=""jspsych-btn""><img src=""stimuli/star.png"" style=""width: 200px;height: 200px;""></button>","1","star","square","[""square"",""star""]","left-right","[""square"",""star""]","1","practice","1","right","response","1"
"html-audio-button-response","6","60920","0.0-5.0-1.0","CAN_112","112","","","","","","null","stimuli/bleep.m4a","null","star","square","[""square"",""star""]","left-right","[""square"",""star""]","1","practice","1","right","audio_feedback","1"
"html-button-response","7","61448","0.0-6.0","CAN_112","112","","","","","","null","<button class=""jspsych-btn""><img src=""stimuli/white_square.png"" style=""width: 200px;height: 200px;""></button>","null","star","square","[""square"",""star""]","left-right","[""square"",""star""]","1","practice","1","right","iti",""
"html-button-response","8","63207","0.0-7.0","CAN_112","112","","","","","","1743","","0","triangle","pentagram","[""triangle"",""pentagram""]","left-right","[""triangle"",""pentagram""]","1","practice","1","left","trigger",""
"html-button-response","9","64810","0.0-8.0-0.0","CAN_112","112","","","","","","1592","<button class=""jspsych-btn""><img src=""stimuli/triangle.png"" style=""width: 200px;height: 200px;""></button>","0","triangle","pentagram","[""triangle"",""pentagram""]","left-right","[""triangle"",""pentagram""]","1","practice","1","left","response","1"
"html-audio-button-response","10","65019","0.0-8.0-1.0","CAN_112","112","","","","","","null","stimuli/bleep.m4a","null","triangle","pentagram","[""triangle"",""pentagram""]","left-right","[""triangle"",""pentagram""]","1","practice","1","left","audio_feedback","1"
"html-button-response","11","65542","0.0-9.0","CAN_112","112","","","","","","null","<button class=""jspsych-btn""><img src=""stimuli/white_square.png"" style=""width: 200px;height: 200px;""></button>","null","triangle","pentagram","[""triangle"",""pentagram""]","left-right","[""triangle"",""pentagram""]","1","practice","1","left","iti",""
"html-button-response","12","66470","0.0-10.0","CAN_112","112","","","","","","910","","0","diamond","rectangle","[""rectangle"",""diamond""]","left-right","[""rectangle"",""diamond""]","1","practice","1","right","trigger",""
"html-button-response","13","67607","0.0-11.0-0.0","CAN_112","112","","","","","","1127","<button class=""jspsych-btn""><img src=""stimuli/diamond.png"" style=""width: 200px;height: 200px;""></button>","1","diamond","rectangle","[""rectangle"",""diamond""]","left-right","[""rectangle"",""diamond""]","1","practice","1","right","response","1"
"html-audio-button-response","14","67814","0.0-11.0-1.0","CAN_112","112","","","","","","null","stimuli/bleep.m4a","null","diamond","rectangle","[""rectangle"",""diamond""]","left-right","[""rectangle"",""diamond""]","1","practice","1","right","audio_feedback","1"
"html-button-response","15","68332","0.0-12.0","CAN_112","112","","","","","","null","<button class=""jspsych-btn""><img src=""stimuli/white_square.png"" style=""width: 200px;height: 200px;""></button>","null","diamond","rectangle","[""rectangle"",""diamond""]","left-right","[""rectangle"",""diamond""]","1","practice","1","right","iti",""
"html-button-response","16","69036","0.0-13.0","CAN_112","112","","","","","","691","","0","pentagram","star","[""pentagram"",""star""]","left-right","[""pentagram"",""star""]","1","practice","1","left","trigger",""
"html-button-response","17","70039","0.0-14.0-0.0","CAN_112","112","","","","","","993","<button class=""jspsych-btn""><img src=""stimuli/pentagram.png"" style=""width: 200px;height: 200px;""></button>","0","pentagram","star","[""pentagram"",""star""]","left-right","[""pentagram"",""star""]","1","practice","1","left","response","1"
"html-audio-button-response","18","70243","0.0-14.0-1.0","CAN_112","112","","","","","","null","stimuli/bleep.m4a","null","pentagram","star","[""pentagram"",""star""]","left-right","[""pentagram"",""star""]","1","practice","1","left","audio_feedback","1"
"html-button-response","19","70764","0.0-15.0","CAN_112","112","","","","","","null","<button class=""jspsych-btn""><img src=""stimuli/white_square.png"" style=""width: 200px;height: 200px;""></button>","null","pentagram","star","[""pentagram"",""star""]","left-right","[""pentagram"",""star""]","1","practice","1","left","iti",""
"html-button-response","20","84658","0.0-16.0","CAN_112","112","","","","","","13885","","0","","","","","","","","","","",""
"html-button-response","21","85868","0.0-17.0","CAN_112","112","","","","","","1201","","0","turquoise","mustard","[""turquoise"",""mustard"",""low nameability""]","left-right","[""turquoise"",""mustard"",""low nameability""]","1","low nameability","1","left","trigger",""
"html-button-response","22","86861","0.0-18.0-0.0","CAN_112","112","","","","","","983","<button class=""jspsych-btn""><img src=""stimuli/turquoise.png"" style=""width: 200px;height: 200px;""></button>","0","turquoise","mustard","[""turquoise"",""mustard"",""low nameability""]","left-right","[""turquoise"",""mustard"",""low nameability""]","1","low nameability","1","left","response","1"
"html-audio-button-response","23","87071","0.0-18.0-1.0","CAN_112","112","","","","","","null","stimuli/bleep.m4a","null","turquoise","mustard","[""turquoise"",""mustard"",""low nameability""]","left-right","[""turquoise"",""mustard"",""low nameability""]","1","low nameability","1","left","audio_feedback","1"
"html-button-response","24","87595","0.0-19.0","CAN_112","112","","","","","","null","<button class=""jspsych-btn""><img src=""stimuli/white_square.png"" style=""width: 200px;height: 200px;""></button>","null","turquoise","mustard","[""turquoise"",""mustard"",""low nameability""]","left-right","[""turquoise"",""mustard"",""low nameability""]","1","low nameability","1","left","iti",""
"html-button-response","25","88264","0.0-20.0","CAN_112","112","","","","","","654","","0","darkgreenblue","pink","[""darkgreenblue"",""pink"",""low nameability""]","left-right","[""darkgreenblue"",""pink"",""low nameability""]","1","low nameability","2","left","trigger",""
"html-button-response","26","89065","0.0-21.0-0.0","CAN_112","112","","","","","","794","<button class=""jspsych-btn""><img src=""stimuli/darkgreenblue.png"" style=""width: 200px;height: 200px;""></button>","0","darkgreenblue","pink","[""darkgreenblue"",""pink"",""low nameability""]","left-right","[""darkgreenblue"",""pink"",""low nameability""]","1","low nameability","2","left","response","1"
"html-audio-button-response","27","89270","0.0-21.0-1.0","CAN_112","112","","","","","","null","stimuli/bleep.m4a","null","darkgreenblue","pink","[""darkgreenblue"",""pink"",""low nameability""]","left-right","[""darkgreenblue"",""pink"",""low nameability""]","1","low nameability","2","left","audio_feedback","1"
"html-button-response","28","89793","0.0-22.0","CAN_112","112","","","","","","null","<button class=""jspsych-btn""><img src=""stimuli/white_square.png"" style=""width: 200px;height: 200px;""></button>","null","darkgreenblue","pink","[""darkgreenblue"",""pink"",""low nameability""]","left-right","[""darkgreenblue"",""pink"",""low nameability""]","1","low nameability","2","left","iti",""
"html-button-response","29","90432","0.0-23.0","CAN_112","112","","","","","","622","","0","yellow","purple","[""yellow"",""purple"",""high nameability""]","left-right","[""yellow"",""purple"",""high nameability""]","1","high nameability","3","left","trigger",""
"html-button-response","30","91186","0.0-24.0-0.0","CAN_112","112","","","","","","746","<button class=""jspsych-btn""><img src=""stimuli/yellow.png"" style=""width: 200px;height: 200px;""></button>","0","yellow","purple","[""yellow"",""purple"",""high nameability""]","left-right","[""yellow"",""purple"",""high nameability""]","1","high nameability","3","left","response","1"
"html-audio-button-response","31","91394","0.0-24.0-1.0","CAN_112","112","","","","","","null","stimuli/bleep.m4a","null","yellow","purple","[""yellow"",""purple"",""high nameability""]","left-right","[""yellow"",""purple"",""high nameability""]","1","high nameability","3","left","audio_feedback","1"
"html-button-response","32","91919","0.0-25.0","CAN_112","112","","","","","","null","<button class=""jspsych-btn""><img src=""stimuli/white_square.png"" style=""width: 200px;height: 200px;""></button>","null","yellow","purple","[""yellow"",""purple"",""high nameability""]","left-right","[""yellow"",""purple"",""high nameability""]","1","high nameability","3","left","iti",""
"html-button-response","33","92570","0.0-26.0","CAN_112","112","","","","","","628","","0","neonyellow","pink","[""neonyellow"",""pink"",""low nameability""]","left-right","[""neonyellow"",""pink"",""low nameability""]","1","low nameability","4","left","trigger",""
"html-button-response","34","93295","0.0-27.0-0.0","CAN_112","112","","","","","","718","<button class=""jspsych-btn""><img src=""stimuli/neonyellow.png"" style=""width: 200px;height: 200px;""></button>","0","neonyellow","pink","[""neonyellow"",""pink"",""low nameability""]","left-right","[""neonyellow"",""pink"",""low nameability""]","1","low nameability","4","left","response","1"
"html-audio-button-response","35","93502","0.0-27.0-1.0","CAN_112","112","","","","","","null","stimuli/bleep.m4a","null","neonyellow","pink","[""neonyellow"",""pink"",""low nameability""]","left-right","[""neonyellow"",""pink"",""low nameability""]","1","low nameability","4","left","audio_feedback","1"
"html-button-response","36","94021","0.0-28.0","CAN_112","112","","","","","","null","<button class=""jspsych-btn""><img src=""stimuli/white_square.png"" style=""width: 200px;height: 200px;""></button>","null","neonyellow","pink","[""neonyellow"",""pink"",""low nameability""]","left-right","[""neonyellow"",""pink"",""low nameability""]","1","low nameability","4","left","iti",""
"html-button-response","37","94550","0.0-29.0","CAN_112","112","","","","","","515","","0","pink","lightred","[""pink"",""lightred"",""low nameability""]","right-left","[""lightred"",""pink""]","1","low nameability","5","right","trigger",""
"html-button-response","38","95341","0.0-30.0-0.0","CAN_112","112","","","","","","784","<button class=""jspsych-btn""><img src=""stimuli/pink.png"" style=""width: 200px;height: 200px;""></button>","1","pink","lightred","[""pink"",""lightred"",""low nameability""]","right-left","[""lightred"",""pink""]","1","low nameability","5","right","response","1"
"html-audio-button-response","39","95546","0.0-30.0-1.0","CAN_112","112","","","","","","null","stimuli/bleep.m4a","null","pink","lightred","[""pink"",""lightred"",""low nameability""]","right-left","[""lightred"",""pink""]","1","low nameability","5","right","audio_feedback","1"
"html-button-response","40","96071","0.0-31.0","CAN_112","112","","","","","","null","<button class=""jspsych-btn""><img src=""stimuli/white_square.png"" style=""width: 200px;height: 200px;""></button>","null","pink","lightred","[""pink"",""lightred"",""low nameability""]","right-left","[""lightred"",""pink""]","1","low nameability","5","right","iti",""
"html-button-response","41","96586","0.0-32.0","CAN_112","112","","","","","","495","","0","blue","red","[""blue"",""red"",""high nameability""]","right-left","[""red"",""blue""]","1","high nameability","6","right","trigger",""
"html-button-response","42","97322","0.0-33.0-0.0","CAN_112","112","","","","","","726","<button class=""jspsych-btn""><img src=""stimuli/blue.png"" style=""width: 200px;height: 200px;""></button>","1","blue","red","[""blue"",""red"",""high nameability""]","right-left","[""red"",""blue""]","1","high nameability","6","right","response","1"
"html-audio-button-response","43","97529","0.0-33.0-1.0","CAN_112","112","","","","","","null","stimuli/bleep.m4a","null","blue","red","[""blue"",""red"",""high nameability""]","right-left","[""red"",""blue""]","1","high nameability","6","right","audio_feedback","1"
"html-button-response","44","98050","0.0-34.0","CAN_112","112","","","","","","null","<button class=""jspsych-btn""><img src=""stimuli/white_square.png"" style=""width: 200px;height: 200px;""></button>","null","blue","red","[""blue"",""red"",""high nameability""]","right-left","[""red"",""blue""]","1","high nameability","6","right","iti",""
"html-button-response","45","98609","0.0-35.0","CAN_112","112","","","","","","542","","0","yellow","brown","[""yellow"",""brown"",""high nameability""]","right-left","[""brown"",""yellow""]","1","high nameability","7","right","trigger",""
"html-button-response","46","99315","0.0-36.0-0.0","CAN_112","112","","","","","","699","<button class=""jspsych-btn""><img src=""stimuli/yellow.png"" style=""width: 200px;height: 200px;""></button>","1","yellow","brown","[""yellow"",""brown"",""high nameability""]","right-left","[""brown"",""yellow""]","1","high nameability","7","right","response","1"
"html-audio-button-response","47","99528","0.0-36.0-1.0","CAN_112","112","","","","","","null","stimuli/bleep.m4a","null","yellow","brown","[""yellow"",""brown"",""high nameability""]","right-left","[""brown"",""yellow""]","1","high nameability","7","right","audio_feedback","1"
"html-button-response","48","100055","0.0-37.0","CAN_112","112","","","","","","null","<button class=""jspsych-btn""><img src=""stimuli/white_square.png"" style=""width: 200px;height: 200px;""></button>","null","yellow","brown","[""yellow"",""brown"",""high nameability""]","right-left","[""brown"",""yellow""]","1","high nameability","7","right","iti",""
"html-button-response","49","100608","0.0-38.0","CAN_112","112","","","","","","538","","0","brown","orange","[""brown"",""orange"",""high nameability""]","right-left","[""orange"",""brown""]","1","high nameability","8","right","trigger",""
"html-button-response","50","101331","0.0-39.0-0.0","CAN_112","112","","","","","","714","<button class=""jspsych-btn""><img src=""stimuli/brown.png"" style=""width: 200px;height: 200px;""></button>","1","brown","orange","[""brown"",""orange"",""high nameability""]","right-left","[""orange"",""brown""]","1","high nameability","8","right","response","1"
"html-audio-button-response","51","101536","0.0-39.0-1.0","CAN_112","112","","","","","","null","stimuli/bleep.m4a","null","brown","orange","[""brown"",""orange"",""high nameability""]","right-left","[""orange"",""brown""]","1","high nameability","8","right","audio_feedback","1"
"html-button-response","52","102053","0.0-40.0","CAN_112","112","","","","","","null","<button class=""jspsych-btn""><img src=""stimuli/white_square.png"" style=""width: 200px;height: 200px;""></button>","null","brown","orange","[""brown"",""orange"",""high nameability""]","right-left","[""orange"",""brown""]","1","high nameability","8","right","iti",""
"html-button-response","53","102538","0.0-41.0","CAN_112","112","","","","","","461","","0","pink","darkgreenblue","[""pink"",""darkgreenblue"",""low nameability""]","left-right","[""pink"",""darkgreenblue"",""low nameability""]","1","low nameability","9","left","trigger",""
"html-button-response","54","103249","0.0-42.0-0.0","CAN_112","112","","","","","","703","<button class=""jspsych-btn""><img src=""stimuli/pink.png"" style=""width: 200px;height: 200px;""></button>","0","pink","darkgreenblue","[""pink"",""darkgreenblue"",""low nameability""]","left-right","[""pink"",""darkgreenblue"",""low nameability""]","1","low nameability","9","left","response","1"
"html-audio-button-response","55","103457","0.0-42.0-1.0","CAN_112","112","","","","","","null","stimuli/bleep.m4a","null","pink","darkgreenblue","[""pink"",""darkgreenblue"",""low nameability""]","left-right","[""pink"",""darkgreenblue"",""low nameability""]","1","low nameability","9","left","audio_feedback","1"
"html-button-response","56","103980","0.0-43.0","CAN_112","112","","","","","","null","<button class=""jspsych-btn""><img src=""stimuli/white_square.png"" style=""width: 200px;height: 200px;""></button>","null","pink","darkgreenblue","[""pink"",""darkgreenblue"",""low nameability""]","left-right","[""pink"",""darkgreenblue"",""low nameability""]","1","low nameability","9","left","iti",""
"html-button-response","57","104450","0.0-44.0","CAN_112","112","","","","","","454","","0","lightred","mustard","[""lightred"",""mustard"",""low nameability""]","left-right","[""lightred"",""mustard"",""low nameability""]","1","low nameability","10","left","trigger",""
"html-button-response","58","105116","0.0-45.0-0.0","CAN_112","112","","","","","","657","<button class=""jspsych-btn""><img src=""stimuli/lightred.png"" style=""width: 200px;height: 200px;""></button>","0","lightred","mustard","[""lightred"",""mustard"",""low nameability""]","left-right","[""lightred"",""mustard"",""low nameability""]","1","low nameability","10","left","response","1"
"html-audio-button-response","59","105316","0.0-45.0-1.0","CAN_112","112","","","","","","null","stimuli/bleep.m4a","null","lightred","mustard","[""lightred"",""mustard"",""low nameability""]","left-right","[""lightred"",""mustard"",""low nameability""]","1","low nameability","10","left","audio_feedback","1"
"html-button-response","60","105832","0.0-46.0","CAN_112","112","","","","","","null","<button class=""jspsych-btn""><img src=""stimuli/white_square.png"" style=""width: 200px;height: 200px;""></button>","null","lightred","mustard","[""lightred"",""mustard"",""low nameability""]","left-right","[""lightred"",""mustard"",""low nameability""]","1","low nameability","10","left","iti",""
"pavlovia","61","105929","0.0-47.0","CAN_112","112","","","","","","","","","","","","","","","","","","",""
"pavlovia","62","105946","0.0-48.0","CAN_112","112","","","","","","","","","","","","","","","","","","",""
"html-audio-button-response","63","109505","0.0-49.0","CAN_112","112","","","","","","3672","stimuli/tada.m4a","0","","","","","","","","","","",""
"html-button-response","64","111237","0.0-50.0","CAN_112","112","","","","","","1727","","0","","","","","","","","","","",""
"html-button-response","65","112028","0.0-51.0","CAN_112","112","","","","","","783","","0","darkgreenblue","lightred","[""darkgreenblue"",""lightred"",""low nameability""]","right-left","[""lightred"",""darkgreenblue""]","2","low nameability","11","right","trigger",""
"html-button-response","66","112729","0.0-52.0-0.0","CAN_112","112","","","","","","691","<button class=""jspsych-btn""><img src=""stimuli/darkgreenblue.png"" style=""width: 200px;height: 200px;""></button>","1","darkgreenblue","lightred","[""darkgreenblue"",""lightred"",""low nameability""]","right-left","[""lightred"",""darkgreenblue""]","2","low nameability","11","right","response","1"
"html-audio-button-response","67","112936","0.0-52.0-1.0","CAN_112","112","","","","","","null","stimuli/bleep.m4a","null","darkgreenblue","lightred","[""darkgreenblue"",""lightred"",""low nameability""]","right-left","[""lightred"",""darkgreenblue""]","2","low nameability","11","right","audio_feedback","1"
"html-button-response","68","113452","0.0-53.0","CAN_112","112","","","","","","null","<button class=""jspsych-btn""><img src=""stimuli/white_square.png"" style=""width: 200px;height: 200px;""></button>","null","darkgreenblue","lightred","[""darkgreenblue"",""lightred"",""low nameability""]","right-left","[""lightred"",""darkgreenblue""]","2","low nameability","11","right","iti",""
"html-button-response","69","113868","0.0-54.0","CAN_112","112","","","","","","401","","0","purple","orange","[""purple"",""orange"",""high nameability""]","left-right","[""purple"",""orange"",""high nameability""]","2","high nameability","12","left","trigger",""
"html-button-response","70","114548","0.0-55.0-0.0","CAN_112","112","","","","","","673","<button class=""jspsych-btn""><img src=""stimuli/purple.png"" style=""width: 200px;height: 200px;""></button>","0","purple","orange","[""purple"",""orange"",""high nameability""]","left-right","[""purple"",""orange"",""high nameability""]","2","high nameability","12","left","response","1"
"html-audio-button-response","71","114749","0.0-55.0-1.0","CAN_112","112","","","","","","null","stimuli/bleep.m4a","null","purple","orange","[""purple"",""orange"",""high nameability""]","left-right","[""purple"",""orange"",""high nameability""]","2","high nameability","12","left","audio_feedback","1"
"html-button-response","72","115266","0.0-56.0","CAN_112","112","","","","","","null","<button class=""jspsych-btn""><img src=""stimuli/white_square.png"" style=""width: 200px;height: 200px;""></button>","null","purple","orange","[""purple"",""orange"",""high nameability""]","left-right","[""purple"",""orange"",""high nameability""]","2","high nameability","12","left","iti",""
"html-button-response","73","115792","0.0-57.0","CAN_112","112","","","","","","511","","0","purple","blue","[""purple"",""blue"",""high nameability""]","right-left","[""blue"",""purple""]","2","high nameability","13","right","trigger",""
"html-button-response","74","116437","0.0-58.0-0.0","CAN_112","112","","","","","","637","<button class=""jspsych-btn""><img src=""stimuli/purple.png"" style=""width: 200px;height: 200px;""></button>","1","purple","blue","[""purple"",""blue"",""high nameability""]","right-left","[""blue"",""purple""]","2","high nameability","13","right","response","1"
"html-audio-button-response","75","116642","0.0-58.0-1.0","CAN_112","112","","","","","","null","stimuli/bleep.m4a","null","purple","blue","[""purple"",""blue"",""high nameability""]","right-left","[""blue"",""purple""]","2","high nameability","13","right","audio_feedback","1"
"html-button-response","76","117160","0.0-59.0","CAN_112","112","","","","","","null","<button class=""jspsych-btn""><img src=""stimuli/white_square.png"" style=""width: 200px;height: 200px;""></button>","null","purple","blue","[""purple"",""blue"",""high nameability""]","right-left","[""blue"",""purple""]","2","high nameability","13","right","iti",""
"html-button-response","77","117660","0.0-60.0","CAN_112","112","","","","","","482","","0","orange","red","[""orange"",""red"",""high nameability""]","right-left","[""red"",""orange""]","2","high nameability","14","right","trigger",""
"html-button-response","78","118321","0.0-61.0-0.0","CAN_112","112","","","","","","651","<button class=""jspsych-btn""><img src=""stimuli/orange.png"" style=""width: 200px;height: 200px;""></button>","1","orange","red","[""orange"",""red"",""high nameability""]","right-left","[""red"",""orange""]","2","high nameability","14","right","response","1"
"html-audio-button-response","79","118522","0.0-61.0-1.0","CAN_112","112","","","","","","null","stimuli/bleep.m4a","null","orange","red","[""orange"",""red"",""high nameability""]","right-left","[""red"",""orange""]","2","high nameability","14","right","audio_feedback","1"
"html-button-response","80","119039","0.0-62.0","CAN_112","112","","","","","","null","<button class=""jspsych-btn""><img src=""stimuli/white_square.png"" style=""width: 200px;height: 200px;""></button>","null","orange","red","[""orange"",""red"",""high nameability""]","right-left","[""red"",""orange""]","2","high nameability","14","right","iti",""
"html-button-response","81","119565","0.0-63.0","CAN_112","112","","","","","","504","","0","yellow","orange","[""yellow"",""orange"",""high nameability""]","left-right","[""yellow"",""orange"",""high nameability""]","2","high nameability","15","left","trigger",""
"html-button-response","82","120195","0.0-64.0-0.0","CAN_112","112","","","","","","624","<button class=""jspsych-btn""><img src=""stimuli/yellow.png"" style=""width: 200px;height: 200px;""></button>","0","yellow","orange","[""yellow"",""orange"",""high nameability""]","left-right","[""yellow"",""orange"",""high nameability""]","2","high nameability","15","left","response","1"
"html-audio-button-response","83","120398","0.0-64.0-1.0","CAN_112","112","","","","","","null","stimuli/bleep.m4a","null","yellow","orange","[""yellow"",""orange"",""high nameability""]","left-right","[""yellow"",""orange"",""high nameability""]","2","high nameability","15","left","audio_feedback","1"
"html-button-response","84","120914","0.0-65.0","CAN_112","112","","","","","","null","<button class=""jspsych-btn""><img src=""stimuli/white_square.png"" style=""width: 200px;height: 200px;""></button>","null","yellow","orange","[""yellow"",""orange"",""high nameability""]","left-right","[""yellow"",""orange"",""high nameability""]","2","high nameability","15","left","iti",""
"html-button-response","85","121446","0.0-66.0","CAN_112","112","","","","","","510","","0","brown","yellow","[""brown"",""yellow"",""high nameability""]","right-left","[""yellow"",""brown""]","2","high nameability","16","right","trigger",""
"html-button-response","86","122075","0.0-67.0-0.0","CAN_112","112","","","","","","622","<button class=""jspsych-btn""><img src=""stimuli/brown.png"" style=""width: 200px;height: 200px;""></button>","1","brown","yellow","[""brown"",""yellow"",""high nameability""]","right-left","[""yellow"",""brown""]","2","high nameability","16","right","response","1"
"html-audio-button-response","87","122277","0.0-67.0-1.0","CAN_112","112","","","","","","null","stimuli/bleep.m4a","null","brown","yellow","[""brown"",""yellow"",""high nameability""]","right-left","[""yellow"",""brown""]","2","high nameability","16","right","audio_feedback","1"
"html-button-response","88","122799","0.0-68.0","CAN_112","112","","","","","","null","<button class=""jspsych-btn""><img src=""stimuli/white_square.png"" style=""width: 200px;height: 200px;""></button>","null","brown","yellow","[""brown"",""yellow"",""high nameability""]","right-left","[""yellow"",""brown""]","2","high nameability","16","right","iti",""
"html-button-response","89","123317","0.0-69.0","CAN_112","112","","","","","","502","","0","mustard","neonyellow","[""mustard"",""neonyellow"",""low nameability""]","left-right","[""mustard"",""neonyellow"",""low nameability""]","2","low nameability","17","left","trigger",""
"html-button-response","90","123978","0.0-70.0-0.0","CAN_112","112","","","","","","655","<button class=""jspsych-btn""><img src=""stimuli/mustard.png"" style=""width: 200px;height: 200px;""></button>","0","mustard","neonyellow","[""mustard"",""neonyellow"",""low nameability""]","left-right","[""mustard"",""neonyellow"",""low nameability""]","2","low nameability","17","left","response","1"
"html-audio-button-response","91","124182","0.0-70.0-1.0","CAN_112","112","","","","","","null","stimuli/bleep.m4a","null","mustard","neonyellow","[""mustard"",""neonyellow"",""low nameability""]","left-right","[""mustard"",""neonyellow"",""low nameability""]","2","low nameability","17","left","audio_feedback","1"
"html-button-response","92","124707","0.0-71.0","CAN_112","112","","","","","","null","<button class=""jspsych-btn""><img src=""stimuli/white_square.png"" style=""width: 200px;height: 200px;""></button>","null","mustard","neonyellow","[""mustard"",""neonyellow"",""low nameability""]","left-right","[""mustard"",""neonyellow"",""low nameability""]","2","low nameability","17","left","iti",""
"html-button-response","93","125258","0.0-72.0","CAN_112","112","","","","","","533","","0","neonyellow","darkgreenblue","[""neonyellow"",""darkgreenblue"",""low nameability""]","left-right","[""neonyellow"",""darkgreenblue"",""low nameability""]","2","low nameability","18","left","trigger",""
"html-button-response","94","125876","0.0-73.0-0.0","CAN_112","112","","","","","","614","<button class=""jspsych-btn""><img src=""stimuli/neonyellow.png"" style=""width: 200px;height: 200px;""></button>","0","neonyellow","darkgreenblue","[""neonyellow"",""darkgreenblue"",""low nameability""]","left-right","[""neonyellow"",""darkgreenblue"",""low nameability""]","2","low nameability","18","left","response","1"
"html-audio-button-response","95","126078","0.0-73.0-1.0","CAN_112","112","","","","","","null","stimuli/bleep.m4a","null","neonyellow","darkgreenblue","[""neonyellow"",""darkgreenblue"",""low nameability""]","left-right","[""neonyellow"",""darkgreenblue"",""low nameability""]","2","low nameability","18","left","audio_feedback","1"
"html-button-response","96","126598","0.0-74.0","CAN_112","112","","","","","","null","<button class=""jspsych-btn""><img src=""stimuli/white_square.png"" style=""width: 200px;height: 200px;""></button>","null","neonyellow","darkgreenblue","[""neonyellow"",""darkgreenblue"",""low nameability""]","left-right","[""neonyellow"",""darkgreenblue"",""low nameability""]","2","low nameability","18","left","iti",""
"html-button-response","97","127182","0.0-75.0","CAN_112","112","","","","","","570","","0","orange","brown","[""orange"",""brown"",""high nameability""]","right-left","[""brown"",""orange""]","2","high nameability","19","right","trigger",""
"html-button-response","98","127746","0.0-76.0-0.0","CAN_112","112","","","","","","557","<button class=""jspsych-btn""><img src=""stimuli/orange.png"" style=""width: 200px;height: 200px;""></button>","1","orange","brown","[""orange"",""brown"",""high nameability""]","right-left","[""brown"",""orange""]","2","high nameability","19","right","response","1"
"html-audio-button-response","99","127950","0.0-76.0-1.0","CAN_112","112","","","","","","null","stimuli/bleep.m4a","null","orange","brown","[""orange"",""brown"",""high nameability""]","right-left","[""brown"",""orange""]","2","high nameability","19","right","audio_feedback","1"
"html-button-response","100","128470","0.0-77.0","CAN_112","112","","","","","","null","<button class=""jspsych-btn""><img src=""stimuli/white_square.png"" style=""width: 200px;height: 200px;""></button>","null","orange","brown","[""orange"",""brown"",""high nameability""]","right-left","[""brown"",""orange""]","2","high nameability","19","right","iti",""
"html-button-response","101","128937","0.0-78.0","CAN_112","112","","","","","","452","","0","turquoise","darkgreenblue","[""turquoise"",""darkgreenblue"",""low nameability""]","right-left","[""darkgreenblue"",""turquoise""]","2","low nameability","20","right","trigger",""
"html-button-response","102","129550","0.0-79.0-0.0","CAN_112","112","","","","","","603","<button class=""jspsych-btn""><img src=""stimuli/turquoise.png"" style=""width: 200px;height: 200px;""></button>","1","turquoise","darkgreenblue","[""turquoise"",""darkgreenblue"",""low nameability""]","right-left","[""darkgreenblue"",""turquoise""]","2","low nameability","20","right","response","1"
"html-audio-button-response","103","129754","0.0-79.0-1.0","CAN_112","112","","","","","","null","stimuli/bleep.m4a","null","turquoise","darkgreenblue","[""turquoise"",""darkgreenblue"",""low nameability""]","right-left","[""darkgreenblue"",""turquoise""]","2","low nameability","20","right","audio_feedback","1"
"html-button-response","104","130276","0.0-80.0","CAN_112","112","","","","","","null","<button class=""jspsych-btn""><img src=""stimuli/white_square.png"" style=""width: 200px;height: 200px;""></button>","null","turquoise","darkgreenblue","[""turquoise"",""darkgreenblue"",""low nameability""]","right-left","[""darkgreenblue"",""turquoise""]","2","low nameability","20","right","iti",""
"pavlovia","105","130337","0.0-81.0","CAN_112","112","","","","","","","","","","","","","","","","","","",""
"pavlovia","106","130349","0.0-82.0","CAN_112","112","","","","","","","","","","","","","","","","","","",""
"html-audio-button-response","107","132365","0.0-83.0","CAN_112","112","","","","","","2088","stimuli/tada.m4a","0","","","","","","","","","","",""
"html-button-response","108","133272","0.0-84.0","CAN_112","112","","","","","","900","","0","","","","","","","","","","",""
"html-button-response","109","134067","0.0-85.0","CAN_112","112","","","","","","787","","0","pink","turquoise","[""pink"",""turquoise"",""low nameability""]","left-right","[""pink"",""turquoise"",""low nameability""]","3","low nameability","21","left","trigger",""
"html-button-response","110","134787","0.0-86.0-0.0","CAN_112","112","","","","","","711","<button class=""jspsych-btn""><img src=""stimuli/pink.png"" style=""width: 200px;height: 200px;""></button>","0","pink","turquoise","[""pink"",""turquoise"",""low nameability""]","left-right","[""pink"",""turquoise"",""low nameability""]","3","low nameability","21","left","response","1"
"html-audio-button-response","111","134990","0.0-86.0-1.0","CAN_112","112","","","","","","null","stimuli/bleep.m4a","null","pink","turquoise","[""pink"",""turquoise"",""low nameability""]","left-right","[""pink"",""turquoise"",""low nameability""]","3","low nameability","21","left","audio_feedback","1"
"html-button-response","112","135507","0.0-87.0","CAN_112","112","","","","","","null","<button class=""jspsych-btn""><img src=""stimuli/white_square.png"" style=""width: 200px;height: 200px;""></button>","null","pink","turquoise","[""pink"",""turquoise"",""low nameability""]","left-right","[""pink"",""turquoise"",""low nameability""]","3","low nameability","21","left","iti",""
"html-button-response","113","135977","0.0-88.0","CAN_112","112","","","","","","449","","0","lightred","pink","[""lightred"",""pink"",""low nameability""]","right-left","[""pink"",""lightred""]","3","low nameability","22","right","trigger",""
"html-button-response","114","136620","0.0-89.0-0.0","CAN_112","112","","","","","","635","<button class=""jspsych-btn""><img src=""stimuli/lightred.png"" style=""width: 200px;height: 200px;""></button>","1","lightred","pink","[""lightred"",""pink"",""low nameability""]","right-left","[""pink"",""lightred""]","3","low nameability","22","right","response","1"
"html-audio-button-response","115","136826","0.0-89.0-1.0","CAN_112","112","","","","","","null","stimuli/bleep.m4a","null","lightred","pink","[""lightred"",""pink"",""low nameability""]","right-left","[""pink"",""lightred""]","3","low nameability","22","right","audio_feedback","1"
"html-button-response","116","137346","0.0-90.0","CAN_112","112","","","","","","null","<button class=""jspsych-btn""><img src=""stimuli/white_square.png"" style=""width: 200px;height: 200px;""></button>","null","lightred","pink","[""lightred"",""pink"",""low nameability""]","right-left","[""pink"",""lightred""]","3","low nameability","22","right","iti",""
"html-button-response","117","137804","0.0-91.0","CAN_112","112","","","","","","441","","0","neonyellow","mustard","[""neonyellow"",""mustard"",""low nameability""]","right-left","[""mustard"",""neonyellow""]","3","low nameability","23","right","trigger",""
"html-button-response","118","138437","0.0-92.0-0.0","CAN_112","112","","","","","","625","<button class=""jspsych-btn""><img src=""stimuli/neonyellow.png"" style=""width: 200px;height: 200px;""></button>","1","neonyellow","mustard","[""neonyellow"",""mustard"",""low nameability""]","right-left","[""mustard"",""neonyellow""]","3","low nameability","23","right","response","1"
"html-audio-button-response","119","138644","0.0-92.0-1.0","CAN_112","112","","","","","","null","stimuli/bleep.m4a","null","neonyellow","mustard","[""neonyellow"",""mustard"",""low nameability""]","right-left","[""mustard"",""neonyellow""]","3","low nameability","23","right","audio_feedback","1"
"html-button-response","120","139169","0.0-93.0","CAN_112","112","","","","","","null","<button class=""jspsych-btn""><img src=""stimuli/white_square.png"" style=""width: 200px;height: 200px;""></button>","null","neonyellow","mustard","[""neonyellow"",""mustard"",""low nameability""]","right-left","[""mustard"",""neonyellow""]","3","low nameability","23","right","iti",""
"html-button-response","121","139651","0.0-94.0","CAN_112","112","","","","","","463","","0","pink","neonyellow","[""pink"",""neonyellow"",""low nameability""]","left-right","[""pink"",""neonyellow"",""low nameability""]","3","low nameability","24","left","trigger",""
"html-button-response","122","140312","0.0-95.0-0.0","CAN_112","112","","","","","","650","<button class=""jspsych-btn""><img src=""stimuli/pink.png"" style=""width: 200px;height: 200px;""></button>","0","pink","neonyellow","[""pink"",""neonyellow"",""low nameability""]","left-right","[""pink"",""neonyellow"",""low nameability""]","3","low nameability","24","left","response","1"
"html-audio-button-response","123","140513","0.0-95.0-1.0","CAN_112","112","","","","","","null","stimuli/bleep.m4a","null","pink","neonyellow","[""pink"",""neonyellow"",""low nameability""]","left-right","[""pink"",""neonyellow"",""low nameability""]","3","low nameability","24","left","audio_feedback","1"
"html-button-response","124","141036","0.0-96.0","CAN_112","112","","","","","","null","<button class=""jspsych-btn""><img src=""stimuli/white_square.png"" style=""width: 200px;height: 200px;""></button>","null","pink","neonyellow","[""pink"",""neonyellow"",""low nameability""]","left-right","[""pink"",""neonyellow"",""low nameability""]","3","low nameability","24","left","iti",""
"html-button-response","125","141486","0.0-97.0","CAN_112","112","","","","","","406","","0","blue","purple","[""blue"",""purple"",""high nameability""]","right-left","[""purple"",""blue""]","3","high nameability","25","right","trigger",""
"html-button-response","126","142054","0.0-98.0-0.0","CAN_112","112","","","","","","553","<button class=""jspsych-btn""><img src=""stimuli/blue.png"" style=""width: 200px;height: 200px;""></button>","1","blue","purple","[""blue"",""purple"",""high nameability""]","right-left","[""purple"",""blue""]","3","high nameability","25","right","response","1"
"html-audio-button-response","127","142271","0.0-98.0-1.0","CAN_112","112","","","","","","null","stimuli/bleep.m4a","null","blue","purple","[""blue"",""purple"",""high nameability""]","right-left","[""purple"",""blue""]","3","high nameability","25","right","audio_feedback","1"
"html-button-response","128","142811","0.0-99.0","CAN_112","112","","","","","","null","<button class=""jspsych-btn""><img src=""stimuli/white_square.png"" style=""width: 200px;height: 200px;""></button>","null","blue","purple","[""blue"",""purple"",""high nameability""]","right-left","[""purple"",""blue""]","3","high nameability","25","right","iti",""
"html-button-response","129","143257","0.0-100.0","CAN_112","112","","","","","","422","","0","brown","red","[""brown"",""red"",""high nameability""]","right-left","[""red"",""brown""]","3","high nameability","26","right","trigger",""
"html-button-response","130","143871","0.0-101.0-0.0","CAN_112","112","","","","","","603","<button class=""jspsych-btn""><img src=""stimuli/brown.png"" style=""width: 200px;height: 200px;""></button>","1","brown","red","[""brown"",""red"",""high nameability""]","right-left","[""red"",""brown""]","3","high nameability","26","right","response","1"
"html-audio-button-response","131","144073","0.0-101.0-1.0","CAN_112","112","","","","","","null","stimuli/bleep.m4a","null","brown","red","[""brown"",""red"",""high nameability""]","right-left","[""red"",""brown""]","3","high nameability","26","right","audio_feedback","1"
"html-button-response","132","144592","0.0-102.0","CAN_112","112","","","","","","null","<button class=""jspsych-btn""><img src=""stimuli/white_square.png"" style=""width: 200px;height: 200px;""></button>","null","brown","red","[""brown"",""red"",""high nameability""]","right-left","[""red"",""brown""]","3","high nameability","26","right","iti",""
"html-button-response","133","145026","0.0-103.0","CAN_112","112","","","","","","411","","0","turquoise","pink","[""turquoise"",""pink"",""low nameability""]","left-right","[""turquoise"",""pink"",""low nameability""]","3","low nameability","27","left","trigger",""
"html-button-response","134","145949","0.0-104.0-0.0","CAN_112","112","","","","","","908","<button class=""jspsych-btn""><img src=""stimuli/turquoise.png"" style=""width: 200px;height: 200px;""></button>","0","turquoise","pink","[""turquoise"",""pink"",""low nameability""]","left-right","[""turquoise"",""pink"",""low nameability""]","3","low nameability","27","left","response","1"
"html-audio-button-response","135","146168","0.0-104.0-1.0","CAN_112","112","","","","","","null","stimuli/bleep.m4a","null","turquoise","pink","[""turquoise"",""pink"",""low nameability""]","left-right","[""turquoise"",""pink"",""low nameability""]","3","low nameability","27","left","audio_feedback","1"
"html-button-response","136","146705","0.0-105.0","CAN_112","112","","","","","","null","<button class=""jspsych-btn""><img src=""stimuli/white_square.png"" style=""width: 200px;height: 200px;""></button>","null","turquoise","pink","[""turquoise"",""pink"",""low nameability""]","left-right","[""turquoise"",""pink"",""low nameability""]","3","low nameability","27","left","iti",""
"html-button-response","137","147288","0.0-106.0","CAN_112","112","","","","","","561","","0","neonyellow","lightred","[""neonyellow"",""lightred"",""low nameability""]","right-left","[""lightred"",""neonyellow""]","3","low nameability","28","right","trigger",""
"html-button-response","138","147860","0.0-107.0-0.0","CAN_112","112","","","","","","560","<button class=""jspsych-btn""><img src=""stimuli/neonyellow.png"" style=""width: 200px;height: 200px;""></button>","1","neonyellow","lightred","[""neonyellow"",""lightred"",""low nameability""]","right-left","[""lightred"",""neonyellow""]","3","low nameability","28","right","response","1"
"html-audio-button-response","139","148070","0.0-107.0-1.0","CAN_112","112","","","","","","null","stimuli/bleep.m4a","null","neonyellow","lightred","[""neonyellow"",""lightred"",""low nameability""]","right-left","[""lightred"",""neonyellow""]","3","low nameability","28","right","audio_feedback","1"
"html-button-response","140","148588","0.0-108.0","CAN_112","112","","","","","","null","<button class=""jspsych-btn""><img src=""stimuli/white_square.png"" style=""width: 200px;height: 200px;""></button>","null","neonyellow","lightred","[""neonyellow"",""lightred"",""low nameability""]","right-left","[""lightred"",""neonyellow""]","3","low nameability","28","right","iti",""
"html-button-response","141","149197","0.0-109.0","CAN_112","112","","","","","","593","","0","purple","red","[""purple"",""red"",""high nameability""]","left-right","[""purple"",""red"",""high nameability""]","3","high nameability","29","left","trigger",""
"html-button-response","142","149813","0.0-110.0-0.0","CAN_112","112","","","","","","606","<button class=""jspsych-btn""><img src=""stimuli/purple.png"" style=""width: 200px;height: 200px;""></button>","0","purple","red","[""purple"",""red"",""high nameability""]","left-right","[""purple"",""red"",""high nameability""]","3","high nameability","29","left","response","1"
"html-audio-button-response","143","150021","0.0-110.0-1.0","CAN_112","112","","","","","","null","stimuli/bleep.m4a","null","purple","red","[""purple"",""red"",""high nameability""]","left-right","[""purple"",""red"",""high nameability""]","3","high nameability","29","left","audio_feedback","1"
"html-button-response","144","150547","0.0-111.0","CAN_112","112","","","","","","null","<button class=""jspsych-btn""><img src=""stimuli/white_square.png"" style=""width: 200px;height: 200px;""></button>","null","purple","red","[""purple"",""red"",""high nameability""]","left-right","[""purple"",""red"",""high nameability""]","3","high nameability","29","left","iti",""
"html-button-response","145","151164","0.0-112.0","CAN_112","112","","","","","","601","","0","darkgreenblue","neonyellow","[""darkgreenblue"",""neonyellow"",""low nameability""]","left-right","[""darkgreenblue"",""neonyellow"",""low nameability""]","3","low nameability","30","left","trigger",""
"html-button-response","146","151854","0.0-113.0-0.0","CAN_112","112","","","","","","679","<button class=""jspsych-btn""><img src=""stimuli/darkgreenblue.png"" style=""width: 200px;height: 200px;""></button>","0","darkgreenblue","neonyellow","[""darkgreenblue"",""neonyellow"",""low nameability""]","left-right","[""darkgreenblue"",""neonyellow"",""low nameability""]","3","low nameability","30","left","response","1"
"html-audio-button-response","147","152064","0.0-113.0-1.0","CAN_112","112","","","","","","null","stimuli/bleep.m4a","null","darkgreenblue","neonyellow","[""darkgreenblue"",""neonyellow"",""low nameability""]","left-right","[""darkgreenblue"",""neonyellow"",""low nameability""]","3","low nameability","30","left","audio_feedback","1"
"html-button-response","148","152585","0.0-114.0","CAN_112","112","","","","","","null","<button class=""jspsych-btn""><img src=""stimuli/white_square.png"" style=""width: 200px;height: 200px;""></button>","null","darkgreenblue","neonyellow","[""darkgreenblue"",""neonyellow"",""low nameability""]","left-right","[""darkgreenblue"",""neonyellow"",""low nameability""]","3","low nameability","30","left","iti",""
"pavlovia","149","152677","0.0-115.0","CAN_112","112","","","","","","","","","","","","","","","","","","",""
"pavlovia","150","152693","0.0-116.0","CAN_112","112","","","","","","","","","","","","","","","","","","",""
"html-audio-button-response","151","154244","0.0-117.0","CAN_112","112","","","","","","1656","stimuli/tada.m4a","0","","","","","","","","","","",""
"html-button-response","152","155763","0.0-118.0","CAN_112","112","","","","","","1513","","0","","","","","","","","","","",""
"html-button-response","153","156580","0.0-119.0","CAN_112","112","","","","","","809","","0","brown","purple","[""brown"",""purple"",""high nameability""]","right-left","[""purple"",""brown""]","4","high nameability","31","right","trigger",""
"html-button-response","154","157177","0.0-120.0-0.0","CAN_112","112","","","","","","589","<button class=""jspsych-btn""><img src=""stimuli/brown.png"" style=""width: 200px;height: 200px;""></button>","1","brown","purple","[""brown"",""purple"",""high nameability""]","right-left","[""purple"",""brown""]","4","high nameability","31","right","response","1"
"html-audio-button-response","155","157382","0.0-120.0-1.0","CAN_112","112","","","","","","null","stimuli/bleep.m4a","null","brown","purple","[""brown"",""purple"",""high nameability""]","right-left","[""purple"",""brown""]","4","high nameability","31","right","audio_feedback","1"
"html-button-response","156","157910","0.0-121.0","CAN_112","112","","","","","","null","<button class=""jspsych-btn""><img src=""stimuli/white_square.png"" style=""width: 200px;height: 200px;""></button>","null","brown","purple","[""brown"",""purple"",""high nameability""]","right-left","[""purple"",""brown""]","4","high nameability","31","right","iti",""
"html-button-response","157","158459","0.0-122.0","CAN_112","112","","","","","","528","","0","red","yellow","[""red"",""yellow"",""high nameability""]","right-left","[""yellow"",""red""]","4","high nameability","32","right","trigger",""
"html-button-response","158","159032","0.0-123.0-0.0","CAN_112","112","","","","","","566","<button class=""jspsych-btn""><img src=""stimuli/red.png"" style=""width: 200px;height: 200px;""></button>","1","red","yellow","[""red"",""yellow"",""high nameability""]","right-left","[""yellow"",""red""]","4","high nameability","32","right","response","1"
"html-audio-button-response","159","159238","0.0-123.0-1.0","CAN_112","112","","","","","","null","stimuli/bleep.m4a","null","red","yellow","[""red"",""yellow"",""high nameability""]","right-left","[""yellow"",""red""]","4","high nameability","32","right","audio_feedback","1"
"html-button-response","160","159762","0.0-124.0","CAN_112","112","","","","","","null","<button class=""jspsych-btn""><img src=""stimuli/white_square.png"" style=""width: 200px;height: 200px;""></button>","null","red","yellow","[""red"",""yellow"",""high nameability""]","right-left","[""yellow"",""red""]","4","high nameability","32","right","iti",""
"html-button-response","161","160287","0.0-125.0","CAN_112","112","","","","","","507","","0","red","brown","[""red"",""brown"",""high nameability""]","right-left","[""brown"",""red""]","4","high nameability","33","right","trigger",""
"html-button-response","162","160825","0.0-126.0-0.0","CAN_112","112","","","","","","532","<button class=""jspsych-btn""><img src=""stimuli/red.png"" style=""width: 200px;height: 200px;""></button>","1","red","brown","[""red"",""brown"",""high nameability""]","right-left","[""brown"",""red""]","4","high nameability","33","right","response","1"
"html-audio-button-response","163","161032","0.0-126.0-1.0","CAN_112","112","","","","","","null","stimuli/bleep.m4a","null","red","brown","[""red"",""brown"",""high nameability""]","right-left","[""brown"",""red""]","4","high nameability","33","right","audio_feedback","1"
"html-button-response","164","161556","0.0-127.0","CAN_112","112","","","","","","null","<button class=""jspsych-btn""><img src=""stimuli/white_square.png"" style=""width: 200px;height: 200px;""></button>","null","red","brown","[""red"",""brown"",""high nameability""]","right-left","[""brown"",""red""]","4","high nameability","33","right","iti",""
"html-button-response","165","162164","0.0-128.0","CAN_112","112","","","","","","581","","0","purple","yellow","[""purple"",""yellow"",""high nameability""]","left-right","[""purple"",""yellow"",""high nameability""]","4","high nameability","34","left","trigger",""
"html-button-response","166","162807","0.0-129.0-0.0","CAN_112","112","","","","","","635","<button class=""jspsych-btn""><img src=""stimuli/purple.png"" style=""width: 200px;height: 200px;""></button>","0","purple","yellow","[""purple"",""yellow"",""high nameability""]","left-right","[""purple"",""yellow"",""high nameability""]","4","high nameability","34","left","response","1"
"html-audio-button-response","167","163009","0.0-129.0-1.0","CAN_112","112","","","","","","null","stimuli/bleep.m4a","null","purple","yellow","[""purple"",""yellow"",""high nameability""]","left-right","[""purple"",""yellow"",""high nameability""]","4","high nameability","34","left","audio_feedback","1"
"html-button-response","168","163527","0.0-130.0","CAN_112","112","","","","","","null","<button class=""jspsych-btn""><img src=""stimuli/white_square.png"" style=""width: 200px;height: 200px;""></button>","null","purple","yellow","[""purple"",""yellow"",""high nameability""]","left-right","[""purple"",""yellow"",""high nameability""]","4","high nameability","34","left","iti",""
"html-button-response","169","164301","0.0-131.0","CAN_112","112","","","","","","760","","0","brown","blue","[""brown"",""blue"",""high nameability""]","right-left","[""blue"",""brown""]","4","high nameability","35","right","trigger",""
"html-button-response","170","164831","0.0-132.0-0.0","CAN_112","112","","","","","","522","<button class=""jspsych-btn""><img src=""stimuli/brown.png"" style=""width: 200px;height: 200px;""></button>","1","brown","blue","[""brown"",""blue"",""high nameability""]","right-left","[""blue"",""brown""]","4","high nameability","35","right","response","1"
"html-audio-button-response","171","165040","0.0-132.0-1.0","CAN_112","112","","","","","","null","stimuli/bleep.m4a","null","brown","blue","[""brown"",""blue"",""high nameability""]","right-left","[""blue"",""brown""]","4","high nameability","35","right","audio_feedback","1"
"html-button-response","172","165557","0.0-133.0","CAN_112","112","","","","","","null","<button class=""jspsych-btn""><img src=""stimuli/white_square.png"" style=""width: 200px;height: 200px;""></button>","null","brown","blue","[""brown"",""blue"",""high nameability""]","right-left","[""blue"",""brown""]","4","high nameability","35","right","iti",""
"html-button-response","173","166134","0.0-134.0","CAN_112","112","","","","","","559","","0","purple","brown","[""purple"",""brown"",""high nameability""]","left-right","[""purple"",""brown"",""high nameability""]","4","high nameability","36","left","trigger",""
"html-button-response","174","166703","0.0-135.0-0.0","CAN_112","112","","","","","","561","<button class=""jspsych-btn""><img src=""stimuli/purple.png"" style=""width: 200px;height: 200px;""></button>","0","purple","brown","[""purple"",""brown"",""high nameability""]","left-right","[""purple"",""brown"",""high nameability""]","4","high nameability","36","left","response","1"
"html-audio-button-response","175","166912","0.0-135.0-1.0","CAN_112","112","","","","","","null","stimuli/bleep.m4a","null","purple","brown","[""purple"",""brown"",""high nameability""]","left-right","[""purple"",""brown"",""high nameability""]","4","high nameability","36","left","audio_feedback","1"
"html-button-response","176","167429","0.0-136.0","CAN_112","112","","","","","","null","<button class=""jspsych-btn""><img src=""stimuli/white_square.png"" style=""width: 200px;height: 200px;""></button>","null","purple","brown","[""purple"",""brown"",""high nameability""]","left-right","[""purple"",""brown"",""high nameability""]","4","high nameability","36","left","iti",""
"html-button-response","177","167968","0.0-137.0","CAN_112","112","","","","","","521","","0","red","blue","[""red"",""blue"",""high nameability""]","left-right","[""red"",""blue"",""high nameability""]","4","high nameability","37","left","trigger",""
"html-button-response","178","168614","0.0-138.0-0.0","CAN_112","112","","","","","","642","<button class=""jspsych-btn""><img src=""stimuli/red.png"" style=""width: 200px;height: 200px;""></button>","0","red","blue","[""red"",""blue"",""high nameability""]","left-right","[""red"",""blue"",""high nameability""]","4","high nameability","37","left","response","1"
"html-audio-button-response","179","168825","0.0-138.0-1.0","CAN_112","112","","","","","","null","stimuli/bleep.m4a","null","red","blue","[""red"",""blue"",""high nameability""]","left-right","[""red"",""blue"",""high nameability""]","4","high nameability","37","left","audio_feedback","1"
"html-button-response","180","169348","0.0-139.0","CAN_112","112","","","","","","null","<button class=""jspsych-btn""><img src=""stimuli/white_square.png"" style=""width: 200px;height: 200px;""></button>","null","red","blue","[""red"",""blue"",""high nameability""]","left-right","[""red"",""blue"",""high nameability""]","4","high nameability","37","left","iti",""
"html-button-response","181","169864","0.0-140.0","CAN_112","112","","","","","","501","","0","mustard","pink","[""mustard"",""pink"",""low nameability""]","right-left","[""pink"",""mustard""]","4","low nameability","38","right","trigger",""
"html-button-response","182","170421","0.0-141.0-0.0","CAN_112","112","","","","","","548","<button class=""jspsych-btn""><img src=""stimuli/mustard.png"" style=""width: 200px;height: 200px;""></button>","1","mustard","pink","[""mustard"",""pink"",""low nameability""]","right-left","[""pink"",""mustard""]","4","low nameability","38","right","response","1"
"html-audio-button-response","183","170627","0.0-141.0-1.0","CAN_112","112","","","","","","null","stimuli/bleep.m4a","null","mustard","pink","[""mustard"",""pink"",""low nameability""]","right-left","[""pink"",""mustard""]","4","low nameability","38","right","audio_feedback","1"
"html-button-response","184","171150","0.0-142.0","CAN_112","112","","","","","","null","<button class=""jspsych-btn""><img src=""stimuli/white_square.png"" style=""width: 200px;height: 200px;""></button>","null","mustard","pink","[""mustard"",""pink"",""low nameability""]","right-left","[""pink"",""mustard""]","4","low nameability","38","right","iti",""
"html-button-response","185","171676","0.0-143.0","CAN_112","112","","","","","","509","","0","red","orange","[""red"",""orange"",""high nameability""]","left-right","[""red"",""orange"",""high nameability""]","4","high nameability","39","left","trigger",""
"html-button-response","186","172288","0.0-144.0-0.0","CAN_112","112","","","","","","603","<button class=""jspsych-btn""><img src=""stimuli/red.png"" style=""width: 200px;height: 200px;""></button>","0","red","orange","[""red"",""orange"",""high nameability""]","left-right","[""red"",""orange"",""high nameability""]","4","high nameability","39","left","response","1"
"html-audio-button-response","187","172491","0.0-144.0-1.0","CAN_112","112","","","","","","null","stimuli/bleep.m4a","null","red","orange","[""red"",""orange"",""high nameability""]","left-right","[""red"",""orange"",""high nameability""]","4","high nameability","39","left","audio_feedback","1"
"html-button-response","188","173010","0.0-145.0","CAN_112","112","","","","","","null","<button class=""jspsych-btn""><img src=""stimuli/white_square.png"" style=""width: 200px;height: 200px;""></button>","null","red","orange","[""red"",""orange"",""high nameability""]","left-right","[""red"",""orange"",""high nameability""]","4","high nameability","39","left","iti",""
"html-button-response","189","173518","0.0-146.0","CAN_112","112","","","","","","494","","0","mustard","darkgreenblue","[""mustard"",""darkgreenblue"",""low nameability""]","left-right","[""mustard"",""darkgreenblue"",""low nameability""]","4","low nameability","40","left","trigger",""
"html-button-response","190","174129","0.0-147.0-0.0","CAN_112","112","","","","","","600","<button class=""jspsych-btn""><img src=""stimuli/mustard.png"" style=""width: 200px;height: 200px;""></button>","0","mustard","darkgreenblue","[""mustard"",""darkgreenblue"",""low nameability""]","left-right","[""mustard"",""darkgreenblue"",""low nameability""]","4","low nameability","40","left","response","1"
"html-audio-button-response","191","174329","0.0-147.0-1.0","CAN_112","112","","","","","","null","stimuli/bleep.m4a","null","mustard","darkgreenblue","[""mustard"",""darkgreenblue"",""low nameability""]","left-right","[""mustard"",""darkgreenblue"",""low nameability""]","4","low nameability","40","left","audio_feedback","1"
"html-button-response","192","174848","0.0-148.0","CAN_112","112","","","","","","null","<button class=""jspsych-btn""><img src=""stimuli/white_square.png"" style=""width: 200px;height: 200px;""></button>","null","mustard","darkgreenblue","[""mustard"",""darkgreenblue"",""low nameability""]","left-right","[""mustard"",""darkgreenblue"",""low nameability""]","4","low nameability","40","left","iti",""
"pavlovia","193","174915","0.0-149.0","CAN_112","112","","","","","","","","","","","","","","","","","","",""
"pavlovia","194","174924","0.0-150.0","CAN_112","112","","","","","","","","","","","","","","","","","","",""
"html-audio-button-response","195","176727","0.0-151.0","CAN_112","112","","","","","","1877","stimuli/tada.m4a","0","","","","","","","","","","",""
"html-button-response","196","178022","0.0-152.0","CAN_112","112","","","","","","1290","","0","","","","","","","","","","",""
"html-button-response","197","178650","0.0-153.0","CAN_112","112","","","","","","620","","0","orange","purple","[""orange"",""purple"",""high nameability""]","left-right","[""orange"",""purple"",""high nameability""]","5","high nameability","41","left","trigger",""
"html-button-response","198","179258","0.0-154.0-0.0","CAN_112","112","","","","","","600","<button class=""jspsych-btn""><img src=""stimuli/orange.png"" style=""width: 200px;height: 200px;""></button>","0","orange","purple","[""orange"",""purple"",""high nameability""]","left-right","[""orange"",""purple"",""high nameability""]","5","high nameability","41","left","response","1"
"html-audio-button-response","199","179460","0.0-154.0-1.0","CAN_112","112","","","","","","null","stimuli/bleep.m4a","null","orange","purple","[""orange"",""purple"",""high nameability""]","left-right","[""orange"",""purple"",""high nameability""]","5","high nameability","41","left","audio_feedback","1"
"html-button-response","200","179997","0.0-155.0","CAN_112","112","","","","","","null","<button class=""jspsych-btn""><img src=""stimuli/white_square.png"" style=""width: 200px;height: 200px;""></button>","null","orange","purple","[""orange"",""purple"",""high nameability""]","left-right","[""orange"",""purple"",""high nameability""]","5","high nameability","41","left","iti",""
"html-button-response","201","180397","0.0-156.0","CAN_112","112","","","","","","395","","0","lightred","neonyellow","[""lightred"",""neonyellow"",""low nameability""]","right-left","[""neonyellow"",""lightred""]","5","low nameability","42","right","trigger",""
"html-button-response","202","180973","0.0-157.0-0.0","CAN_112","112","","","","","","568","<button class=""jspsych-btn""><img src=""stimuli/lightred.png"" style=""width: 200px;height: 200px;""></button>","1","lightred","neonyellow","[""lightred"",""neonyellow"",""low nameability""]","right-left","[""neonyellow"",""lightred""]","5","low nameability","42","right","response","1"
"html-audio-button-response","203","181173","0.0-157.0-1.0","CAN_112","112","","","","","","null","stimuli/bleep.m4a","null","lightred","neonyellow","[""lightred"",""neonyellow"",""low nameability""]","right-left","[""neonyellow"",""lightred""]","5","low nameability","42","right","audio_feedback","1"
"html-button-response","204","181694","0.0-158.0","CAN_112","112","","","","","","null","<button class=""jspsych-btn""><img src=""stimuli/white_square.png"" style=""width: 200px;height: 200px;""></button>","null","lightred","neonyellow","[""lightred"",""neonyellow"",""low nameability""]","right-left","[""neonyellow"",""lightred""]","5","low nameability","42","right","iti",""
"html-button-response","205","182147","0.0-159.0","CAN_112","112","","","","","","437","","0","neonyellow","turquoise","[""neonyellow"",""turquoise"",""low nameability""]","right-left","[""turquoise"",""neonyellow""]","5","low nameability","43","right","trigger",""
"html-button-response","206","182746","0.0-160.0-0.0","CAN_112","112","","","","","","590","<button class=""jspsych-btn""><img src=""stimuli/neonyellow.png"" style=""width: 200px;height: 200px;""></button>","1","neonyellow","turquoise","[""neonyellow"",""turquoise"",""low nameability""]","right-left","[""turquoise"",""neonyellow""]","5","low nameability","43","right","response","1"
"html-audio-button-response","207","182950","0.0-160.0-1.0","CAN_112","112","","","","","","null","stimuli/bleep.m4a","null","neonyellow","turquoise","[""neonyellow"",""turquoise"",""low nameability""]","right-left","[""turquoise"",""neonyellow""]","5","low nameability","43","right","audio_feedback","1"
"html-button-response","208","183474","0.0-161.0","CAN_112","112","","","","","","null","<button class=""jspsych-btn""><img src=""stimuli/white_square.png"" style=""width: 200px;height: 200px;""></button>","null","neonyellow","turquoise","[""neonyellow"",""turquoise"",""low nameability""]","right-left","[""turquoise"",""neonyellow""]","5","low nameability","43","right","iti",""
"html-button-response","209","183925","0.0-162.0","CAN_112","112","","","","","","435","","0","darkgreenblue","mustard","[""darkgreenblue"",""mustard"",""low nameability""]","left-right","[""darkgreenblue"",""mustard"",""low nameability""]","5","low nameability","44","left","trigger",""
"html-button-response","210","184597","0.0-163.0-0.0","CAN_112","112","","","","","","663","<button class=""jspsych-btn""><img src=""stimuli/darkgreenblue.png"" style=""width: 200px;height: 200px;""></button>","0","darkgreenblue","mustard","[""darkgreenblue"",""mustard"",""low nameability""]","left-right","[""darkgreenblue"",""mustard"",""low nameability""]","5","low nameability","44","left","response","1"
"html-audio-button-response","211","184803","0.0-163.0-1.0","CAN_112","112","","","","","","null","stimuli/bleep.m4a","null","darkgreenblue","mustard","[""darkgreenblue"",""mustard"",""low nameability""]","left-right","[""darkgreenblue"",""mustard"",""low nameability""]","5","low nameability","44","left","audio_feedback","1"
"html-button-response","212","185316","0.0-164.0","CAN_112","112","","","","","","null","<button class=""jspsych-btn""><img src=""stimuli/white_square.png"" style=""width: 200px;height: 200px;""></button>","null","darkgreenblue","mustard","[""darkgreenblue"",""mustard"",""low nameability""]","left-right","[""darkgreenblue"",""mustard"",""low nameability""]","5","low nameability","44","left","iti",""
"html-button-response","213","185784","0.0-165.0","CAN_112","112","","","","","","456","","0","pink","mustard","[""pink"",""mustard"",""low nameability""]","right-left","[""mustard"",""pink""]","5","low nameability","45","right","trigger",""
"html-button-response","214","186581","0.0-166.0-0.0","CAN_112","112","","","","","","790","<button class=""jspsych-btn""><img src=""stimuli/pink.png"" style=""width: 200px;height: 200px;""></button>","1","pink","mustard","[""pink"",""mustard"",""low nameability""]","right-left","[""mustard"",""pink""]","5","low nameability","45","right","response","1"
"html-audio-button-response","215","186787","0.0-166.0-1.0","CAN_112","112","","","","","","null","stimuli/bleep.m4a","null","pink","mustard","[""pink"",""mustard"",""low nameability""]","right-left","[""mustard"",""pink""]","5","low nameability","45","right","audio_feedback","1"
"html-button-response","216","187306","0.0-167.0","CAN_112","112","","","","","","null","<button class=""jspsych-btn""><img src=""stimuli/white_square.png"" style=""width: 200px;height: 200px;""></button>","null","pink","mustard","[""pink"",""mustard"",""low nameability""]","right-left","[""mustard"",""pink""]","5","low nameability","45","right","iti",""
"html-button-response","217","187771","0.0-168.0","CAN_112","112","","","","","","448","","0","yellow","red","[""yellow"",""red"",""high nameability""]","right-left","[""red"",""yellow""]","5","high nameability","46","right","trigger",""
"html-button-response","218","188360","0.0-169.0-0.0","CAN_112","112","","","","","","582","<button class=""jspsych-btn""><img src=""stimuli/yellow.png"" style=""width: 200px;height: 200px;""></button>","1","yellow","red","[""yellow"",""red"",""high nameability""]","right-left","[""red"",""yellow""]","5","high nameability","46","right","response","1"
"html-audio-button-response","219","188567","0.0-169.0-1.0","CAN_112","112","","","","","","null","stimuli/bleep.m4a","null","yellow","red","[""yellow"",""red"",""high nameability""]","right-left","[""red"",""yellow""]","5","high nameability","46","right","audio_feedback","1"
"html-button-response","220","189086","0.0-170.0","CAN_112","112","","","","","","null","<button class=""jspsych-btn""><img src=""stimuli/white_square.png"" style=""width: 200px;height: 200px;""></button>","null","yellow","red","[""yellow"",""red"",""high nameability""]","right-left","[""red"",""yellow""]","5","high nameability","46","right","iti",""
"html-button-response","221","189580","0.0-171.0","CAN_112","112","","","","","","475","","0","darkgreenblue","turquoise","[""darkgreenblue"",""turquoise"",""low nameability""]","left-right","[""darkgreenblue"",""turquoise"",""low nameability""]","5","low nameability","47","left","trigger",""
"html-button-response","222","190127","0.0-172.0-0.0","CAN_112","112","","","","","","540","<button class=""jspsych-btn""><img src=""stimuli/darkgreenblue.png"" style=""width: 200px;height: 200px;""></button>","0","darkgreenblue","turquoise","[""darkgreenblue"",""turquoise"",""low nameability""]","left-right","[""darkgreenblue"",""turquoise"",""low nameability""]","5","low nameability","47","left","response","1"
"html-audio-button-response","223","190332","0.0-172.0-1.0","CAN_112","112","","","","","","null","stimuli/bleep.m4a","null","darkgreenblue","turquoise","[""darkgreenblue"",""turquoise"",""low nameability""]","left-right","[""darkgreenblue"",""turquoise"",""low nameability""]","5","low nameability","47","left","audio_feedback","1"
"html-button-response","224","190854","0.0-173.0","CAN_112","112","","","","","","null","<button class=""jspsych-btn""><img src=""stimuli/white_square.png"" style=""width: 200px;height: 200px;""></button>","null","darkgreenblue","turquoise","[""darkgreenblue"",""turquoise"",""low nameability""]","left-right","[""darkgreenblue"",""turquoise"",""low nameability""]","5","low nameability","47","left","iti",""
"html-button-response","225","191334","0.0-174.0","CAN_112","112","","","","","","461","","0","lightred","turquoise","[""lightred"",""turquoise"",""low nameability""]","right-left","[""turquoise"",""lightred""]","5","low nameability","48","right","trigger",""
"html-button-response","226","191918","0.0-175.0-0.0","CAN_112","112","","","","","","573","<button class=""jspsych-btn""><img src=""stimuli/lightred.png"" style=""width: 200px;height: 200px;""></button>","1","lightred","turquoise","[""lightred"",""turquoise"",""low nameability""]","right-left","[""turquoise"",""lightred""]","5","low nameability","48","right","response","1"
"html-audio-button-response","227","192123","0.0-175.0-1.0","CAN_112","112","","","","","","null","stimuli/bleep.m4a","null","lightred","turquoise","[""lightred"",""turquoise"",""low nameability""]","right-left","[""turquoise"",""lightred""]","5","low nameability","48","right","audio_feedback","1"
"html-button-response","228","192643","0.0-176.0","CAN_112","112","","","","","","null","<button class=""jspsych-btn""><img src=""stimuli/white_square.png"" style=""width: 200px;height: 200px;""></button>","null","lightred","turquoise","[""lightred"",""turquoise"",""low nameability""]","right-left","[""turquoise"",""lightred""]","5","low nameability","48","right","iti",""
"html-button-response","229","193099","0.0-177.0","CAN_112","112","","","","","","439","","0","mustard","lightred","[""mustard"",""lightred"",""low nameability""]","left-right","[""mustard"",""lightred"",""low nameability""]","5","low nameability","49","left","trigger",""
"html-button-response","230","193680","0.0-178.0-0.0","CAN_112","112","","","","","","571","<button class=""jspsych-btn""><img src=""stimuli/mustard.png"" style=""width: 200px;height: 200px;""></button>","0","mustard","lightred","[""mustard"",""lightred"",""low nameability""]","left-right","[""mustard"",""lightred"",""low nameability""]","5","low nameability","49","left","response","1"
"html-audio-button-response","231","193889","0.0-178.0-1.0","CAN_112","112","","","","","","null","stimuli/bleep.m4a","null","mustard","lightred","[""mustard"",""lightred"",""low nameability""]","left-right","[""mustard"",""lightred"",""low nameability""]","5","low nameability","49","left","audio_feedback","1"
"html-button-response","232","194410","0.0-179.0","CAN_112","112","","","","","","null","<button class=""jspsych-btn""><img src=""stimuli/white_square.png"" style=""width: 200px;height: 200px;""></button>","null","mustard","lightred","[""mustard"",""lightred"",""low nameability""]","left-right","[""mustard"",""lightred"",""low nameability""]","5","low nameability","49","left","iti",""
"html-button-response","233","194874","0.0-180.0","CAN_112","112","","","","","","446","","0","orange","blue","[""orange"",""blue"",""high nameability""]","right-left","[""blue"",""orange""]","5","high nameability","50","right","trigger",""
"html-button-response","234","195407","0.0-181.0-0.0","CAN_112","112","","","","","","525","<button class=""jspsych-btn""><img src=""stimuli/orange.png"" style=""width: 200px;height: 200px;""></button>","1","orange","blue","[""orange"",""blue"",""high nameability""]","right-left","[""blue"",""orange""]","5","high nameability","50","right","response","1"
"html-audio-button-response","235","195610","0.0-181.0-1.0","CAN_112","112","","","","","","null","stimuli/bleep.m4a","null","orange","blue","[""orange"",""blue"",""high nameability""]","right-left","[""blue"",""orange""]","5","high nameability","50","right","audio_feedback","1"
"html-button-response","236","196129","0.0-182.0","CAN_112","112","","","","","","null","<button class=""jspsych-btn""><img src=""stimuli/white_square.png"" style=""width: 200px;height: 200px;""></button>","null","orange","blue","[""orange"",""blue"",""high nameability""]","right-left","[""blue"",""orange""]","5","high nameability","50","right","iti",""
"pavlovia","237","196207","0.0-183.0","CAN_112","112","","","","","","","","","","","","","","","","","","",""
"pavlovia","238","196214","0.0-184.0","CAN_112","112","","","","","","","","","","","","","","","","","","",""
"html-audio-button-response","239","198098","0.0-185.0","CAN_112","112","","","","","","1960","stimuli/tada.m4a","0","","","","","","","","","","",""
"html-button-response","240","199183","0.0-186.0","CAN_112","112","","","","","","1077","","0","","","","","","","","","","",""
"html-button-response","241","199849","0.0-187.0","CAN_112","112","","","","","","653","","0","yellow","blue","[""yellow"",""blue"",""high nameability""]","left-right","[""yellow"",""blue"",""high nameability""]","6","high nameability","51","left","trigger",""
"html-button-response","242","200434","0.0-188.0-0.0","CAN_112","112","","","","","","573","<button class=""jspsych-btn""><img src=""stimuli/yellow.png"" style=""width: 200px;height: 200px;""></button>","0","yellow","blue","[""yellow"",""blue"",""high nameability""]","left-right","[""yellow"",""blue"",""high nameability""]","6","high nameability","51","left","response","1"
"html-audio-button-response","243","200639","0.0-188.0-1.0","CAN_112","112","","","","","","null","stimuli/bleep.m4a","null","yellow","blue","[""yellow"",""blue"",""high nameability""]","left-right","[""yellow"",""blue"",""high nameability""]","6","high nameability","51","left","audio_feedback","1"
"html-button-response","244","201171","0.0-189.0","CAN_112","112","","","","","","null","<button class=""jspsych-btn""><img src=""stimuli/white_square.png"" style=""width: 200px;height: 200px;""></button>","null","yellow","blue","[""yellow"",""blue"",""high nameability""]","left-right","[""yellow"",""blue"",""high nameability""]","6","high nameability","51","left","iti",""
"html-button-response","245","201727","0.0-190.0","CAN_112","112","","","","","","521","","0","blue","brown","[""blue"",""brown"",""high nameability""]","left-right","[""blue"",""brown"",""high nameability""]","6","high nameability","52","left","trigger",""
"html-button-response","246","202314","0.0-191.0-0.0","CAN_112","112","","","","","","568","<button class=""jspsych-btn""><img src=""stimuli/blue.png"" style=""width: 200px;height: 200px;""></button>","0","blue","brown","[""blue"",""brown"",""high nameability""]","left-right","[""blue"",""brown"",""high nameability""]","6","high nameability","52","left","response","1"
"html-audio-button-response","247","202522","0.0-191.0-1.0","CAN_112","112","","","","","","null","stimuli/bleep.m4a","null","blue","brown","[""blue"",""brown"",""high nameability""]","left-right","[""blue"",""brown"",""high nameability""]","6","high nameability","52","left","audio_feedback","1"
"html-button-response","248","203048","0.0-192.0","CAN_112","112","","","","","","null","<button class=""jspsych-btn""><img src=""stimuli/white_square.png"" style=""width: 200px;height: 200px;""></button>","null","blue","brown","[""blue"",""brown"",""high nameability""]","left-right","[""blue"",""brown"",""high nameability""]","6","high nameability","52","left","iti",""
"html-button-response","249","203585","0.0-193.0","CAN_112","112","","","","","","507","","0","blue","orange","[""blue"",""orange"",""high nameability""]","right-left","[""orange"",""blue""]","6","high nameability","53","right","trigger",""
"html-button-response","250","204117","0.0-194.0-0.0","CAN_112","112","","","","","","524","<button class=""jspsych-btn""><img src=""stimuli/blue.png"" style=""width: 200px;height: 200px;""></button>","1","blue","orange","[""blue"",""orange"",""high nameability""]","right-left","[""orange"",""blue""]","6","high nameability","53","right","response","1"
"html-audio-button-response","251","204326","0.0-194.0-1.0","CAN_112","112","","","","","","null","stimuli/bleep.m4a","null","blue","orange","[""blue"",""orange"",""high nameability""]","right-left","[""orange"",""blue""]","6","high nameability","53","right","audio_feedback","1"
"html-button-response","252","204848","0.0-195.0","CAN_112","112","","","","","","null","<button class=""jspsych-btn""><img src=""stimuli/white_square.png"" style=""width: 200px;height: 200px;""></button>","null","blue","orange","[""blue"",""orange"",""high nameability""]","right-left","[""orange"",""blue""]","6","high nameability","53","right","iti",""
"html-button-response","253","205282","0.0-196.0","CAN_112","112","","","","","","408","","0","mustard","turquoise","[""mustard"",""turquoise"",""low nameability""]","left-right","[""mustard"",""turquoise"",""low nameability""]","6","low nameability","54","left","trigger",""
"html-button-response","254","205877","0.0-197.0-0.0","CAN_112","112","","","","","","575","<button class=""jspsych-btn""><img src=""stimuli/mustard.png"" style=""width: 200px;height: 200px;""></button>","0","mustard","turquoise","[""mustard"",""turquoise"",""low nameability""]","left-right","[""mustard"",""turquoise"",""low nameability""]","6","low nameability","54","left","response","1"
"html-audio-button-response","255","206124","0.0-197.0-1.0","CAN_112","112","","","","","","null","stimuli/bleep.m4a","null","mustard","turquoise","[""mustard"",""turquoise"",""low nameability""]","left-right","[""mustard"",""turquoise"",""low nameability""]","6","low nameability","54","left","audio_feedback","1"
"html-button-response","256","206650","0.0-198.0","CAN_112","112","","","","","","null","<button class=""jspsych-btn""><img src=""stimuli/white_square.png"" style=""width: 200px;height: 200px;""></button>","null","mustard","turquoise","[""mustard"",""turquoise"",""low nameability""]","left-right","[""mustard"",""turquoise"",""low nameability""]","6","low nameability","54","left","iti",""
"html-button-response","257","207149","0.0-199.0","CAN_112","112","","","","","","487","","0","lightred","darkgreenblue","[""lightred"",""darkgreenblue"",""low nameability""]","right-left","[""darkgreenblue"",""lightred""]","6","low nameability","55","right","trigger",""
"html-button-response","258","207687","0.0-200.0-0.0","CAN_112","112","","","","","","526","<button class=""jspsych-btn""><img src=""stimuli/lightred.png"" style=""width: 200px;height: 200px;""></button>","1","lightred","darkgreenblue","[""lightred"",""darkgreenblue"",""low nameability""]","right-left","[""darkgreenblue"",""lightred""]","6","low nameability","55","right","response","1"
"html-audio-button-response","259","207899","0.0-200.0-1.0","CAN_112","112","","","","","","null","stimuli/bleep.m4a","null","lightred","darkgreenblue","[""lightred"",""darkgreenblue"",""low nameability""]","right-left","[""darkgreenblue"",""lightred""]","6","low nameability","55","right","audio_feedback","1"
"html-button-response","260","208416","0.0-201.0","CAN_112","112","","","","","","null","<button class=""jspsych-btn""><img src=""stimuli/white_square.png"" style=""width: 200px;height: 200px;""></button>","null","lightred","darkgreenblue","[""lightred"",""darkgreenblue"",""low nameability""]","right-left","[""darkgreenblue"",""lightred""]","6","low nameability","55","right","iti",""
"html-button-response","261","208899","0.0-202.0","CAN_112","112","","","","","","469","","0","turquoise","neonyellow","[""turquoise"",""neonyellow"",""low nameability""]","left-right","[""turquoise"",""neonyellow"",""low nameability""]","6","low nameability","56","left","trigger",""
"html-button-response","262","209471","0.0-203.0-0.0","CAN_112","112","","","","","","564","<button class=""jspsych-btn""><img src=""stimuli/turquoise.png"" style=""width: 200px;height: 200px;""></button>","0","turquoise","neonyellow","[""turquoise"",""neonyellow"",""low nameability""]","left-right","[""turquoise"",""neonyellow"",""low nameability""]","6","low nameability","56","left","response","1"
"html-audio-button-response","263","209681","0.0-203.0-1.0","CAN_112","112","","","","","","null","stimuli/bleep.m4a","null","turquoise","neonyellow","[""turquoise"",""neonyellow"",""low nameability""]","left-right","[""turquoise"",""neonyellow"",""low nameability""]","6","low nameability","56","left","audio_feedback","1"
"html-button-response","264","210205","0.0-204.0","CAN_112","112","","","","","","null","<button class=""jspsych-btn""><img src=""stimuli/white_square.png"" style=""width: 200px;height: 200px;""></button>","null","turquoise","neonyellow","[""turquoise"",""neonyellow"",""low nameability""]","left-right","[""turquoise"",""neonyellow"",""low nameability""]","6","low nameability","56","left","iti",""
"html-button-response","265","210688","0.0-205.0","CAN_112","112","","","","","","466","","0","turquoise","lightred","[""turquoise"",""lightred"",""low nameability""]","left-right","[""turquoise"",""lightred"",""low nameability""]","6","low nameability","57","left","trigger",""
"html-button-response","266","211233","0.0-206.0-0.0","CAN_112","112","","","","","","534","<button class=""jspsych-btn""><img src=""stimuli/turquoise.png"" style=""width: 200px;height: 200px;""></button>","0","turquoise","lightred","[""turquoise"",""lightred"",""low nameability""]","left-right","[""turquoise"",""lightred"",""low nameability""]","6","low nameability","57","left","response","1"
"html-audio-button-response","267","211438","0.0-206.0-1.0","CAN_112","112","","","","","","null","stimuli/bleep.m4a","null","turquoise","lightred","[""turquoise"",""lightred"",""low nameability""]","left-right","[""turquoise"",""lightred"",""low nameability""]","6","low nameability","57","left","audio_feedback","1"
"html-button-response","268","211965","0.0-207.0","CAN_112","112","","","","","","null","<button class=""jspsych-btn""><img src=""stimuli/white_square.png"" style=""width: 200px;height: 200px;""></button>","null","turquoise","lightred","[""turquoise"",""lightred"",""low nameability""]","left-right","[""turquoise"",""lightred"",""low nameability""]","6","low nameability","57","left","iti",""
"html-button-response","269","212480","0.0-208.0","CAN_112","112","","","","","","483","","0","red","purple","[""red"",""purple"",""high nameability""]","right-left","[""purple"",""red""]","6","high nameability","58","right","trigger",""
"html-button-response","270","213015","0.0-209.0-0.0","CAN_112","112","","","","","","526","<button class=""jspsych-btn""><img src=""stimuli/red.png"" style=""width: 200px;height: 200px;""></button>","1","red","purple","[""red"",""purple"",""high nameability""]","right-left","[""purple"",""red""]","6","high nameability","58","right","response","1"
"html-audio-button-response","271","213217","0.0-209.0-1.0","CAN_112","112","","","","","","null","stimuli/bleep.m4a","null","red","purple","[""red"",""purple"",""high nameability""]","right-left","[""purple"",""red""]","6","high nameability","58","right","audio_feedback","1"
"html-button-response","272","213733","0.0-210.0","CAN_112","112","","","","","","null","<button class=""jspsych-btn""><img src=""stimuli/white_square.png"" style=""width: 200px;height: 200px;""></button>","null","red","purple","[""red"",""purple"",""high nameability""]","right-left","[""purple"",""red""]","6","high nameability","58","right","iti",""
"html-button-response","273","214287","0.0-211.0","CAN_112","112","","","","","","537","","0","blue","yellow","[""blue"",""yellow"",""high nameability""]","left-right","[""blue"",""yellow"",""high nameability""]","6","high nameability","59","left","trigger",""
"html-button-response","274","214855","0.0-212.0-0.0","CAN_112","112","","","","","","560","<button class=""jspsych-btn""><img src=""stimuli/blue.png"" style=""width: 200px;height: 200px;""></button>","0","blue","yellow","[""blue"",""yellow"",""high nameability""]","left-right","[""blue"",""yellow"",""high nameability""]","6","high nameability","59","left","response","1"
"html-audio-button-response","275","215064","0.0-212.0-1.0","CAN_112","112","","","","","","null","stimuli/bleep.m4a","null","blue","yellow","[""blue"",""yellow"",""high nameability""]","left-right","[""blue"",""yellow"",""high nameability""]","6","high nameability","59","left","audio_feedback","1"
"html-button-response","276","215585","0.0-213.0","CAN_112","112","","","","","","null","<button class=""jspsych-btn""><img src=""stimuli/white_square.png"" style=""width: 200px;height: 200px;""></button>","null","blue","yellow","[""blue"",""yellow"",""high nameability""]","left-right","[""blue"",""yellow"",""high nameability""]","6","high nameability","59","left","iti",""
"html-button-response","277","216177","0.0-214.0","CAN_112","112","","","","","","578","","0","orange","yellow","[""orange"",""yellow"",""high nameability""]","right-left","[""yellow"",""orange""]","6","high nameability","60","right","trigger",""
"html-button-response","278","216706","0.0-215.0-0.0","CAN_112","112","","","","","","522","<button class=""jspsych-btn""><img src=""stimuli/orange.png"" style=""width: 200px;height: 200px;""></button>","1","orange","yellow","[""orange"",""yellow"",""high nameability""]","right-left","[""yellow"",""orange""]","6","high nameability","60","right","response","1"
"html-audio-button-response","279","216911","0.0-215.0-1.0","CAN_112","112","","","","","","null","stimuli/bleep.m4a","null","orange","yellow","[""orange"",""yellow"",""high nameability""]","right-left","[""yellow"",""orange""]","6","high nameability","60","right","audio_feedback","1"
"html-button-response","280","217432","0.0-216.0","CAN_112","112","","","","","","null","<button class=""jspsych-btn""><img src=""stimuli/white_square.png"" style=""width: 200px;height: 200px;""></button>","null","orange","yellow","[""orange"",""yellow"",""high nameability""]","right-left","[""yellow"",""orange""]","6","high nameability","60","right","iti",""
