"trial_type","trial_index","time_elapsed","internal_node_id","subject_id","seed","success","timeout","failed_images","failed_audio","failed_video","rt","stimulus","response","target","foil","choices","combination_order","choices_in_order","round","condition","trial_counter","target_location","trial_kind","correct"
"pavlovia","0","21","0.0-0.0","CAN_148","148","","","","","","","","","","","","","","","","","","",""
"preload","1","707","0.0-1.0","CAN_148","148","true","false","[]","[]","[]","","","","","","","","","","","","","",""
"fullscreen","2","5195","0.0-2.0","CAN_148","148","true","","","","","","","","","","","","","","","","","",""
"html-button-response","3","30533","0.0-3.0","CAN_148","148","","","","","","25320","","0","","","","","","","","","","",""
"html-button-response","4","33658","0.0-4.0","CAN_148","148","","","","","","3111","","0","star","square","[""square"",""star""]","left-right","[""square"",""star""]","1","practice","1","right","trigger",""
"html-button-response","5","34883","0.0-5.0-0.0","CAN_148","148","","","","","","1214","<button class=""jspsych-btn""><img src=""stimuli/star.png"" style=""width: 200px;height: 200px;""></button>","1","star","square","[""square"",""star""]","left-right","[""square"",""star""]","1","practice","1","right","response","1"
"html-audio-button-response","6","35094","0.0-5.0-1.0","CAN_148","148","","","","","","null","stimuli/bleep.m4a","null","star","square","[""square"",""star""]","left-right","[""square"",""star""]","1","practice","1","right","audio_feedback","1"
"html-button-response","7","35624","0.0-6.0","CAN_148","148","","","","","","null","<button class=""jspsych-btn""><img src=""stimuli/white_square.png"" style=""width: 200px;height: 200px;""></button>","null","star","square","[""square"",""star""]","left-right","[""square"",""star""]","1","practice","1","right","iti",""
"html-button-response","8","36408","0.0-7.0","CAN_148","148","","","","","","765","","0","triangle","pentagram","[""triangle"",""pentagram""]","left-right","[""triangle"",""pentagram""]","1","practice","1","left","trigger",""
"html-button-response","9","37806","0.0-8.0-0.0","CAN_148","148","","","","","","1389","<button class=""jspsych-btn""><img src=""stimuli/triangle.png"" style=""width: 200px;height: 200px;""></button>","0","triangle","pentagram","[""triangle"",""pentagram""]","left-right","[""triangle"",""pentagram""]","1","practice","1","left","response","1"
"html-audio-button-response","10","38015","0.0-8.0-1.0","CAN_148","148","","","","","","null","stimuli/bleep.m4a","null","triangle","pentagram","[""triangle"",""pentagram""]","left-right","[""triangle"",""pentagram""]","1","practice","1","left","audio_feedback","1"
"html-button-response","11","38535","0.0-9.0","CAN_148","148","","","","","","null","<button class=""jspsych-btn""><img src=""stimuli/white_square.png"" style=""width: 200px;height: 200px;""></button>","null","triangle","pentagram","[""triangle"",""pentagram""]","left-right","[""triangle"",""pentagram""]","1","practice","1","left","iti",""
"html-button-response","12","39517","0.0-10.0","CAN_148","148","","","","","","965","","0","diamond","rectangle","[""rectangle"",""diamond""]","left-right","[""rectangle"",""diamond""]","1","practice","1","right","trigger",""
"html-button-response","13","40396","0.0-11.0-0.0","CAN_148","148","","","","","","867","<button class=""jspsych-btn""><img src=""stimuli/diamond.png"" style=""width: 200px;height: 200px;""></button>","1","diamond","rectangle","[""rectangle"",""diamond""]","left-right","[""rectangle"",""diamond""]","1","practice","1","right","response","1"
"html-audio-button-response","14","40603","0.0-11.0-1.0","CAN_148","148","","","","","","null","stimuli/bleep.m4a","null","diamond","rectangle","[""rectangle"",""diamond""]","left-right","[""rectangle"",""diamond""]","1","practice","1","right","audio_feedback","1"
"html-button-response","15","41125","0.0-12.0","CAN_148","148","","","","","","null","<button class=""jspsych-btn""><img src=""stimuli/white_square.png"" style=""width: 200px;height: 200px;""></button>","null","diamond","rectangle","[""rectangle"",""diamond""]","left-right","[""rectangle"",""diamond""]","1","practice","1","right","iti",""
"html-button-response","16","41786","0.0-13.0","CAN_148","148","","","","","","642","","0","pentagram","star","[""pentagram"",""star""]","left-right","[""pentagram"",""star""]","1","practice","1","left","trigger",""
"html-button-response","17","42483","0.0-14.0-0.0","CAN_148","148","","","","","","689","<button class=""jspsych-btn""><img src=""stimuli/pentagram.png"" style=""width: 200px;height: 200px;""></button>","0","pentagram","star","[""pentagram"",""star""]","left-right","[""pentagram"",""star""]","1","practice","1","left","response","1"
"html-audio-button-response","18","42695","0.0-14.0-1.0","CAN_148","148","","","","","","null","stimuli/bleep.m4a","null","pentagram","star","[""pentagram"",""star""]","left-right","[""pentagram"",""star""]","1","practice","1","left","audio_feedback","1"
"html-button-response","19","43215","0.0-15.0","CAN_148","148","","","","","","null","<button class=""jspsych-btn""><img src=""stimuli/white_square.png"" style=""width: 200px;height: 200px;""></button>","null","pentagram","star","[""pentagram"",""star""]","left-right","[""pentagram"",""star""]","1","practice","1","left","iti",""
"html-button-response","20","53868","0.0-16.0","CAN_148","148","","","","","","10647","","0","","","","","","","","","","",""
"html-button-response","21","54885","0.0-17.0","CAN_148","148","","","","","","1009","","0","darkgreenblue","turquoise","[""darkgreenblue"",""turquoise"",""low nameability""]","left-right","[""darkgreenblue"",""turquoise"",""low nameability""]","1","low nameability","1","left","trigger",""
"html-button-response","22","55602","0.0-18.0-0.0","CAN_148","148","","","","","","705","<button class=""jspsych-btn""><img src=""stimuli/darkgreenblue.png"" style=""width: 200px;height: 200px;""></button>","0","darkgreenblue","turquoise","[""darkgreenblue"",""turquoise"",""low nameability""]","left-right","[""darkgreenblue"",""turquoise"",""low nameability""]","1","low nameability","1","left","response","1"
"html-audio-button-response","23","55808","0.0-18.0-1.0","CAN_148","148","","","","","","null","stimuli/bleep.m4a","null","darkgreenblue","turquoise","[""darkgreenblue"",""turquoise"",""low nameability""]","left-right","[""darkgreenblue"",""turquoise"",""low nameability""]","1","low nameability","1","left","audio_feedback","1"
"html-button-response","24","56326","0.0-19.0","CAN_148","148","","","","","","null","<button class=""jspsych-btn""><img src=""stimuli/white_square.png"" style=""width: 200px;height: 200px;""></button>","null","darkgreenblue","turquoise","[""darkgreenblue"",""turquoise"",""low nameability""]","left-right","[""darkgreenblue"",""turquoise"",""low nameability""]","1","low nameability","1","left","iti",""
"html-button-response","25","56801","0.0-20.0","CAN_148","148","","","","","","468","","0","orange","purple","[""orange"",""purple"",""high nameability""]","left-right","[""orange"",""purple"",""high nameability""]","1","high nameability","2","left","trigger",""
"html-button-response","26","57453","0.0-21.0-0.0","CAN_148","148","","","","","","640","<button class=""jspsych-btn""><img src=""stimuli/orange.png"" style=""width: 200px;height: 200px;""></button>","0","orange","purple","[""orange"",""purple"",""high nameability""]","left-right","[""orange"",""purple"",""high nameability""]","1","high nameability","2","left","response","1"
"html-audio-button-response","27","57658","0.0-21.0-1.0","CAN_148","148","","","","","","null","stimuli/bleep.m4a","null","orange","purple","[""orange"",""purple"",""high nameability""]","left-right","[""orange"",""purple"",""high nameability""]","1","high nameability","2","left","audio_feedback","1"
"html-button-response","28","58173","0.0-22.0","CAN_148","148","","","","","","null","<button class=""jspsych-btn""><img src=""stimuli/white_square.png"" style=""width: 200px;height: 200px;""></button>","null","orange","purple","[""orange"",""purple"",""high nameability""]","left-right","[""orange"",""purple"",""high nameability""]","1","high nameability","2","left","iti",""
"html-button-response","29","58641","0.0-23.0","CAN_148","148","","","","","","459","","0","turquoise","darkgreenblue","[""turquoise"",""darkgreenblue"",""low nameability""]","right-left","[""darkgreenblue"",""turquoise""]","1","low nameability","3","right","trigger",""
"html-button-response","30","59234","0.0-24.0-0.0","CAN_148","148","","","","","","589","<button class=""jspsych-btn""><img src=""stimuli/turquoise.png"" style=""width: 200px;height: 200px;""></button>","1","turquoise","darkgreenblue","[""turquoise"",""darkgreenblue"",""low nameability""]","right-left","[""darkgreenblue"",""turquoise""]","1","low nameability","3","right","response","1"
"html-audio-button-response","31","59438","0.0-24.0-1.0","CAN_148","148","","","","","","null","stimuli/bleep.m4a","null","turquoise","darkgreenblue","[""turquoise"",""darkgreenblue"",""low nameability""]","right-left","[""darkgreenblue"",""turquoise""]","1","low nameability","3","right","audio_feedback","1"
"html-button-response","32","59959","0.0-25.0","CAN_148","148","","","","","","null","<button class=""jspsych-btn""><img src=""stimuli/white_square.png"" style=""width: 200px;height: 200px;""></button>","null","turquoise","darkgreenblue","[""turquoise"",""darkgreenblue"",""low nameability""]","right-left","[""darkgreenblue"",""turquoise""]","1","low nameability","3","right","iti",""
"html-button-response","33","60389","0.0-26.0","CAN_148","148","","","","","","411","","0","red","orange","[""red"",""orange"",""high nameability""]","right-left","[""orange"",""red""]","1","high nameability","4","right","trigger",""
"html-button-response","34","61111","0.0-27.0-0.0","CAN_148","148","","","","","","712","<button class=""jspsych-btn""><img src=""stimuli/red.png"" style=""width: 200px;height: 200px;""></button>","1","red","orange","[""red"",""orange"",""high nameability""]","right-left","[""orange"",""red""]","1","high nameability","4","right","response","1"
"html-audio-button-response","35","61313","0.0-27.0-1.0","CAN_148","148","","","","","","null","stimuli/bleep.m4a","null","red","orange","[""red"",""orange"",""high nameability""]","right-left","[""orange"",""red""]","1","high nameability","4","right","audio_feedback","1"
"html-button-response","36","61825","0.0-28.0","CAN_148","148","","","","","","null","<button class=""jspsych-btn""><img src=""stimuli/white_square.png"" style=""width: 200px;height: 200px;""></button>","null","red","orange","[""red"",""orange"",""high nameability""]","right-left","[""orange"",""red""]","1","high nameability","4","right","iti",""
"html-button-response","37","62258","0.0-29.0","CAN_148","148","","","","","","423","","0","mustard","lightred","[""mustard"",""lightred"",""low nameability""]","left-right","[""mustard"",""lightred"",""low nameability""]","1","low nameability","5","left","trigger",""
"html-button-response","38","62908","0.0-30.0-0.0","CAN_148","148","","","","","","645","<button class=""jspsych-btn""><img src=""stimuli/mustard.png"" style=""width: 200px;height: 200px;""></button>","0","mustard","lightred","[""mustard"",""lightred"",""low nameability""]","left-right","[""mustard"",""lightred"",""low nameability""]","1","low nameability","5","left","response","1"
"html-audio-button-response","39","63109","0.0-30.0-1.0","CAN_148","148","","","","","","null","stimuli/bleep.m4a","null","mustard","lightred","[""mustard"",""lightred"",""low nameability""]","left-right","[""mustard"",""lightred"",""low nameability""]","1","low nameability","5","left","audio_feedback","1"
"html-button-response","40","63629","0.0-31.0","CAN_148","148","","","","","","null","<button class=""jspsych-btn""><img src=""stimuli/white_square.png"" style=""width: 200px;height: 200px;""></button>","null","mustard","lightred","[""mustard"",""lightred"",""low nameability""]","left-right","[""mustard"",""lightred"",""low nameability""]","1","low nameability","5","left","iti",""
"html-button-response","41","64100","0.0-32.0","CAN_148","148","","","","","","467","","0","red","brown","[""red"",""brown"",""high nameability""]","left-right","[""red"",""brown"",""high nameability""]","1","high nameability","6","left","trigger",""
"html-button-response","42","64784","0.0-33.0-0.0","CAN_148","148","","","","","","677","<button class=""jspsych-btn""><img src=""stimuli/red.png"" style=""width: 200px;height: 200px;""></button>","0","red","brown","[""red"",""brown"",""high nameability""]","left-right","[""red"",""brown"",""high nameability""]","1","high nameability","6","left","response","1"
"html-audio-button-response","43","64986","0.0-33.0-1.0","CAN_148","148","","","","","","null","stimuli/bleep.m4a","null","red","brown","[""red"",""brown"",""high nameability""]","left-right","[""red"",""brown"",""high nameability""]","1","high nameability","6","left","audio_feedback","1"
"html-button-response","44","65507","0.0-34.0","CAN_148","148","","","","","","null","<button class=""jspsych-btn""><img src=""stimuli/white_square.png"" style=""width: 200px;height: 200px;""></button>","null","red","brown","[""red"",""brown"",""high nameability""]","left-right","[""red"",""brown"",""high nameability""]","1","high nameability","6","left","iti",""
"html-button-response","45","65931","0.0-35.0","CAN_148","148","","","","","","405","","0","yellow","red","[""yellow"",""red"",""high nameability""]","left-right","[""yellow"",""red"",""high nameability""]","1","high nameability","7","left","trigger",""
"html-button-response","46","66546","0.0-36.0-0.0","CAN_148","148","","","","","","608","<button class=""jspsych-btn""><img src=""stimuli/yellow.png"" style=""width: 200px;height: 200px;""></button>","0","yellow","red","[""yellow"",""red"",""high nameability""]","left-right","[""yellow"",""red"",""high nameability""]","1","high nameability","7","left","response","1"
"html-audio-button-response","47","66757","0.0-36.0-1.0","CAN_148","148","","","","","","null","stimuli/bleep.m4a","null","yellow","red","[""yellow"",""red"",""high nameability""]","left-right","[""yellow"",""red"",""high nameability""]","1","high nameability","7","left","audio_feedback","1"
"html-button-response","48","67276","0.0-37.0","CAN_148","148","","","","","","null","<button class=""jspsych-btn""><img src=""stimuli/white_square.png"" style=""width: 200px;height: 200px;""></button>","null","yellow","red","[""yellow"",""red"",""high nameability""]","left-right","[""yellow"",""red"",""high nameability""]","1","high nameability","7","left","iti",""
"html-button-response","49","67697","0.0-38.0","CAN_148","148","","","","","","403","","0","brown","orange","[""brown"",""orange"",""high nameability""]","left-right","[""brown"",""orange"",""high nameability""]","1","high nameability","8","left","trigger",""
"html-button-response","50","68293","0.0-39.0-0.0","CAN_148","148","","","","","","586","<button class=""jspsych-btn""><img src=""stimuli/brown.png"" style=""width: 200px;height: 200px;""></button>","0","brown","orange","[""brown"",""orange"",""high nameability""]","left-right","[""brown"",""orange"",""high nameability""]","1","high nameability","8","left","response","1"
"html-audio-button-response","51","68498","0.0-39.0-1.0","CAN_148","148","","","","","","null","stimuli/bleep.m4a","null","brown","orange","[""brown"",""orange"",""high nameability""]","left-right","[""brown"",""orange"",""high nameability""]","1","high nameability","8","left","audio_feedback","1"
"html-button-response","52","69021","0.0-40.0","CAN_148","148","","","","","","null","<button class=""jspsych-btn""><img src=""stimuli/white_square.png"" style=""width: 200px;height: 200px;""></button>","null","brown","orange","[""brown"",""orange"",""high nameability""]","left-right","[""brown"",""orange"",""high nameability""]","1","high nameability","8","left","iti",""
"html-button-response","53","69454","0.0-41.0","CAN_148","148","","","","","","418","","0","purple","brown","[""purple"",""brown"",""high nameability""]","right-left","[""brown"",""purple""]","1","high nameability","9","right","trigger",""
"html-button-response","54","70217","0.0-42.0-0.0","CAN_148","148","","","","","","754","<button class=""jspsych-btn""><img src=""stimuli/purple.png"" style=""width: 200px;height: 200px;""></button>","1","purple","brown","[""purple"",""brown"",""high nameability""]","right-left","[""brown"",""purple""]","1","high nameability","9","right","response","1"
"html-audio-button-response","55","70424","0.0-42.0-1.0","CAN_148","148","","","","","","null","stimuli/bleep.m4a","null","purple","brown","[""purple"",""brown"",""high nameability""]","right-left","[""brown"",""purple""]","1","high nameability","9","right","audio_feedback","1"
"html-button-response","56","70940","0.0-43.0","CAN_148","148","","","","","","null","<button class=""jspsych-btn""><img src=""stimuli/white_square.png"" style=""width: 200px;height: 200px;""></button>","null","purple","brown","[""purple"",""brown"",""high nameability""]","right-left","[""brown"",""purple""]","1","high nameability","9","right","iti",""
"html-button-response","57","71410","0.0-44.0","CAN_148","148","","","","","","452","","0","brown","purple","[""brown"",""purple"",""high nameability""]","right-left","[""purple"",""brown""]","1","high nameability","10","right","trigger",""
"html-button-response","58","72059","0.0-45.0-0.0","CAN_148","148","","","","","","643","<button class=""jspsych-btn""><img src=""stimuli/brown.png"" style=""width: 200px;height: 200px;""></button>","1","brown","purple","[""brown"",""purple"",""high nameability""]","right-left","[""purple"",""brown""]","1","high nameability","10","right","response","1"
"html-audio-button-response","59","72268","0.0-45.0-1.0","CAN_148","148","","","","","","null","stimuli/bleep.m4a","null","brown","purple","[""brown"",""purple"",""high nameability""]","right-left","[""purple"",""brown""]","1","high nameability","10","right","audio_feedback","1"
"html-button-response","60","72791","0.0-46.0","CAN_148","148","","","","","","null","<button class=""jspsych-btn""><img src=""stimuli/white_square.png"" style=""width: 200px;height: 200px;""></button>","null","brown","purple","[""brown"",""purple"",""high nameability""]","right-left","[""purple"",""brown""]","1","high nameability","10","right","iti",""
"pavlovia","61","72869","0.0-47.0","CAN_148","148","","","","","","","","","","","","","","","","","","",""
"pavlovia","62","72877","0.0-48.0","CAN_148","148","","","","","","","","","","","","","","","","","","",""
"html-audio-button-response","63","74329","0.0-49.0","CAN_148","148","","","","","","1541","stimuli/tada.m4a","0","","","","","","","","","","",""
"html-button-response","64","74951","0.0-50.0","CAN_148","148","","","","","","617","","0","","","","","","","","","","",""
"html-button-response","65","75821","0.0-51.0","CAN_148","148","","","","","","862","","0","pink","turquoise","[""pink"",""turquoise"",""low nameability""]","right-left","[""turquoise"",""pink""]","2","low nameability","11","right","trigger",""
"html-button-response","66","76482","0.0-52.0-0.0","CAN_148","148","","","","","","654","<button class=""jspsych-btn""><img src=""stimuli/pink.png"" style=""width: 200px;height: 200px;""></button>","1","pink","turquoise","[""pink"",""turquoise"",""low nameability""]","right-left","[""turquoise"",""pink""]","2","low nameability","11","right","response","1"
"html-audio-button-response","67","76682","0.0-52.0-1.0","CAN_148","148","","","","","","null","stimuli/bleep.m4a","null","pink","turquoise","[""pink"",""turquoise"",""low nameability""]","right-left","[""turquoise"",""pink""]","2","low nameability","11","right","audio_feedback","1"
"html-button-response","68","77197","0.0-53.0","CAN_148","148","","","","","","null","<button class=""jspsych-btn""><img src=""stimuli/white_square.png"" style=""width: 200px;height: 200px;""></button>","null","pink","turquoise","[""pink"",""turquoise"",""low nameability""]","right-left","[""turquoise"",""pink""]","2","low nameability","11","right","iti",""
"html-button-response","69","77371","0.0-54.0","CAN_148","148","","","","","","155","","0","mustard","darkgreenblue","[""mustard"",""darkgreenblue"",""low nameability""]","right-left","[""darkgreenblue"",""mustard""]","2","low nameability","12","right","trigger",""
"html-button-response","70","78268","0.0-55.0-0.0","CAN_148","148","","","","","","889","<button class=""jspsych-btn""><img src=""stimuli/mustard.png"" style=""width: 200px;height: 200px;""></button>","1","mustard","darkgreenblue","[""mustard"",""darkgreenblue"",""low nameability""]","right-left","[""darkgreenblue"",""mustard""]","2","low nameability","12","right","response","1"
"html-audio-button-response","71","78472","0.0-55.0-1.0","CAN_148","148","","","","","","null","stimuli/bleep.m4a","null","mustard","darkgreenblue","[""mustard"",""darkgreenblue"",""low nameability""]","right-left","[""darkgreenblue"",""mustard""]","2","low nameability","12","right","audio_feedback","1"
"html-button-response","72","78996","0.0-56.0","CAN_148","148","","","","","","null","<button class=""jspsych-btn""><img src=""stimuli/white_square.png"" style=""width: 200px;height: 200px;""></button>","null","mustard","darkgreenblue","[""mustard"",""darkgreenblue"",""low nameability""]","right-left","[""darkgreenblue"",""mustard""]","2","low nameability","12","right","iti",""
"html-button-response","73","79463","0.0-57.0","CAN_148","148","","","","","","450","","0","darkgreenblue","mustard","[""darkgreenblue"",""mustard"",""low nameability""]","left-right","[""darkgreenblue"",""mustard"",""low nameability""]","2","low nameability","13","left","trigger",""
"html-button-response","74","80175","0.0-58.0-0.0","CAN_148","148","","","","","","702","<button class=""jspsych-btn""><img src=""stimuli/darkgreenblue.png"" style=""width: 200px;height: 200px;""></button>","0","darkgreenblue","mustard","[""darkgreenblue"",""mustard"",""low nameability""]","left-right","[""darkgreenblue"",""mustard"",""low nameability""]","2","low nameability","13","left","response","1"
"html-audio-button-response","75","80378","0.0-58.0-1.0","CAN_148","148","","","","","","null","stimuli/bleep.m4a","null","darkgreenblue","mustard","[""darkgreenblue"",""mustard"",""low nameability""]","left-right","[""darkgreenblue"",""mustard"",""low nameability""]","2","low nameability","13","left","audio_feedback","1"
"html-button-response","76","80902","0.0-59.0","CAN_148","148","","","","","","null","<button class=""jspsych-btn""><img src=""stimuli/white_square.png"" style=""width: 200px;height: 200px;""></button>","null","darkgreenblue","mustard","[""darkgreenblue"",""mustard"",""low nameability""]","left-right","[""darkgreenblue"",""mustard"",""low nameability""]","2","low nameability","13","left","iti",""
"html-button-response","77","81370","0.0-60.0","CAN_148","148","","","","","","450","","0","pink","darkgreenblue","[""pink"",""darkgreenblue"",""low nameability""]","left-right","[""pink"",""darkgreenblue"",""low nameability""]","2","low nameability","14","left","trigger",""
"html-button-response","78","82021","0.0-61.0-0.0","CAN_148","148","","","","","","643","<button class=""jspsych-btn""><img src=""stimuli/pink.png"" style=""width: 200px;height: 200px;""></button>","0","pink","darkgreenblue","[""pink"",""darkgreenblue"",""low nameability""]","left-right","[""pink"",""darkgreenblue"",""low nameability""]","2","low nameability","14","left","response","1"
"html-audio-button-response","79","82227","0.0-61.0-1.0","CAN_148","148","","","","","","null","stimuli/bleep.m4a","null","pink","darkgreenblue","[""pink"",""darkgreenblue"",""low nameability""]","left-right","[""pink"",""darkgreenblue"",""low nameability""]","2","low nameability","14","left","audio_feedback","1"
"html-button-response","80","82744","0.0-62.0","CAN_148","148","","","","","","null","<button class=""jspsych-btn""><img src=""stimuli/white_square.png"" style=""width: 200px;height: 200px;""></button>","null","pink","darkgreenblue","[""pink"",""darkgreenblue"",""low nameability""]","left-right","[""pink"",""darkgreenblue"",""low nameability""]","2","low nameability","14","left","iti",""
"html-button-response","81","83267","0.0-63.0","CAN_148","148","","","","","","504","","0","lightred","neonyellow","[""lightred"",""neonyellow"",""low nameability""]","left-right","[""lightred"",""neonyellow"",""low nameability""]","2","low nameability","15","left","trigger",""
"html-button-response","82","83895","0.0-64.0-0.0","CAN_148","148","","","","","","622","<button class=""jspsych-btn""><img src=""stimuli/lightred.png"" style=""width: 200px;height: 200px;""></button>","0","lightred","neonyellow","[""lightred"",""neonyellow"",""low nameability""]","left-right","[""lightred"",""neonyellow"",""low nameability""]","2","low nameability","15","left","response","1"
"html-audio-button-response","83","84095","0.0-64.0-1.0","CAN_148","148","","","","","","null","stimuli/bleep.m4a","null","lightred","neonyellow","[""lightred"",""neonyellow"",""low nameability""]","left-right","[""lightred"",""neonyellow"",""low nameability""]","2","low nameability","15","left","audio_feedback","1"
"html-button-response","84","84614","0.0-65.0","CAN_148","148","","","","","","null","<button class=""jspsych-btn""><img src=""stimuli/white_square.png"" style=""width: 200px;height: 200px;""></button>","null","lightred","neonyellow","[""lightred"",""neonyellow"",""low nameability""]","left-right","[""lightred"",""neonyellow"",""low nameability""]","2","low nameability","15","left","iti",""
"html-button-response","85","85080","0.0-66.0","CAN_148","148","","","","","","450","","0","darkgreenblue","neonyellow","[""darkgreenblue"",""neonyellow"",""low nameability""]","left-right","[""darkgreenblue"",""neonyellow"",""low nameability""]","2","low nameability","16","left","trigger",""
"html-button-response","86","85670","0.0-67.0-0.0","CAN_148","148","","","","","","581","<button class=""jspsych-btn""><img src=""stimuli/darkgreenblue.png"" style=""width: 200px;height: 200px;""></button>","0","darkgreenblue","neonyellow","[""darkgreenblue"",""neonyellow"",""low nameability""]","left-right","[""darkgreenblue"",""neonyellow"",""low nameability""]","2","low nameability","16","left","response","1"
"html-audio-button-response","87","85875","0.0-67.0-1.0","CAN_148","148","","","","","","null","stimuli/bleep.m4a","null","darkgreenblue","neonyellow","[""darkgreenblue"",""neonyellow"",""low nameability""]","left-right","[""darkgreenblue"",""neonyellow"",""low nameability""]","2","low nameability","16","left","audio_feedback","1"
"html-button-response","88","86385","0.0-68.0","CAN_148","148","","","","","","null","<button class=""jspsych-btn""><img src=""stimuli/white_square.png"" style=""width: 200px;height: 200px;""></button>","null","darkgreenblue","neonyellow","[""darkgreenblue"",""neonyellow"",""low nameability""]","left-right","[""darkgreenblue"",""neonyellow"",""low nameability""]","2","low nameability","16","left","iti",""
"html-button-response","89","86855","0.0-69.0","CAN_148","148","","","","","","464","","0","turquoise","mustard","[""turquoise"",""mustard"",""low nameability""]","right-left","[""mustard"",""turquoise""]","2","low nameability","17","right","trigger",""
"html-button-response","90","87320","0.0-70.0-0.0","CAN_148","148","","","","","","458","<button class=""jspsych-btn""><img src=""stimuli/turquoise.png"" style=""width: 200px;height: 200px;""></button>","1","turquoise","mustard","[""turquoise"",""mustard"",""low nameability""]","right-left","[""mustard"",""turquoise""]","2","low nameability","17","right","response","1"
"html-audio-button-response","91","87526","0.0-70.0-1.0","CAN_148","148","","","","","","null","stimuli/bleep.m4a","null","turquoise","mustard","[""turquoise"",""mustard"",""low nameability""]","right-left","[""mustard"",""turquoise""]","2","low nameability","17","right","audio_feedback","1"
"html-button-response","92","88045","0.0-71.0","CAN_148","148","","","","","","null","<button class=""jspsych-btn""><img src=""stimuli/white_square.png"" style=""width: 200px;height: 200px;""></button>","null","turquoise","mustard","[""turquoise"",""mustard"",""low nameability""]","right-left","[""mustard"",""turquoise""]","2","low nameability","17","right","iti",""
"html-button-response","93","88515","0.0-72.0","CAN_148","148","","","","","","453","","0","mustard","pink","[""mustard"",""pink"",""low nameability""]","left-right","[""mustard"",""pink"",""low nameability""]","2","low nameability","18","left","trigger",""
"html-button-response","94","89044","0.0-73.0-0.0","CAN_148","148","","","","","","522","<button class=""jspsych-btn""><img src=""stimuli/mustard.png"" style=""width: 200px;height: 200px;""></button>","0","mustard","pink","[""mustard"",""pink"",""low nameability""]","left-right","[""mustard"",""pink"",""low nameability""]","2","low nameability","18","left","response","1"
"html-audio-button-response","95","89247","0.0-73.0-1.0","CAN_148","148","","","","","","null","stimuli/bleep.m4a","null","mustard","pink","[""mustard"",""pink"",""low nameability""]","left-right","[""mustard"",""pink"",""low nameability""]","2","low nameability","18","left","audio_feedback","1"
"html-button-response","96","89769","0.0-74.0","CAN_148","148","","","","","","null","<button class=""jspsych-btn""><img src=""stimuli/white_square.png"" style=""width: 200px;height: 200px;""></button>","null","mustard","pink","[""mustard"",""pink"",""low nameability""]","left-right","[""mustard"",""pink"",""low nameability""]","2","low nameability","18","left","iti",""
"html-button-response","97","90204","0.0-75.0","CAN_148","148","","","","","","416","","0","blue","yellow","[""blue"",""yellow"",""high nameability""]","right-left","[""yellow"",""blue""]","2","high nameability","19","right","trigger",""
"html-button-response","98","90684","0.0-76.0-0.0","CAN_148","148","","","","","","473","<button class=""jspsych-btn""><img src=""stimuli/blue.png"" style=""width: 200px;height: 200px;""></button>","1","blue","yellow","[""blue"",""yellow"",""high nameability""]","right-left","[""yellow"",""blue""]","2","high nameability","19","right","response","1"
"html-audio-button-response","99","90886","0.0-76.0-1.0","CAN_148","148","","","","","","null","stimuli/bleep.m4a","null","blue","yellow","[""blue"",""yellow"",""high nameability""]","right-left","[""yellow"",""blue""]","2","high nameability","19","right","audio_feedback","1"
"html-button-response","100","91408","0.0-77.0","CAN_148","148","","","","","","null","<button class=""jspsych-btn""><img src=""stimuli/white_square.png"" style=""width: 200px;height: 200px;""></button>","null","blue","yellow","[""blue"",""yellow"",""high nameability""]","right-left","[""yellow"",""blue""]","2","high nameability","19","right","iti",""
"html-button-response","101","91884","0.0-78.0","CAN_148","148","","","","","","454","","0","brown","yellow","[""brown"",""yellow"",""high nameability""]","right-left","[""yellow"",""brown""]","2","high nameability","20","right","trigger",""
"html-button-response","102","92597","0.0-79.0-0.0","CAN_148","148","","","","","","704","<button class=""jspsych-btn""><img src=""stimuli/brown.png"" style=""width: 200px;height: 200px;""></button>","1","brown","yellow","[""brown"",""yellow"",""high nameability""]","right-left","[""yellow"",""brown""]","2","high nameability","20","right","response","1"
"html-audio-button-response","103","92798","0.0-79.0-1.0","CAN_148","148","","","","","","null","stimuli/bleep.m4a","null","brown","yellow","[""brown"",""yellow"",""high nameability""]","right-left","[""yellow"",""brown""]","2","high nameability","20","right","audio_feedback","1"
"html-button-response","104","93323","0.0-80.0","CAN_148","148","","","","","","null","<button class=""jspsych-btn""><img src=""stimuli/white_square.png"" style=""width: 200px;height: 200px;""></button>","null","brown","yellow","[""brown"",""yellow"",""high nameability""]","right-left","[""yellow"",""brown""]","2","high nameability","20","right","iti",""
"pavlovia","105","93408","0.0-81.0","CAN_148","148","","","","","","","","","","","","","","","","","","",""
"pavlovia","106","93420","0.0-82.0","CAN_148","148","","","","","","","","","","","","","","","","","","",""
"html-audio-button-response","107","94923","0.0-83.0","CAN_148","148","","","","","","1595","stimuli/tada.m4a","0","","","","","","","","","","",""
"html-button-response","108","95466","0.0-84.0","CAN_148","148","","","","","","536","","0","","","","","","","","","","",""
"html-button-response","109","96345","0.0-85.0","CAN_148","148","","","","","","871","","0","orange","brown","[""orange"",""brown"",""high nameability""]","right-left","[""brown"",""orange""]","3","high nameability","21","right","trigger",""
"html-button-response","110","97033","0.0-86.0-0.0","CAN_148","148","","","","","","679","<button class=""jspsych-btn""><img src=""stimuli/orange.png"" style=""width: 200px;height: 200px;""></button>","1","orange","brown","[""orange"",""brown"",""high nameability""]","right-left","[""brown"",""orange""]","3","high nameability","21","right","response","1"
"html-audio-button-response","111","97238","0.0-86.0-1.0","CAN_148","148","","","","","","null","stimuli/bleep.m4a","null","orange","brown","[""orange"",""brown"",""high nameability""]","right-left","[""brown"",""orange""]","3","high nameability","21","right","audio_feedback","1"
"html-button-response","112","97752","0.0-87.0","CAN_148","148","","","","","","null","<button class=""jspsych-btn""><img src=""stimuli/white_square.png"" style=""width: 200px;height: 200px;""></button>","null","orange","brown","[""orange"",""brown"",""high nameability""]","right-left","[""brown"",""orange""]","3","high nameability","21","right","iti",""
"html-button-response","113","98354","0.0-88.0","CAN_148","148","","","","","","577","","0","pink","neonyellow","[""pink"",""neonyellow"",""low nameability""]","right-left","[""neonyellow"",""pink""]","3","low nameability","22","right","trigger",""
"html-button-response","114","98923","0.0-89.0-0.0","CAN_148","148","","","","","","559","<button class=""jspsych-btn""><img src=""stimuli/pink.png"" style=""width: 200px;height: 200px;""></button>","1","pink","neonyellow","[""pink"",""neonyellow"",""low nameability""]","right-left","[""neonyellow"",""pink""]","3","low nameability","22","right","response","1"
"html-audio-button-response","115","99127","0.0-89.0-1.0","CAN_148","148","","","","","","null","stimuli/bleep.m4a","null","pink","neonyellow","[""pink"",""neonyellow"",""low nameability""]","right-left","[""neonyellow"",""pink""]","3","low nameability","22","right","audio_feedback","1"
"html-button-response","116","99644","0.0-90.0","CAN_148","148","","","","","","null","<button class=""jspsych-btn""><img src=""stimuli/white_square.png"" style=""width: 200px;height: 200px;""></button>","null","pink","neonyellow","[""pink"",""neonyellow"",""low nameability""]","right-left","[""neonyellow"",""pink""]","3","low nameability","22","right","iti",""
"html-button-response","117","100091","0.0-91.0","CAN_148","148","","","","","","431","","0","brown","blue","[""brown"",""blue"",""high nameability""]","left-right","[""brown"",""blue"",""high nameability""]","3","high nameability","23","left","trigger",""
"html-button-response","118","100680","0.0-92.0-0.0","CAN_148","148","","","","","","581","<button class=""jspsych-btn""><img src=""stimuli/brown.png"" style=""width: 200px;height: 200px;""></button>","0","brown","blue","[""brown"",""blue"",""high nameability""]","left-right","[""brown"",""blue"",""high nameability""]","3","high nameability","23","left","response","1"
"html-audio-button-response","119","100887","0.0-92.0-1.0","CAN_148","148","","","","","","null","stimuli/bleep.m4a","null","brown","blue","[""brown"",""blue"",""high nameability""]","left-right","[""brown"",""blue"",""high nameability""]","3","high nameability","23","left","audio_feedback","1"
"html-button-response","120","101405","0.0-93.0","CAN_148","148","","","","","","null","<button class=""jspsych-btn""><img src=""stimuli/white_square.png"" style=""width: 200px;height: 200px;""></button>","null","brown","blue","[""brown"",""blue"",""high nameability""]","left-right","[""brown"",""blue"",""high nameability""]","3","high nameability","23","left","iti",""
"html-button-response","121","101823","0.0-94.0","CAN_148","148","","","","","","402","","0","lightred","darkgreenblue","[""lightred"",""darkgreenblue"",""low nameability""]","right-left","[""darkgreenblue"",""lightred""]","3","low nameability","24","right","trigger",""
"html-button-response","122","102307","0.0-95.0-0.0","CAN_148","148","","","","","","477","<button class=""jspsych-btn""><img src=""stimuli/lightred.png"" style=""width: 200px;height: 200px;""></button>","1","lightred","darkgreenblue","[""lightred"",""darkgreenblue"",""low nameability""]","right-left","[""darkgreenblue"",""lightred""]","3","low nameability","24","right","response","1"
"html-audio-button-response","123","102511","0.0-95.0-1.0","CAN_148","148","","","","","","null","stimuli/bleep.m4a","null","lightred","darkgreenblue","[""lightred"",""darkgreenblue"",""low nameability""]","right-left","[""darkgreenblue"",""lightred""]","3","low nameability","24","right","audio_feedback","1"
"html-button-response","124","103033","0.0-96.0","CAN_148","148","","","","","","null","<button class=""jspsych-btn""><img src=""stimuli/white_square.png"" style=""width: 200px;height: 200px;""></button>","null","lightred","darkgreenblue","[""lightred"",""darkgreenblue"",""low nameability""]","right-left","[""darkgreenblue"",""lightred""]","3","low nameability","24","right","iti",""
"html-button-response","125","103437","0.0-97.0","CAN_148","148","","","","","","385","","0","neonyellow","mustard","[""neonyellow"",""mustard"",""low nameability""]","right-left","[""mustard"",""neonyellow""]","3","low nameability","25","right","trigger",""
"html-button-response","126","104085","0.0-98.0-0.0","CAN_148","148","","","","","","642","<button class=""jspsych-btn""><img src=""stimuli/neonyellow.png"" style=""width: 200px;height: 200px;""></button>","1","neonyellow","mustard","[""neonyellow"",""mustard"",""low nameability""]","right-left","[""mustard"",""neonyellow""]","3","low nameability","25","right","response","1"
"html-audio-button-response","127","104289","0.0-98.0-1.0","CAN_148","148","","","","","","null","stimuli/bleep.m4a","null","neonyellow","mustard","[""neonyellow"",""mustard"",""low nameability""]","right-left","[""mustard"",""neonyellow""]","3","low nameability","25","right","audio_feedback","1"
"html-button-response","128","104807","0.0-99.0","CAN_148","148","","","","","","null","<button class=""jspsych-btn""><img src=""stimuli/white_square.png"" style=""width: 200px;height: 200px;""></button>","null","neonyellow","mustard","[""neonyellow"",""mustard"",""low nameability""]","right-left","[""mustard"",""neonyellow""]","3","low nameability","25","right","iti",""
"html-button-response","129","105348","0.0-100.0","CAN_148","148","","","","","","521","","0","neonyellow","pink","[""neonyellow"",""pink"",""low nameability""]","left-right","[""neonyellow"",""pink"",""low nameability""]","3","low nameability","26","left","trigger",""
"html-button-response","130","105896","0.0-101.0-0.0","CAN_148","148","","","","","","541","<button class=""jspsych-btn""><img src=""stimuli/neonyellow.png"" style=""width: 200px;height: 200px;""></button>","0","neonyellow","pink","[""neonyellow"",""pink"",""low nameability""]","left-right","[""neonyellow"",""pink"",""low nameability""]","3","low nameability","26","left","response","1"
"html-audio-button-response","131","106099","0.0-101.0-1.0","CAN_148","148","","","","","","null","stimuli/bleep.m4a","null","neonyellow","pink","[""neonyellow"",""pink"",""low nameability""]","left-right","[""neonyellow"",""pink"",""low nameability""]","3","low nameability","26","left","audio_feedback","1"
"html-button-response","132","106620","0.0-102.0","CAN_148","148","","","","","","null","<button class=""jspsych-btn""><img src=""stimuli/white_square.png"" style=""width: 200px;height: 200px;""></button>","null","neonyellow","pink","[""neonyellow"",""pink"",""low nameability""]","left-right","[""neonyellow"",""pink"",""low nameability""]","3","low nameability","26","left","iti",""
"html-button-response","133","107129","0.0-103.0","CAN_148","148","","","","","","491","","0","lightred","turquoise","[""lightred"",""turquoise"",""low nameability""]","right-left","[""turquoise"",""lightred""]","3","low nameability","27","right","trigger",""
"html-button-response","134","107589","0.0-104.0-0.0","CAN_148","148","","","","","","453","<button class=""jspsych-btn""><img src=""stimuli/lightred.png"" style=""width: 200px;height: 200px;""></button>","1","lightred","turquoise","[""lightred"",""turquoise"",""low nameability""]","right-left","[""turquoise"",""lightred""]","3","low nameability","27","right","response","1"
"html-audio-button-response","135","107795","0.0-104.0-1.0","CAN_148","148","","","","","","null","stimuli/bleep.m4a","null","lightred","turquoise","[""lightred"",""turquoise"",""low nameability""]","right-left","[""turquoise"",""lightred""]","3","low nameability","27","right","audio_feedback","1"
"html-button-response","136","108315","0.0-105.0","CAN_148","148","","","","","","null","<button class=""jspsych-btn""><img src=""stimuli/white_square.png"" style=""width: 200px;height: 200px;""></button>","null","lightred","turquoise","[""lightred"",""turquoise"",""low nameability""]","right-left","[""turquoise"",""lightred""]","3","low nameability","27","right","iti",""
"html-button-response","137","108765","0.0-106.0","CAN_148","148","","","","","","432","","0","turquoise","lightred","[""turquoise"",""lightred"",""low nameability""]","right-left","[""lightred"",""turquoise""]","3","low nameability","28","right","trigger",""
"html-button-response","138","109249","0.0-107.0-0.0","CAN_148","148","","","","","","472","<button class=""jspsych-btn""><img src=""stimuli/turquoise.png"" style=""width: 200px;height: 200px;""></button>","1","turquoise","lightred","[""turquoise"",""lightred"",""low nameability""]","right-left","[""lightred"",""turquoise""]","3","low nameability","28","right","response","1"
"html-audio-button-response","139","109455","0.0-107.0-1.0","CAN_148","148","","","","","","null","stimuli/bleep.m4a","null","turquoise","lightred","[""turquoise"",""lightred"",""low nameability""]","right-left","[""lightred"",""turquoise""]","3","low nameability","28","right","audio_feedback","1"
"html-button-response","140","109973","0.0-108.0","CAN_148","148","","","","","","null","<button class=""jspsych-btn""><img src=""stimuli/white_square.png"" style=""width: 200px;height: 200px;""></button>","null","turquoise","lightred","[""turquoise"",""lightred"",""low nameability""]","right-left","[""lightred"",""turquoise""]","3","low nameability","28","right","iti",""
"html-button-response","141","110355","0.0-109.0","CAN_148","148","","","","","","361","","0","yellow","brown","[""yellow"",""brown"",""high nameability""]","left-right","[""yellow"",""brown"",""high nameability""]","3","high nameability","29","left","trigger",""
"html-button-response","142","110886","0.0-110.0-0.0","CAN_148","148","","","","","","523","<button class=""jspsych-btn""><img src=""stimuli/yellow.png"" style=""width: 200px;height: 200px;""></button>","0","yellow","brown","[""yellow"",""brown"",""high nameability""]","left-right","[""yellow"",""brown"",""high nameability""]","3","high nameability","29","left","response","1"
"html-audio-button-response","143","111091","0.0-110.0-1.0","CAN_148","148","","","","","","null","stimuli/bleep.m4a","null","yellow","brown","[""yellow"",""brown"",""high nameability""]","left-right","[""yellow"",""brown"",""high nameability""]","3","high nameability","29","left","audio_feedback","1"
"html-button-response","144","111613","0.0-111.0","CAN_148","148","","","","","","null","<button class=""jspsych-btn""><img src=""stimuli/white_square.png"" style=""width: 200px;height: 200px;""></button>","null","yellow","brown","[""yellow"",""brown"",""high nameability""]","left-right","[""yellow"",""brown"",""high nameability""]","3","high nameability","29","left","iti",""
"html-button-response","145","111967","0.0-112.0","CAN_148","148","","","","","","333","","0","orange","blue","[""orange"",""blue"",""high nameability""]","right-left","[""blue"",""orange""]","3","high nameability","30","right","trigger",""
"html-button-response","146","112430","0.0-113.0-0.0","CAN_148","148","","","","","","455","<button class=""jspsych-btn""><img src=""stimuli/orange.png"" style=""width: 200px;height: 200px;""></button>","1","orange","blue","[""orange"",""blue"",""high nameability""]","right-left","[""blue"",""orange""]","3","high nameability","30","right","response","1"
"html-audio-button-response","147","112634","0.0-113.0-1.0","CAN_148","148","","","","","","null","stimuli/bleep.m4a","null","orange","blue","[""orange"",""blue"",""high nameability""]","right-left","[""blue"",""orange""]","3","high nameability","30","right","audio_feedback","1"
"html-button-response","148","113157","0.0-114.0","CAN_148","148","","","","","","null","<button class=""jspsych-btn""><img src=""stimuli/white_square.png"" style=""width: 200px;height: 200px;""></button>","null","orange","blue","[""orange"",""blue"",""high nameability""]","right-left","[""blue"",""orange""]","3","high nameability","30","right","iti",""
"pavlovia","149","113238","0.0-115.0","CAN_148","148","","","","","","","","","","","","","","","","","","",""
"pavlovia","150","113256","0.0-116.0","CAN_148","148","","","","","","","","","","","","","","","","","","",""
"html-audio-button-response","151","114879","0.0-117.0","CAN_148","148","","","","","","1725","stimuli/tada.m4a","0","","","","","","","","","","",""
"html-button-response","152","115481","0.0-118.0","CAN_148","148","","","","","","596","","0","","","","","","","","","","",""
"html-button-response","153","116268","0.0-119.0","CAN_148","148","","","","","","779","","0","darkgreenblue","lightred","[""darkgreenblue"",""lightred"",""low nameability""]","right-left","[""lightred"",""darkgreenblue""]","4","low nameability","31","right","trigger",""
"html-button-response","154","116832","0.0-120.0-0.0","CAN_148","148","","","","","","557","<button class=""jspsych-btn""><img src=""stimuli/darkgreenblue.png"" style=""width: 200px;height: 200px;""></button>","1","darkgreenblue","lightred","[""darkgreenblue"",""lightred"",""low nameability""]","right-left","[""lightred"",""darkgreenblue""]","4","low nameability","31","right","response","1"
"html-audio-button-response","155","117034","0.0-120.0-1.0","CAN_148","148","","","","","","null","stimuli/bleep.m4a","null","darkgreenblue","lightred","[""darkgreenblue"",""lightred"",""low nameability""]","right-left","[""lightred"",""darkgreenblue""]","4","low nameability","31","right","audio_feedback","1"
"html-button-response","156","117567","0.0-121.0","CAN_148","148","","","","","","null","<button class=""jspsych-btn""><img src=""stimuli/white_square.png"" style=""width: 200px;height: 200px;""></button>","null","darkgreenblue","lightred","[""darkgreenblue"",""lightred"",""low nameability""]","right-left","[""lightred"",""darkgreenblue""]","4","low nameability","31","right","iti",""
"html-button-response","157","117953","0.0-122.0","CAN_148","148","","","","","","378","","0","blue","purple","[""blue"",""purple"",""high nameability""]","right-left","[""purple"",""blue""]","4","high nameability","32","right","trigger",""
"html-button-response","158","118383","0.0-123.0-0.0","CAN_148","148","","","","","","421","<button class=""jspsych-btn""><img src=""stimuli/blue.png"" style=""width: 200px;height: 200px;""></button>","1","blue","purple","[""blue"",""purple"",""high nameability""]","right-left","[""purple"",""blue""]","4","high nameability","32","right","response","1"
"html-audio-button-response","159","118588","0.0-123.0-1.0","CAN_148","148","","","","","","null","stimuli/bleep.m4a","null","blue","purple","[""blue"",""purple"",""high nameability""]","right-left","[""purple"",""blue""]","4","high nameability","32","right","audio_feedback","1"
"html-button-response","160","119108","0.0-124.0","CAN_148","148","","","","","","null","<button class=""jspsych-btn""><img src=""stimuli/white_square.png"" style=""width: 200px;height: 200px;""></button>","null","blue","purple","[""blue"",""purple"",""high nameability""]","right-left","[""purple"",""blue""]","4","high nameability","32","right","iti",""
"html-button-response","161","119527","0.0-125.0","CAN_148","148","","","","","","393","","0","purple","yellow","[""purple"",""yellow"",""high nameability""]","left-right","[""purple"",""yellow"",""high nameability""]","4","high nameability","33","left","trigger",""
"html-button-response","162","120194","0.0-126.0-0.0","CAN_148","148","","","","","","661","<button class=""jspsych-btn""><img src=""stimuli/purple.png"" style=""width: 200px;height: 200px;""></button>","0","purple","yellow","[""purple"",""yellow"",""high nameability""]","left-right","[""purple"",""yellow"",""high nameability""]","4","high nameability","33","left","response","1"
"html-audio-button-response","163","120398","0.0-126.0-1.0","CAN_148","148","","","","","","null","stimuli/bleep.m4a","null","purple","yellow","[""purple"",""yellow"",""high nameability""]","left-right","[""purple"",""yellow"",""high nameability""]","4","high nameability","33","left","audio_feedback","1"
"html-button-response","164","120919","0.0-127.0","CAN_148","148","","","","","","null","<button class=""jspsych-btn""><img src=""stimuli/white_square.png"" style=""width: 200px;height: 200px;""></button>","null","purple","yellow","[""purple"",""yellow"",""high nameability""]","left-right","[""purple"",""yellow"",""high nameability""]","4","high nameability","33","left","iti",""
"html-button-response","165","121318","0.0-128.0","CAN_148","148","","","","","","382","","0","neonyellow","darkgreenblue","[""neonyellow"",""darkgreenblue"",""low nameability""]","right-left","[""darkgreenblue"",""neonyellow""]","4","low nameability","34","right","trigger",""
"html-button-response","166","121840","0.0-129.0-0.0","CAN_148","148","","","","","","515","<button class=""jspsych-btn""><img src=""stimuli/neonyellow.png"" style=""width: 200px;height: 200px;""></button>","1","neonyellow","darkgreenblue","[""neonyellow"",""darkgreenblue"",""low nameability""]","right-left","[""darkgreenblue"",""neonyellow""]","4","low nameability","34","right","response","1"
"html-audio-button-response","167","122047","0.0-129.0-1.0","CAN_148","148","","","","","","null","stimuli/bleep.m4a","null","neonyellow","darkgreenblue","[""neonyellow"",""darkgreenblue"",""low nameability""]","right-left","[""darkgreenblue"",""neonyellow""]","4","low nameability","34","right","audio_feedback","1"
"html-button-response","168","122568","0.0-130.0","CAN_148","148","","","","","","null","<button class=""jspsych-btn""><img src=""stimuli/white_square.png"" style=""width: 200px;height: 200px;""></button>","null","neonyellow","darkgreenblue","[""neonyellow"",""darkgreenblue"",""low nameability""]","right-left","[""darkgreenblue"",""neonyellow""]","4","low nameability","34","right","iti",""
"html-button-response","169","122969","0.0-131.0","CAN_148","148","","","","","","380","","0","blue","brown","[""blue"",""brown"",""high nameability""]","left-right","[""blue"",""brown"",""high nameability""]","4","high nameability","35","left","trigger",""
"html-button-response","170","123585","0.0-132.0-0.0","CAN_148","148","","","","","","609","<button class=""jspsych-btn""><img src=""stimuli/blue.png"" style=""width: 200px;height: 200px;""></button>","0","blue","brown","[""blue"",""brown"",""high nameability""]","left-right","[""blue"",""brown"",""high nameability""]","4","high nameability","35","left","response","1"
"html-audio-button-response","171","123792","0.0-132.0-1.0","CAN_148","148","","","","","","null","stimuli/bleep.m4a","null","blue","brown","[""blue"",""brown"",""high nameability""]","left-right","[""blue"",""brown"",""high nameability""]","4","high nameability","35","left","audio_feedback","1"
"html-button-response","172","124318","0.0-133.0","CAN_148","148","","","","","","null","<button class=""jspsych-btn""><img src=""stimuli/white_square.png"" style=""width: 200px;height: 200px;""></button>","null","blue","brown","[""blue"",""brown"",""high nameability""]","left-right","[""blue"",""brown"",""high nameability""]","4","high nameability","35","left","iti",""
"html-button-response","173","124766","0.0-134.0","CAN_148","148","","","","","","428","","0","lightred","pink","[""lightred"",""pink"",""low nameability""]","left-right","[""lightred"",""pink"",""low nameability""]","4","low nameability","36","left","trigger",""
"html-button-response","174","125344","0.0-135.0-0.0","CAN_148","148","","","","","","571","<button class=""jspsych-btn""><img src=""stimuli/lightred.png"" style=""width: 200px;height: 200px;""></button>","0","lightred","pink","[""lightred"",""pink"",""low nameability""]","left-right","[""lightred"",""pink"",""low nameability""]","4","low nameability","36","left","response","1"
"html-audio-button-response","175","125548","0.0-135.0-1.0","CAN_148","148","","","","","","null","stimuli/bleep.m4a","null","lightred","pink","[""lightred"",""pink"",""low nameability""]","left-right","[""lightred"",""pink"",""low nameability""]","4","low nameability","36","left","audio_feedback","1"
"html-button-response","176","126068","0.0-136.0","CAN_148","148","","","","","","null","<button class=""jspsych-btn""><img src=""stimuli/white_square.png"" style=""width: 200px;height: 200px;""></button>","null","lightred","pink","[""lightred"",""pink"",""low nameability""]","left-right","[""lightred"",""pink"",""low nameability""]","4","low nameability","36","left","iti",""
"html-button-response","177","126464","0.0-137.0","CAN_148","148","","","","","","381","","0","blue","orange","[""blue"",""orange"",""high nameability""]","right-left","[""orange"",""blue""]","4","high nameability","37","right","trigger",""
"html-button-response","178","127117","0.0-138.0-0.0","CAN_148","148","","","","","","644","<button class=""jspsych-btn""><img src=""stimuli/blue.png"" style=""width: 200px;height: 200px;""></button>","1","blue","orange","[""blue"",""orange"",""high nameability""]","right-left","[""orange"",""blue""]","4","high nameability","37","right","response","1"
"html-audio-button-response","179","127323","0.0-138.0-1.0","CAN_148","148","","","","","","null","stimuli/bleep.m4a","null","blue","orange","[""blue"",""orange"",""high nameability""]","right-left","[""orange"",""blue""]","4","high nameability","37","right","audio_feedback","1"
"html-button-response","180","127842","0.0-139.0","CAN_148","148","","","","","","null","<button class=""jspsych-btn""><img src=""stimuli/white_square.png"" style=""width: 200px;height: 200px;""></button>","null","blue","orange","[""blue"",""orange"",""high nameability""]","right-left","[""orange"",""blue""]","4","high nameability","37","right","iti",""
"html-button-response","181","128315","0.0-140.0","CAN_148","148","","","","","","441","","0","orange","yellow","[""orange"",""yellow"",""high nameability""]","right-left","[""yellow"",""orange""]","4","high nameability","38","right","trigger",""
"html-button-response","182","128821","0.0-141.0-0.0","CAN_148","148","","","","","","491","<button class=""jspsych-btn""><img src=""stimuli/orange.png"" style=""width: 200px;height: 200px;""></button>","1","orange","yellow","[""orange"",""yellow"",""high nameability""]","right-left","[""yellow"",""orange""]","4","high nameability","38","right","response","1"
"html-audio-button-response","183","129027","0.0-141.0-1.0","CAN_148","148","","","","","","null","stimuli/bleep.m4a","null","orange","yellow","[""orange"",""yellow"",""high nameability""]","right-left","[""yellow"",""orange""]","4","high nameability","38","right","audio_feedback","1"
"html-button-response","184","129549","0.0-142.0","CAN_148","148","","","","","","null","<button class=""jspsych-btn""><img src=""stimuli/white_square.png"" style=""width: 200px;height: 200px;""></button>","null","orange","yellow","[""orange"",""yellow"",""high nameability""]","right-left","[""yellow"",""orange""]","4","high nameability","38","right","iti",""
"html-button-response","185","130219","0.0-143.0","CAN_148","148","","","","","","651","","0","mustard","neonyellow","[""mustard"",""neonyellow"",""low nameability""]","left-right","[""mustard"",""neonyellow"",""low nameability""]","4","low nameability","39","left","trigger",""
"html-button-response","186","130927","0.0-144.0-0.0","CAN_148","148","","","","","","700","<button class=""jspsych-btn""><img src=""stimuli/mustard.png"" style=""width: 200px;height: 200px;""></button>","0","mustard","neonyellow","[""mustard"",""neonyellow"",""low nameability""]","left-right","[""mustard"",""neonyellow"",""low nameability""]","4","low nameability","39","left","response","1"
"html-audio-button-response","187","131131","0.0-144.0-1.0","CAN_148","148","","","","","","null","stimuli/bleep.m4a","null","mustard","neonyellow","[""mustard"",""neonyellow"",""low nameability""]","left-right","[""mustard"",""neonyellow"",""low nameability""]","4","low nameability","39","left","audio_feedback","1"
"html-button-response","188","131650","0.0-145.0","CAN_148","148","","","","","","null","<button class=""jspsych-btn""><img src=""stimuli/white_square.png"" style=""width: 200px;height: 200px;""></button>","null","mustard","neonyellow","[""mustard"",""neonyellow"",""low nameability""]","left-right","[""mustard"",""neonyellow"",""low nameability""]","4","low nameability","39","left","iti",""
"html-button-response","189","132095","0.0-146.0","CAN_148","148","","","","","","428","","0","turquoise","pink","[""turquoise"",""pink"",""low nameability""]","left-right","[""turquoise"",""pink"",""low nameability""]","4","low nameability","40","left","trigger",""
"html-button-response","190","132710","0.0-147.0-0.0","CAN_148","148","","","","","","606","<button class=""jspsych-btn""><img src=""stimuli/turquoise.png"" style=""width: 200px;height: 200px;""></button>","0","turquoise","pink","[""turquoise"",""pink"",""low nameability""]","left-right","[""turquoise"",""pink"",""low nameability""]","4","low nameability","40","left","response","1"
"html-audio-button-response","191","132916","0.0-147.0-1.0","CAN_148","148","","","","","","null","stimuli/bleep.m4a","null","turquoise","pink","[""turquoise"",""pink"",""low nameability""]","left-right","[""turquoise"",""pink"",""low nameability""]","4","low nameability","40","left","audio_feedback","1"
"html-button-response","192","133433","0.0-148.0","CAN_148","148","","","","","","null","<button class=""jspsych-btn""><img src=""stimuli/white_square.png"" style=""width: 200px;height: 200px;""></button>","null","turquoise","pink","[""turquoise"",""pink"",""low nameability""]","left-right","[""turquoise"",""pink"",""low nameability""]","4","low nameability","40","left","iti",""
"pavlovia","193","133494","0.0-149.0","CAN_148","148","","","","","","","","","","","","","","","","","","",""
"pavlovia","194","133501","0.0-150.0","CAN_148","148","","","","","","","","","","","","","","","","","","",""
"html-audio-button-response","195","134899","0.0-151.0","CAN_148","148","","","","","","1464","stimuli/tada.m4a","0","","","","","","","","","","",""
"html-button-response","196","135514","0.0-152.0","CAN_148","148","","","","","","610","","0","","","","","","","","","","",""
"html-button-response","197","136117","0.0-153.0","CAN_148","148","","","","","","597","","0","neonyellow","turquoise","[""neonyellow"",""turquoise"",""low nameability""]","left-right","[""neonyellow"",""turquoise"",""low nameability""]","5","low nameability","41","left","trigger",""
"html-button-response","198","136685","0.0-154.0-0.0","CAN_148","148","","","","","","562","<button class=""jspsych-btn""><img src=""stimuli/neonyellow.png"" style=""width: 200px;height: 200px;""></button>","0","neonyellow","turquoise","[""neonyellow"",""turquoise"",""low nameability""]","left-right","[""neonyellow"",""turquoise"",""low nameability""]","5","low nameability","41","left","response","1"
"html-audio-button-response","199","136891","0.0-154.0-1.0","CAN_148","148","","","","","","null","stimuli/bleep.m4a","null","neonyellow","turquoise","[""neonyellow"",""turquoise"",""low nameability""]","left-right","[""neonyellow"",""turquoise"",""low nameability""]","5","low nameability","41","left","audio_feedback","1"
"html-button-response","200","137409","0.0-155.0","CAN_148","148","","","","","","null","<button class=""jspsych-btn""><img src=""stimuli/white_square.png"" style=""width: 200px;height: 200px;""></button>","null","neonyellow","turquoise","[""neonyellow"",""turquoise"",""low nameability""]","left-right","[""neonyellow"",""turquoise"",""low nameability""]","5","low nameability","41","left","iti",""
"html-button-response","201","137805","0.0-156.0","CAN_148","148","","","","","","357","","0","darkgreenblue","pink","[""darkgreenblue"",""pink"",""low nameability""]","left-right","[""darkgreenblue"",""pink"",""low nameability""]","5","low nameability","42","left","trigger",""
"html-button-response","202","138386","0.0-157.0-0.0","CAN_148","148","","","","","","566","<button class=""jspsych-btn""><img src=""stimuli/darkgreenblue.png"" style=""width: 200px;height: 200px;""></button>","0","darkgreenblue","pink","[""darkgreenblue"",""pink"",""low nameability""]","left-right","[""darkgreenblue"",""pink"",""low nameability""]","5","low nameability","42","left","response","1"
"html-audio-button-response","203","138590","0.0-157.0-1.0","CAN_148","148","","","","","","null","stimuli/bleep.m4a","null","darkgreenblue","pink","[""darkgreenblue"",""pink"",""low nameability""]","left-right","[""darkgreenblue"",""pink"",""low nameability""]","5","low nameability","42","left","audio_feedback","1"
"html-button-response","204","139110","0.0-158.0","CAN_148","148","","","","","","null","<button class=""jspsych-btn""><img src=""stimuli/white_square.png"" style=""width: 200px;height: 200px;""></button>","null","darkgreenblue","pink","[""darkgreenblue"",""pink"",""low nameability""]","left-right","[""darkgreenblue"",""pink"",""low nameability""]","5","low nameability","42","left","iti",""
"html-button-response","205","139513","0.0-159.0","CAN_148","148","","","","","","386","","0","neonyellow","lightred","[""neonyellow"",""lightred"",""low nameability""]","left-right","[""neonyellow"",""lightred"",""low nameability""]","5","low nameability","43","left","trigger",""
"html-button-response","206","140057","0.0-160.0-0.0","CAN_148","148","","","","","","534","<button class=""jspsych-btn""><img src=""stimuli/neonyellow.png"" style=""width: 200px;height: 200px;""></button>","0","neonyellow","lightred","[""neonyellow"",""lightred"",""low nameability""]","left-right","[""neonyellow"",""lightred"",""low nameability""]","5","low nameability","43","left","response","1"
"html-audio-button-response","207","140259","0.0-160.0-1.0","CAN_148","148","","","","","","null","stimuli/bleep.m4a","null","neonyellow","lightred","[""neonyellow"",""lightred"",""low nameability""]","left-right","[""neonyellow"",""lightred"",""low nameability""]","5","low nameability","43","left","audio_feedback","1"
"html-button-response","208","140780","0.0-161.0","CAN_148","148","","","","","","null","<button class=""jspsych-btn""><img src=""stimuli/white_square.png"" style=""width: 200px;height: 200px;""></button>","null","neonyellow","lightred","[""neonyellow"",""lightred"",""low nameability""]","left-right","[""neonyellow"",""lightred"",""low nameability""]","5","low nameability","43","left","iti",""
"html-button-response","209","141151","0.0-162.0","CAN_148","148","","","","","","354","","0","purple","red","[""purple"",""red"",""high nameability""]","left-right","[""purple"",""red"",""high nameability""]","5","high nameability","44","left","trigger",""
"html-button-response","210","141705","0.0-163.0-0.0","CAN_148","148","","","","","","547","<button class=""jspsych-btn""><img src=""stimuli/purple.png"" style=""width: 200px;height: 200px;""></button>","0","purple","red","[""purple"",""red"",""high nameability""]","left-right","[""purple"",""red"",""high nameability""]","5","high nameability","44","left","response","1"
"html-audio-button-response","211","141906","0.0-163.0-1.0","CAN_148","148","","","","","","null","stimuli/bleep.m4a","null","purple","red","[""purple"",""red"",""high nameability""]","left-right","[""purple"",""red"",""high nameability""]","5","high nameability","44","left","audio_feedback","1"
"html-button-response","212","142426","0.0-164.0","CAN_148","148","","","","","","null","<button class=""jspsych-btn""><img src=""stimuli/white_square.png"" style=""width: 200px;height: 200px;""></button>","null","purple","red","[""purple"",""red"",""high nameability""]","left-right","[""purple"",""red"",""high nameability""]","5","high nameability","44","left","iti",""
"html-button-response","213","142797","0.0-165.0","CAN_148","148","","","","","","355","","0","brown","red","[""brown"",""red"",""high nameability""]","left-right","[""brown"",""red"",""high nameability""]","5","high nameability","45","left","trigger",""
"html-button-response","214","143391","0.0-166.0-0.0","CAN_148","148","","","","","","586","<button class=""jspsych-btn""><img src=""stimuli/brown.png"" style=""width: 200px;height: 200px;""></button>","0","brown","red","[""brown"",""red"",""high nameability""]","left-right","[""brown"",""red"",""high nameability""]","5","high nameability","45","left","response","1"
"html-audio-button-response","215","143595","0.0-166.0-1.0","CAN_148","148","","","","","","null","stimuli/bleep.m4a","null","brown","red","[""brown"",""red"",""high nameability""]","left-right","[""brown"",""red"",""high nameability""]","5","high nameability","45","left","audio_feedback","1"
"html-button-response","216","144115","0.0-167.0","CAN_148","148","","","","","","null","<button class=""jspsych-btn""><img src=""stimuli/white_square.png"" style=""width: 200px;height: 200px;""></button>","null","brown","red","[""brown"",""red"",""high nameability""]","left-right","[""brown"",""red"",""high nameability""]","5","high nameability","45","left","iti",""
"html-button-response","217","144556","0.0-168.0","CAN_148","148","","","","","","425","","0","turquoise","neonyellow","[""turquoise"",""neonyellow"",""low nameability""]","right-left","[""neonyellow"",""turquoise""]","5","low nameability","46","right","trigger",""
"html-button-response","218","145126","0.0-169.0-0.0","CAN_148","148","","","","","","562","<button class=""jspsych-btn""><img src=""stimuli/turquoise.png"" style=""width: 200px;height: 200px;""></button>","1","turquoise","neonyellow","[""turquoise"",""neonyellow"",""low nameability""]","right-left","[""neonyellow"",""turquoise""]","5","low nameability","46","right","response","1"
"html-audio-button-response","219","145333","0.0-169.0-1.0","CAN_148","148","","","","","","null","stimuli/bleep.m4a","null","turquoise","neonyellow","[""turquoise"",""neonyellow"",""low nameability""]","right-left","[""neonyellow"",""turquoise""]","5","low nameability","46","right","audio_feedback","1"
"html-button-response","220","145853","0.0-170.0","CAN_148","148","","","","","","null","<button class=""jspsych-btn""><img src=""stimuli/white_square.png"" style=""width: 200px;height: 200px;""></button>","null","turquoise","neonyellow","[""turquoise"",""neonyellow"",""low nameability""]","right-left","[""neonyellow"",""turquoise""]","5","low nameability","46","right","iti",""
"html-button-response","221","146268","0.0-171.0","CAN_148","148","","","","","","396","","0","mustard","turquoise","[""mustard"",""turquoise"",""low nameability""]","left-right","[""mustard"",""turquoise"",""low nameability""]","5","low nameability","47","left","trigger",""
"html-button-response","222","146774","0.0-172.0-0.0","CAN_148","148","","","","","","497","<button class=""jspsych-btn""><img src=""stimuli/mustard.png"" style=""width: 200px;height: 200px;""></button>","0","mustard","turquoise","[""mustard"",""turquoise"",""low nameability""]","left-right","[""mustard"",""turquoise"",""low nameability""]","5","low nameability","47","left","response","1"
"html-audio-button-response","223","146979","0.0-172.0-1.0","CAN_148","148","","","","","","null","stimuli/bleep.m4a","null","mustard","turquoise","[""mustard"",""turquoise"",""low nameability""]","left-right","[""mustard"",""turquoise"",""low nameability""]","5","low nameability","47","left","audio_feedback","1"
"html-button-response","224","147497","0.0-173.0","CAN_148","148","","","","","","null","<button class=""jspsych-btn""><img src=""stimuli/white_square.png"" style=""width: 200px;height: 200px;""></button>","null","mustard","turquoise","[""mustard"",""turquoise"",""low nameability""]","left-right","[""mustard"",""turquoise"",""low nameability""]","5","low nameability","47","left","iti",""
"html-button-response","225","148007","0.0-174.0","CAN_148","148","","","","","","493","","0","pink","mustard","[""pink"",""mustard"",""low nameability""]","left-right","[""pink"",""mustard"",""low nameability""]","5","low nameability","48","left","trigger",""
"html-button-response","226","148639","0.0-175.0-0.0","CAN_148","148","","","","","","624","<button class=""jspsych-btn""><img src=""stimuli/pink.png"" style=""width: 200px;height: 200px;""></button>","0","pink","mustard","[""pink"",""mustard"",""low nameability""]","left-right","[""pink"",""mustard"",""low nameability""]","5","low nameability","48","left","response","1"
"html-audio-button-response","227","148845","0.0-175.0-1.0","CAN_148","148","","","","","","null","stimuli/bleep.m4a","null","pink","mustard","[""pink"",""mustard"",""low nameability""]","left-right","[""pink"",""mustard"",""low nameability""]","5","low nameability","48","left","audio_feedback","1"
"html-button-response","228","149362","0.0-176.0","CAN_148","148","","","","","","null","<button class=""jspsych-btn""><img src=""stimuli/white_square.png"" style=""width: 200px;height: 200px;""></button>","null","pink","mustard","[""pink"",""mustard"",""low nameability""]","left-right","[""pink"",""mustard"",""low nameability""]","5","low nameability","48","left","iti",""
"html-button-response","229","149837","0.0-177.0","CAN_148","148","","","","","","461","","0","purple","orange","[""purple"",""orange"",""high nameability""]","left-right","[""purple"",""orange"",""high nameability""]","5","high nameability","49","left","trigger",""
"html-button-response","230","150383","0.0-178.0-0.0","CAN_148","148","","","","","","540","<button class=""jspsych-btn""><img src=""stimuli/purple.png"" style=""width: 200px;height: 200px;""></button>","0","purple","orange","[""purple"",""orange"",""high nameability""]","left-right","[""purple"",""orange"",""high nameability""]","5","high nameability","49","left","response","1"
"html-audio-button-response","231","150587","0.0-178.0-1.0","CAN_148","148","","","","","","null","stimuli/bleep.m4a","null","purple","orange","[""purple"",""orange"",""high nameability""]","left-right","[""purple"",""orange"",""high nameability""]","5","high nameability","49","left","audio_feedback","1"
"html-button-response","232","151108","0.0-179.0","CAN_148","148","","","","","","null","<button class=""jspsych-btn""><img src=""stimuli/white_square.png"" style=""width: 200px;height: 200px;""></button>","null","purple","orange","[""purple"",""orange"",""high nameability""]","left-right","[""purple"",""orange"",""high nameability""]","5","high nameability","49","left","iti",""
"html-button-response","233","152017","0.0-180.0","CAN_148","148","","","","","","892","","0","orange","red","[""orange"",""red"",""high nameability""]","right-left","[""red"",""orange""]","5","high nameability","50","right","trigger",""
"html-button-response","234","152658","0.0-181.0-0.0","CAN_148","148","","","","","","634","<button class=""jspsych-btn""><img src=""stimuli/orange.png"" style=""width: 200px;height: 200px;""></button>","1","orange","red","[""orange"",""red"",""high nameability""]","right-left","[""red"",""orange""]","5","high nameability","50","right","response","1"
"html-audio-button-response","235","152862","0.0-181.0-1.0","CAN_148","148","","","","","","null","stimuli/bleep.m4a","null","orange","red","[""orange"",""red"",""high nameability""]","right-left","[""red"",""orange""]","5","high nameability","50","right","audio_feedback","1"
"html-button-response","236","153376","0.0-182.0","CAN_148","148","","","","","","null","<button class=""jspsych-btn""><img src=""stimuli/white_square.png"" style=""width: 200px;height: 200px;""></button>","null","orange","red","[""orange"",""red"",""high nameability""]","right-left","[""red"",""orange""]","5","high nameability","50","right","iti",""
"pavlovia","237","153442","0.0-183.0","CAN_148","148","","","","","","","","","","","","","","","","","","",""
"pavlovia","238","153453","0.0-184.0","CAN_148","148","","","","","","","","","","","","","","","","","","",""
"html-audio-button-response","239","154993","0.0-185.0","CAN_148","148","","","","","","1616","stimuli/tada.m4a","0","","","","","","","","","","",""
"html-button-response","240","156415","0.0-186.0","CAN_148","148","","","","","","1415","","0","","","","","","","","","","",""
"html-button-response","241","156947","0.0-187.0","CAN_148","148","","","","","","524","","0","purple","blue","[""purple"",""blue"",""high nameability""]","right-left","[""blue"",""purple""]","6","high nameability","51","right","trigger",""
"html-button-response","242","157418","0.0-188.0-0.0","CAN_148","148","","","","","","464","<button class=""jspsych-btn""><img src=""stimuli/purple.png"" style=""width: 200px;height: 200px;""></button>","1","purple","blue","[""purple"",""blue"",""high nameability""]","right-left","[""blue"",""purple""]","6","high nameability","51","right","response","1"
"html-audio-button-response","243","157624","0.0-188.0-1.0","CAN_148","148","","","","","","null","stimuli/bleep.m4a","null","purple","blue","[""purple"",""blue"",""high nameability""]","right-left","[""blue"",""purple""]","6","high nameability","51","right","audio_feedback","1"
"html-button-response","244","158139","0.0-189.0","CAN_148","148","","","","","","null","<button class=""jspsych-btn""><img src=""stimuli/white_square.png"" style=""width: 200px;height: 200px;""></button>","null","purple","blue","[""purple"",""blue"",""high nameability""]","right-left","[""blue"",""purple""]","6","high nameability","51","right","iti",""
"html-button-response","245","158534","0.0-190.0","CAN_148","148","","","","","","377","","0","yellow","purple","[""yellow"",""purple"",""high nameability""]","right-left","[""purple"",""yellow""]","6","high nameability","52","right","trigger",""
"html-button-response","246","159030","0.0-191.0-0.0","CAN_148","148","","","","","","488","<button class=""jspsych-btn""><img src=""stimuli/yellow.png"" style=""width: 200px;height: 200px;""></button>","1","yellow","purple","[""yellow"",""purple"",""high nameability""]","right-left","[""purple"",""yellow""]","6","high nameability","52","right","response","1"
"html-audio-button-response","247","159233","0.0-191.0-1.0","CAN_148","148","","","","","","null","stimuli/bleep.m4a","null","yellow","purple","[""yellow"",""purple"",""high nameability""]","right-left","[""purple"",""yellow""]","6","high nameability","52","right","audio_feedback","1"
"html-button-response","248","159749","0.0-192.0","CAN_148","148","","","","","","null","<button class=""jspsych-btn""><img src=""stimuli/white_square.png"" style=""width: 200px;height: 200px;""></button>","null","yellow","purple","[""yellow"",""purple"",""high nameability""]","right-left","[""purple"",""yellow""]","6","high nameability","52","right","iti",""
"html-button-response","249","160125","0.0-193.0","CAN_148","148","","","","","","359","","0","yellow","blue","[""yellow"",""blue"",""high nameability""]","left-right","[""yellow"",""blue"",""high nameability""]","6","high nameability","53","left","trigger",""
"html-button-response","250","160706","0.0-194.0-0.0","CAN_148","148","","","","","","574","<button class=""jspsych-btn""><img src=""stimuli/yellow.png"" style=""width: 200px;height: 200px;""></button>","0","yellow","blue","[""yellow"",""blue"",""high nameability""]","left-right","[""yellow"",""blue"",""high nameability""]","6","high nameability","53","left","response","1"
"html-audio-button-response","251","160910","0.0-194.0-1.0","CAN_148","148","","","","","","null","stimuli/bleep.m4a","null","yellow","blue","[""yellow"",""blue"",""high nameability""]","left-right","[""yellow"",""blue"",""high nameability""]","6","high nameability","53","left","audio_feedback","1"
"html-button-response","252","161429","0.0-195.0","CAN_148","148","","","","","","null","<button class=""jspsych-btn""><img src=""stimuli/white_square.png"" style=""width: 200px;height: 200px;""></button>","null","yellow","blue","[""yellow"",""blue"",""high nameability""]","left-right","[""yellow"",""blue"",""high nameability""]","6","high nameability","53","left","iti",""
"html-button-response","253","161833","0.0-196.0","CAN_148","148","","","","","","390","","0","red","blue","[""red"",""blue"",""high nameability""]","right-left","[""blue"",""red""]","6","high nameability","54","right","trigger",""
"html-button-response","254","162334","0.0-197.0-0.0","CAN_148","148","","","","","","493","<button class=""jspsych-btn""><img src=""stimuli/red.png"" style=""width: 200px;height: 200px;""></button>","1","red","blue","[""red"",""blue"",""high nameability""]","right-left","[""blue"",""red""]","6","high nameability","54","right","response","1"
"html-audio-button-response","255","162538","0.0-197.0-1.0","CAN_148","148","","","","","","null","stimuli/bleep.m4a","null","red","blue","[""red"",""blue"",""high nameability""]","right-left","[""blue"",""red""]","6","high nameability","54","right","audio_feedback","1"
"html-button-response","256","163056","0.0-198.0","CAN_148","148","","","","","","null","<button class=""jspsych-btn""><img src=""stimuli/white_square.png"" style=""width: 200px;height: 200px;""></button>","null","red","blue","[""red"",""blue"",""high nameability""]","right-left","[""blue"",""red""]","6","high nameability","54","right","iti",""
"html-button-response","257","163400","0.0-199.0","CAN_148","148","","","","","","329","","0","yellow","orange","[""yellow"",""orange"",""high nameability""]","right-left","[""orange"",""yellow""]","6","high nameability","55","right","trigger",""
"html-button-response","258","163996","0.0-200.0-0.0","CAN_148","148","","","","","","588","<button class=""jspsych-btn""><img src=""stimuli/yellow.png"" style=""width: 200px;height: 200px;""></button>","1","yellow","orange","[""yellow"",""orange"",""high nameability""]","right-left","[""orange"",""yellow""]","6","high nameability","55","right","response","1"
"html-audio-button-response","259","164201","0.0-200.0-1.0","CAN_148","148","","","","","","null","stimuli/bleep.m4a","null","yellow","orange","[""yellow"",""orange"",""high nameability""]","right-left","[""orange"",""yellow""]","6","high nameability","55","right","audio_feedback","1"
"html-button-response","260","164723","0.0-201.0","CAN_148","148","","","","","","null","<button class=""jspsych-btn""><img src=""stimuli/white_square.png"" style=""width: 200px;height: 200px;""></button>","null","yellow","orange","[""yellow"",""orange"",""high nameability""]","right-left","[""orange"",""yellow""]","6","high nameability","55","right","iti",""
"html-button-response","261","165132","0.0-202.0","CAN_148","148","","","","","","393","","0","pink","lightred","[""pink"",""lightred"",""low nameability""]","right-left","[""lightred"",""pink""]","6","low nameability","56","right","trigger",""
"html-button-response","262","165592","0.0-203.0-0.0","CAN_148","148","","","","","","454","<button class=""jspsych-btn""><img src=""stimuli/pink.png"" style=""width: 200px;height: 200px;""></button>","1","pink","lightred","[""pink"",""lightred"",""low nameability""]","right-left","[""lightred"",""pink""]","6","low nameability","56","right","response","1"
"html-audio-button-response","263","165794","0.0-203.0-1.0","CAN_148","148","","","","","","null","stimuli/bleep.m4a","null","pink","lightred","[""pink"",""lightred"",""low nameability""]","right-left","[""lightred"",""pink""]","6","low nameability","56","right","audio_feedback","1"
"html-button-response","264","166309","0.0-204.0","CAN_148","148","","","","","","null","<button class=""jspsych-btn""><img src=""stimuli/white_square.png"" style=""width: 200px;height: 200px;""></button>","null","pink","lightred","[""pink"",""lightred"",""low nameability""]","right-left","[""lightred"",""pink""]","6","low nameability","56","right","iti",""
"html-button-response","265","166685","0.0-205.0","CAN_148","148","","","","","","357","","0","red","purple","[""red"",""purple"",""high nameability""]","left-right","[""red"",""purple"",""high nameability""]","6","high nameability","57","left","trigger",""
"html-button-response","266","167422","0.0-206.0-0.0","CAN_148","148","","","","","","730","<button class=""jspsych-btn""><img src=""stimuli/red.png"" style=""width: 200px;height: 200px;""></button>","0","red","purple","[""red"",""purple"",""high nameability""]","left-right","[""red"",""purple"",""high nameability""]","6","high nameability","57","left","response","1"
"html-audio-button-response","267","167627","0.0-206.0-1.0","CAN_148","148","","","","","","null","stimuli/bleep.m4a","null","red","purple","[""red"",""purple"",""high nameability""]","left-right","[""red"",""purple"",""high nameability""]","6","high nameability","57","left","audio_feedback","1"
"html-button-response","268","168144","0.0-207.0","CAN_148","148","","","","","","null","<button class=""jspsych-btn""><img src=""stimuli/white_square.png"" style=""width: 200px;height: 200px;""></button>","null","red","purple","[""red"",""purple"",""high nameability""]","left-right","[""red"",""purple"",""high nameability""]","6","high nameability","57","left","iti",""
"html-button-response","269","168844","0.0-208.0","CAN_148","148","","","","","","685","","0","lightred","mustard","[""lightred"",""mustard"",""low nameability""]","right-left","[""mustard"",""lightred""]","6","low nameability","58","right","trigger",""
"html-button-response","270","169334","0.0-209.0-0.0","CAN_148","148","","","","","","483","<button class=""jspsych-btn""><img src=""stimuli/lightred.png"" style=""width: 200px;height: 200px;""></button>","1","lightred","mustard","[""lightred"",""mustard"",""low nameability""]","right-left","[""mustard"",""lightred""]","6","low nameability","58","right","response","1"
"html-audio-button-response","271","169538","0.0-209.0-1.0","CAN_148","148","","","","","","null","stimuli/bleep.m4a","null","lightred","mustard","[""lightred"",""mustard"",""low nameability""]","right-left","[""mustard"",""lightred""]","6","low nameability","58","right","audio_feedback","1"
"html-button-response","272","170050","0.0-210.0","CAN_148","148","","","","","","null","<button class=""jspsych-btn""><img src=""stimuli/white_square.png"" style=""width: 200px;height: 200px;""></button>","null","lightred","mustard","[""lightred"",""mustard"",""low nameability""]","right-left","[""mustard"",""lightred""]","6","low nameability","58","right","iti",""
"html-button-response","273","170422","0.0-211.0","CAN_148","148","","","","","","359","","0","blue","red","[""blue"",""red"",""high nameability""]","right-left","[""red"",""blue""]","6","high nameability","59","right","trigger",""
"html-button-response","274","170989","0.0-212.0-0.0","CAN_148","148","","","","","","561","<button class=""jspsych-btn""><img src=""stimuli/blue.png"" style=""width: 200px;height: 200px;""></button>","1","blue","red","[""blue"",""red"",""high nameability""]","right-left","[""red"",""blue""]","6","high nameability","59","right","response","1"
"html-audio-button-response","275","171191","0.0-212.0-1.0","CAN_148","148","","","","","","null","stimuli/bleep.m4a","null","blue","red","[""blue"",""red"",""high nameability""]","right-left","[""red"",""blue""]","6","high nameability","59","right","audio_feedback","1"
"html-button-response","276","171714","0.0-213.0","CAN_148","148","","","","","","null","<button class=""jspsych-btn""><img src=""stimuli/white_square.png"" style=""width: 200px;height: 200px;""></button>","null","blue","red","[""blue"",""red"",""high nameability""]","right-left","[""red"",""blue""]","6","high nameability","59","right","iti",""
"html-button-response","277","172269","0.0-214.0","CAN_148","148","","","","","","540","","0","red","yellow","[""red"",""yellow"",""high nameability""]","left-right","[""red"",""yellow"",""high nameability""]","6","high nameability","60","left","trigger",""
"html-button-response","278","172891","0.0-215.0-0.0","CAN_148","148","","","","","","616","<button class=""jspsych-btn""><img src=""stimuli/red.png"" style=""width: 200px;height: 200px;""></button>","0","red","yellow","[""red"",""yellow"",""high nameability""]","left-right","[""red"",""yellow"",""high nameability""]","6","high nameability","60","left","response","1"
"html-audio-button-response","279","173095","0.0-215.0-1.0","CAN_148","148","","","","","","null","stimuli/bleep.m4a","null","red","yellow","[""red"",""yellow"",""high nameability""]","left-right","[""red"",""yellow"",""high nameability""]","6","high nameability","60","left","audio_feedback","1"
"html-button-response","280","173616","0.0-216.0","CAN_148","148","","","","","","null","<button class=""jspsych-btn""><img src=""stimuli/white_square.png"" style=""width: 200px;height: 200px;""></button>","null","red","yellow","[""red"",""yellow"",""high nameability""]","left-right","[""red"",""yellow"",""high nameability""]","6","high nameability","60","left","iti",""
