"trial_type","trial_index","time_elapsed","internal_node_id","subject_id","seed","success","timeout","failed_images","failed_audio","failed_video","rt","stimulus","response","target","foil","choices","combination_order","choices_in_order","round","condition","trial_counter","target_location","trial_kind","correct"
"pavlovia","0","22","0.0-0.0","CAN_122","122","","","","","","","","","","","","","","","","","","",""
"preload","1","862","0.0-1.0","CAN_122","122","true","false","[]","[]","[]","","","","","","","","","","","","","",""
"fullscreen","2","236232","0.0-2.0","CAN_122","122","true","","","","","","","","","","","","","","","","","",""
"html-button-response","3","276027","0.0-3.0","CAN_122","122","","","","","","39769","","0","","","","","","","","","","",""
"html-button-response","4","282571","0.0-4.0","CAN_122","122","","","","","","6530","","0","star","square","[""square"",""star""]","left-right","[""square"",""star""]","1","practice","1","right","trigger",""
"html-button-response","5","286680","0.0-5.0-0.0","CAN_122","122","","","","","","4094","<button class=""jspsych-btn""><img src=""stimuli/star.png"" style=""width: 200px;height: 200px;""></button>","1","star","square","[""square"",""star""]","left-right","[""square"",""star""]","1","practice","1","right","response","1"
"html-audio-button-response","6","286890","0.0-5.0-1.0","CAN_122","122","","","","","","null","stimuli/bleep.m4a","null","star","square","[""square"",""star""]","left-right","[""square"",""star""]","1","practice","1","right","audio_feedback","1"
"html-button-response","7","287426","0.0-6.0","CAN_122","122","","","","","","null","<button class=""jspsych-btn""><img src=""stimuli/white_square.png"" style=""width: 200px;height: 200px;""></button>","null","star","square","[""square"",""star""]","left-right","[""square"",""star""]","1","practice","1","right","iti",""
"html-button-response","8","291876","0.0-7.0","CAN_122","122","","","","","","4432","","0","triangle","pentagram","[""triangle"",""pentagram""]","left-right","[""triangle"",""pentagram""]","1","practice","1","left","trigger",""
"html-button-response","9","294730","0.0-8.0-0.0","CAN_122","122","","","","","","2844","<button class=""jspsych-btn""><img src=""stimuli/triangle.png"" style=""width: 200px;height: 200px;""></button>","0","triangle","pentagram","[""triangle"",""pentagram""]","left-right","[""triangle"",""pentagram""]","1","practice","1","left","response","1"
"html-audio-button-response","10","294938","0.0-8.0-1.0","CAN_122","122","","","","","","null","stimuli/bleep.m4a","null","triangle","pentagram","[""triangle"",""pentagram""]","left-right","[""triangle"",""pentagram""]","1","practice","1","left","audio_feedback","1"
"html-button-response","11","295463","0.0-9.0","CAN_122","122","","","","","","null","<button class=""jspsych-btn""><img src=""stimuli/white_square.png"" style=""width: 200px;height: 200px;""></button>","null","triangle","pentagram","[""triangle"",""pentagram""]","left-right","[""triangle"",""pentagram""]","1","practice","1","left","iti",""
"html-button-response","12","296198","0.0-10.0","CAN_122","122","","","","","","714","","0","diamond","rectangle","[""rectangle"",""diamond""]","left-right","[""rectangle"",""diamond""]","1","practice","1","right","trigger",""
"html-button-response","13","297193","0.0-11.0-0.0","CAN_122","122","","","","","","984","<button class=""jspsych-btn""><img src=""stimuli/diamond.png"" style=""width: 200px;height: 200px;""></button>","1","diamond","rectangle","[""rectangle"",""diamond""]","left-right","[""rectangle"",""diamond""]","1","practice","1","right","response","1"
"html-audio-button-response","14","297398","0.0-11.0-1.0","CAN_122","122","","","","","","null","stimuli/bleep.m4a","null","diamond","rectangle","[""rectangle"",""diamond""]","left-right","[""rectangle"",""diamond""]","1","practice","1","right","audio_feedback","1"
"html-button-response","15","297918","0.0-12.0","CAN_122","122","","","","","","null","<button class=""jspsych-btn""><img src=""stimuli/white_square.png"" style=""width: 200px;height: 200px;""></button>","null","diamond","rectangle","[""rectangle"",""diamond""]","left-right","[""rectangle"",""diamond""]","1","practice","1","right","iti",""
"html-button-response","16","298646","0.0-13.0","CAN_122","122","","","","","","711","","0","pentagram","star","[""pentagram"",""star""]","left-right","[""pentagram"",""star""]","1","practice","1","left","trigger",""
"html-button-response","17","299649","0.0-14.0-0.0","CAN_122","122","","","","","","993","<button class=""jspsych-btn""><img src=""stimuli/pentagram.png"" style=""width: 200px;height: 200px;""></button>","0","pentagram","star","[""pentagram"",""star""]","left-right","[""pentagram"",""star""]","1","practice","1","left","response","1"
"html-audio-button-response","18","299854","0.0-14.0-1.0","CAN_122","122","","","","","","null","stimuli/bleep.m4a","null","pentagram","star","[""pentagram"",""star""]","left-right","[""pentagram"",""star""]","1","practice","1","left","audio_feedback","1"
"html-button-response","19","300378","0.0-15.0","CAN_122","122","","","","","","null","<button class=""jspsych-btn""><img src=""stimuli/white_square.png"" style=""width: 200px;height: 200px;""></button>","null","pentagram","star","[""pentagram"",""star""]","left-right","[""pentagram"",""star""]","1","practice","1","left","iti",""
"html-button-response","20","311468","0.0-16.0","CAN_122","122","","","","","","11069","","0","","","","","","","","","","",""
"html-button-response","21","312413","0.0-17.0","CAN_122","122","","","","","","934","","0","turquoise","darkgreenblue","[""turquoise"",""darkgreenblue"",""low nameability""]","right-left","[""darkgreenblue"",""turquoise""]","1","low nameability","1","right","trigger",""
"html-button-response","22","313201","0.0-18.0-0.0","CAN_122","122","","","","","","774","<button class=""jspsych-btn""><img src=""stimuli/turquoise.png"" style=""width: 200px;height: 200px;""></button>","1","turquoise","darkgreenblue","[""turquoise"",""darkgreenblue"",""low nameability""]","right-left","[""darkgreenblue"",""turquoise""]","1","low nameability","1","right","response","1"
"html-audio-button-response","23","313405","0.0-18.0-1.0","CAN_122","122","","","","","","null","stimuli/bleep.m4a","null","turquoise","darkgreenblue","[""turquoise"",""darkgreenblue"",""low nameability""]","right-left","[""darkgreenblue"",""turquoise""]","1","low nameability","1","right","audio_feedback","1"
"html-button-response","24","313920","0.0-19.0","CAN_122","122","","","","","","null","<button class=""jspsych-btn""><img src=""stimuli/white_square.png"" style=""width: 200px;height: 200px;""></button>","null","turquoise","darkgreenblue","[""turquoise"",""darkgreenblue"",""low nameability""]","right-left","[""darkgreenblue"",""turquoise""]","1","low nameability","1","right","iti",""
"html-button-response","25","314382","0.0-20.0","CAN_122","122","","","","","","445","","0","neonyellow","pink","[""neonyellow"",""pink"",""low nameability""]","left-right","[""neonyellow"",""pink"",""low nameability""]","1","low nameability","2","left","trigger",""
"html-button-response","26","315242","0.0-21.0-0.0","CAN_122","122","","","","","","854","<button class=""jspsych-btn""><img src=""stimuli/neonyellow.png"" style=""width: 200px;height: 200px;""></button>","0","neonyellow","pink","[""neonyellow"",""pink"",""low nameability""]","left-right","[""neonyellow"",""pink"",""low nameability""]","1","low nameability","2","left","response","1"
"html-audio-button-response","27","315446","0.0-21.0-1.0","CAN_122","122","","","","","","null","stimuli/bleep.m4a","null","neonyellow","pink","[""neonyellow"",""pink"",""low nameability""]","left-right","[""neonyellow"",""pink"",""low nameability""]","1","low nameability","2","left","audio_feedback","1"
"html-button-response","28","315966","0.0-22.0","CAN_122","122","","","","","","null","<button class=""jspsych-btn""><img src=""stimuli/white_square.png"" style=""width: 200px;height: 200px;""></button>","null","neonyellow","pink","[""neonyellow"",""pink"",""low nameability""]","left-right","[""neonyellow"",""pink"",""low nameability""]","1","low nameability","2","left","iti",""
"html-button-response","29","316421","0.0-23.0","CAN_122","122","","","","","","437","","0","mustard","pink","[""mustard"",""pink"",""low nameability""]","right-left","[""pink"",""mustard""]","1","low nameability","3","right","trigger",""
"html-button-response","30","317179","0.0-24.0-0.0","CAN_122","122","","","","","","750","<button class=""jspsych-btn""><img src=""stimuli/mustard.png"" style=""width: 200px;height: 200px;""></button>","1","mustard","pink","[""mustard"",""pink"",""low nameability""]","right-left","[""pink"",""mustard""]","1","low nameability","3","right","response","1"
"html-audio-button-response","31","317381","0.0-24.0-1.0","CAN_122","122","","","","","","null","stimuli/bleep.m4a","null","mustard","pink","[""mustard"",""pink"",""low nameability""]","right-left","[""pink"",""mustard""]","1","low nameability","3","right","audio_feedback","1"
"html-button-response","32","317897","0.0-25.0","CAN_122","122","","","","","","null","<button class=""jspsych-btn""><img src=""stimuli/white_square.png"" style=""width: 200px;height: 200px;""></button>","null","mustard","pink","[""mustard"",""pink"",""low nameability""]","right-left","[""pink"",""mustard""]","1","low nameability","3","right","iti",""
"html-button-response","33","318468","0.0-26.0","CAN_122","122","","","","","","541","","0","orange","yellow","[""orange"",""yellow"",""high nameability""]","left-right","[""orange"",""yellow"",""high nameability""]","1","high nameability","4","left","trigger",""
"html-button-response","34","319313","0.0-27.0-0.0","CAN_122","122","","","","","","837","<button class=""jspsych-btn""><img src=""stimuli/orange.png"" style=""width: 200px;height: 200px;""></button>","0","orange","yellow","[""orange"",""yellow"",""high nameability""]","left-right","[""orange"",""yellow"",""high nameability""]","1","high nameability","4","left","response","1"
"html-audio-button-response","35","319516","0.0-27.0-1.0","CAN_122","122","","","","","","null","stimuli/bleep.m4a","null","orange","yellow","[""orange"",""yellow"",""high nameability""]","left-right","[""orange"",""yellow"",""high nameability""]","1","high nameability","4","left","audio_feedback","1"
"html-button-response","36","320033","0.0-28.0","CAN_122","122","","","","","","null","<button class=""jspsych-btn""><img src=""stimuli/white_square.png"" style=""width: 200px;height: 200px;""></button>","null","orange","yellow","[""orange"",""yellow"",""high nameability""]","left-right","[""orange"",""yellow"",""high nameability""]","1","high nameability","4","left","iti",""
"html-button-response","37","320509","0.0-29.0","CAN_122","122","","","","","","453","","0","darkgreenblue","turquoise","[""darkgreenblue"",""turquoise"",""low nameability""]","right-left","[""turquoise"",""darkgreenblue""]","1","low nameability","5","right","trigger",""
"html-button-response","38","321477","0.0-30.0-0.0","CAN_122","122","","","","","","958","<button class=""jspsych-btn""><img src=""stimuli/darkgreenblue.png"" style=""width: 200px;height: 200px;""></button>","1","darkgreenblue","turquoise","[""darkgreenblue"",""turquoise"",""low nameability""]","right-left","[""turquoise"",""darkgreenblue""]","1","low nameability","5","right","response","1"
"html-audio-button-response","39","321682","0.0-30.0-1.0","CAN_122","122","","","","","","null","stimuli/bleep.m4a","null","darkgreenblue","turquoise","[""darkgreenblue"",""turquoise"",""low nameability""]","right-left","[""turquoise"",""darkgreenblue""]","1","low nameability","5","right","audio_feedback","1"
"html-button-response","40","322198","0.0-31.0","CAN_122","122","","","","","","null","<button class=""jspsych-btn""><img src=""stimuli/white_square.png"" style=""width: 200px;height: 200px;""></button>","null","darkgreenblue","turquoise","[""darkgreenblue"",""turquoise"",""low nameability""]","right-left","[""turquoise"",""darkgreenblue""]","1","low nameability","5","right","iti",""
"html-button-response","41","322728","0.0-32.0","CAN_122","122","","","","","","513","","0","mustard","lightred","[""mustard"",""lightred"",""low nameability""]","left-right","[""mustard"",""lightred"",""low nameability""]","1","low nameability","6","left","trigger",""
"html-button-response","42","323468","0.0-33.0-0.0","CAN_122","122","","","","","","733","<button class=""jspsych-btn""><img src=""stimuli/mustard.png"" style=""width: 200px;height: 200px;""></button>","0","mustard","lightred","[""mustard"",""lightred"",""low nameability""]","left-right","[""mustard"",""lightred"",""low nameability""]","1","low nameability","6","left","response","1"
"html-audio-button-response","43","323669","0.0-33.0-1.0","CAN_122","122","","","","","","null","stimuli/bleep.m4a","null","mustard","lightred","[""mustard"",""lightred"",""low nameability""]","left-right","[""mustard"",""lightred"",""low nameability""]","1","low nameability","6","left","audio_feedback","1"
"html-button-response","44","324189","0.0-34.0","CAN_122","122","","","","","","null","<button class=""jspsych-btn""><img src=""stimuli/white_square.png"" style=""width: 200px;height: 200px;""></button>","null","mustard","lightred","[""mustard"",""lightred"",""low nameability""]","left-right","[""mustard"",""lightred"",""low nameability""]","1","low nameability","6","left","iti",""
"html-button-response","45","324579","0.0-35.0","CAN_122","122","","","","","","366","","0","neonyellow","darkgreenblue","[""neonyellow"",""darkgreenblue"",""low nameability""]","right-left","[""darkgreenblue"",""neonyellow""]","1","low nameability","7","right","trigger",""
"html-button-response","46","325264","0.0-36.0-0.0","CAN_122","122","","","","","","678","<button class=""jspsych-btn""><img src=""stimuli/neonyellow.png"" style=""width: 200px;height: 200px;""></button>","1","neonyellow","darkgreenblue","[""neonyellow"",""darkgreenblue"",""low nameability""]","right-left","[""darkgreenblue"",""neonyellow""]","1","low nameability","7","right","response","1"
"html-audio-button-response","47","325475","0.0-36.0-1.0","CAN_122","122","","","","","","null","stimuli/bleep.m4a","null","neonyellow","darkgreenblue","[""neonyellow"",""darkgreenblue"",""low nameability""]","right-left","[""darkgreenblue"",""neonyellow""]","1","low nameability","7","right","audio_feedback","1"
"html-button-response","48","326005","0.0-37.0","CAN_122","122","","","","","","null","<button class=""jspsych-btn""><img src=""stimuli/white_square.png"" style=""width: 200px;height: 200px;""></button>","null","neonyellow","darkgreenblue","[""neonyellow"",""darkgreenblue"",""low nameability""]","right-left","[""darkgreenblue"",""neonyellow""]","1","low nameability","7","right","iti",""
"html-button-response","49","326465","0.0-38.0","CAN_122","122","","","","","","439","","0","lightred","pink","[""lightred"",""pink"",""low nameability""]","right-left","[""pink"",""lightred""]","1","low nameability","8","right","trigger",""
"html-button-response","50","327164","0.0-39.0-0.0","CAN_122","122","","","","","","691","<button class=""jspsych-btn""><img src=""stimuli/lightred.png"" style=""width: 200px;height: 200px;""></button>","1","lightred","pink","[""lightred"",""pink"",""low nameability""]","right-left","[""pink"",""lightred""]","1","low nameability","8","right","response","1"
"html-audio-button-response","51","327369","0.0-39.0-1.0","CAN_122","122","","","","","","null","stimuli/bleep.m4a","null","lightred","pink","[""lightred"",""pink"",""low nameability""]","right-left","[""pink"",""lightred""]","1","low nameability","8","right","audio_feedback","1"
"html-button-response","52","327887","0.0-40.0","CAN_122","122","","","","","","null","<button class=""jspsych-btn""><img src=""stimuli/white_square.png"" style=""width: 200px;height: 200px;""></button>","null","lightred","pink","[""lightred"",""pink"",""low nameability""]","right-left","[""pink"",""lightred""]","1","low nameability","8","right","iti",""
"html-button-response","53","328363","0.0-41.0","CAN_122","122","","","","","","454","","0","lightred","darkgreenblue","[""lightred"",""darkgreenblue"",""low nameability""]","left-right","[""lightred"",""darkgreenblue"",""low nameability""]","1","low nameability","9","left","trigger",""
"html-button-response","54","329155","0.0-42.0-0.0","CAN_122","122","","","","","","785","<button class=""jspsych-btn""><img src=""stimuli/lightred.png"" style=""width: 200px;height: 200px;""></button>","0","lightred","darkgreenblue","[""lightred"",""darkgreenblue"",""low nameability""]","left-right","[""lightred"",""darkgreenblue"",""low nameability""]","1","low nameability","9","left","response","1"
"html-audio-button-response","55","329358","0.0-42.0-1.0","CAN_122","122","","","","","","null","stimuli/bleep.m4a","null","lightred","darkgreenblue","[""lightred"",""darkgreenblue"",""low nameability""]","left-right","[""lightred"",""darkgreenblue"",""low nameability""]","1","low nameability","9","left","audio_feedback","1"
"html-button-response","56","329879","0.0-43.0","CAN_122","122","","","","","","null","<button class=""jspsych-btn""><img src=""stimuli/white_square.png"" style=""width: 200px;height: 200px;""></button>","null","lightred","darkgreenblue","[""lightred"",""darkgreenblue"",""low nameability""]","left-right","[""lightred"",""darkgreenblue"",""low nameability""]","1","low nameability","9","left","iti",""
"html-button-response","57","330310","0.0-44.0","CAN_122","122","","","","","","413","","0","blue","orange","[""blue"",""orange"",""high nameability""]","right-left","[""orange"",""blue""]","1","high nameability","10","right","trigger",""
"html-button-response","58","330941","0.0-45.0-0.0","CAN_122","122","","","","","","623","<button class=""jspsych-btn""><img src=""stimuli/blue.png"" style=""width: 200px;height: 200px;""></button>","1","blue","orange","[""blue"",""orange"",""high nameability""]","right-left","[""orange"",""blue""]","1","high nameability","10","right","response","1"
"html-audio-button-response","59","331146","0.0-45.0-1.0","CAN_122","122","","","","","","null","stimuli/bleep.m4a","null","blue","orange","[""blue"",""orange"",""high nameability""]","right-left","[""orange"",""blue""]","1","high nameability","10","right","audio_feedback","1"
"html-button-response","60","331664","0.0-46.0","CAN_122","122","","","","","","null","<button class=""jspsych-btn""><img src=""stimuli/white_square.png"" style=""width: 200px;height: 200px;""></button>","null","blue","orange","[""blue"",""orange"",""high nameability""]","right-left","[""orange"",""blue""]","1","high nameability","10","right","iti",""
"pavlovia","61","331710","0.0-47.0","CAN_122","122","","","","","","","","","","","","","","","","","","",""
"pavlovia","62","331724","0.0-48.0","CAN_122","122","","","","","","","","","","","","","","","","","","",""
"html-audio-button-response","63","338461","0.0-49.0","CAN_122","122","","","","","","6787","stimuli/tada.m4a","0","","","","","","","","","","",""
"html-button-response","64","339700","0.0-50.0","CAN_122","122","","","","","","1232","","0","","","","","","","","","","",""
"html-button-response","65","340354","0.0-51.0","CAN_122","122","","","","","","647","","0","yellow","blue","[""yellow"",""blue"",""high nameability""]","left-right","[""yellow"",""blue"",""high nameability""]","2","high nameability","11","left","trigger",""
"html-button-response","66","341087","0.0-52.0-0.0","CAN_122","122","","","","","","726","<button class=""jspsych-btn""><img src=""stimuli/yellow.png"" style=""width: 200px;height: 200px;""></button>","0","yellow","blue","[""yellow"",""blue"",""high nameability""]","left-right","[""yellow"",""blue"",""high nameability""]","2","high nameability","11","left","response","1"
"html-audio-button-response","67","341291","0.0-52.0-1.0","CAN_122","122","","","","","","null","stimuli/bleep.m4a","null","yellow","blue","[""yellow"",""blue"",""high nameability""]","left-right","[""yellow"",""blue"",""high nameability""]","2","high nameability","11","left","audio_feedback","1"
"html-button-response","68","341813","0.0-53.0","CAN_122","122","","","","","","null","<button class=""jspsych-btn""><img src=""stimuli/white_square.png"" style=""width: 200px;height: 200px;""></button>","null","yellow","blue","[""yellow"",""blue"",""high nameability""]","left-right","[""yellow"",""blue"",""high nameability""]","2","high nameability","11","left","iti",""
"html-button-response","69","342476","0.0-54.0","CAN_122","122","","","","","","641","","0","red","brown","[""red"",""brown"",""high nameability""]","right-left","[""brown"",""red""]","2","high nameability","12","right","trigger",""
"html-button-response","70","343063","0.0-55.0-0.0","CAN_122","122","","","","","","579","<button class=""jspsych-btn""><img src=""stimuli/red.png"" style=""width: 200px;height: 200px;""></button>","1","red","brown","[""red"",""brown"",""high nameability""]","right-left","[""brown"",""red""]","2","high nameability","12","right","response","1"
"html-audio-button-response","71","343265","0.0-55.0-1.0","CAN_122","122","","","","","","null","stimuli/bleep.m4a","null","red","brown","[""red"",""brown"",""high nameability""]","right-left","[""brown"",""red""]","2","high nameability","12","right","audio_feedback","1"
"html-button-response","72","343789","0.0-56.0","CAN_122","122","","","","","","null","<button class=""jspsych-btn""><img src=""stimuli/white_square.png"" style=""width: 200px;height: 200px;""></button>","null","red","brown","[""red"",""brown"",""high nameability""]","right-left","[""brown"",""red""]","2","high nameability","12","right","iti",""
"html-button-response","73","344184","0.0-57.0","CAN_122","122","","","","","","378","","0","pink","lightred","[""pink"",""lightred"",""low nameability""]","right-left","[""lightred"",""pink""]","2","low nameability","13","right","trigger",""
"html-button-response","74","344918","0.0-58.0-0.0","CAN_122","122","","","","","","725","<button class=""jspsych-btn""><img src=""stimuli/pink.png"" style=""width: 200px;height: 200px;""></button>","1","pink","lightred","[""pink"",""lightred"",""low nameability""]","right-left","[""lightred"",""pink""]","2","low nameability","13","right","response","1"
"html-audio-button-response","75","345124","0.0-58.0-1.0","CAN_122","122","","","","","","null","stimuli/bleep.m4a","null","pink","lightred","[""pink"",""lightred"",""low nameability""]","right-left","[""lightred"",""pink""]","2","low nameability","13","right","audio_feedback","1"
"html-button-response","76","345641","0.0-59.0","CAN_122","122","","","","","","null","<button class=""jspsych-btn""><img src=""stimuli/white_square.png"" style=""width: 200px;height: 200px;""></button>","null","pink","lightred","[""pink"",""lightred"",""low nameability""]","right-left","[""lightred"",""pink""]","2","low nameability","13","right","iti",""
"html-button-response","77","346073","0.0-60.0","CAN_122","122","","","","","","414","","0","blue","brown","[""blue"",""brown"",""high nameability""]","right-left","[""brown"",""blue""]","2","high nameability","14","right","trigger",""
"html-button-response","78","346653","0.0-61.0-0.0","CAN_122","122","","","","","","570","<button class=""jspsych-btn""><img src=""stimuli/blue.png"" style=""width: 200px;height: 200px;""></button>","1","blue","brown","[""blue"",""brown"",""high nameability""]","right-left","[""brown"",""blue""]","2","high nameability","14","right","response","1"
"html-audio-button-response","79","346857","0.0-61.0-1.0","CAN_122","122","","","","","","null","stimuli/bleep.m4a","null","blue","brown","[""blue"",""brown"",""high nameability""]","right-left","[""brown"",""blue""]","2","high nameability","14","right","audio_feedback","1"
"html-button-response","80","347378","0.0-62.0","CAN_122","122","","","","","","null","<button class=""jspsych-btn""><img src=""stimuli/white_square.png"" style=""width: 200px;height: 200px;""></button>","null","blue","brown","[""blue"",""brown"",""high nameability""]","right-left","[""brown"",""blue""]","2","high nameability","14","right","iti",""
"html-button-response","81","347778","0.0-63.0","CAN_122","122","","","","","","384","","0","darkgreenblue","pink","[""darkgreenblue"",""pink"",""low nameability""]","left-right","[""darkgreenblue"",""pink"",""low nameability""]","2","low nameability","15","left","trigger",""
"html-button-response","82","348458","0.0-64.0-0.0","CAN_122","122","","","","","","673","<button class=""jspsych-btn""><img src=""stimuli/darkgreenblue.png"" style=""width: 200px;height: 200px;""></button>","0","darkgreenblue","pink","[""darkgreenblue"",""pink"",""low nameability""]","left-right","[""darkgreenblue"",""pink"",""low nameability""]","2","low nameability","15","left","response","1"
"html-audio-button-response","83","348661","0.0-64.0-1.0","CAN_122","122","","","","","","null","stimuli/bleep.m4a","null","darkgreenblue","pink","[""darkgreenblue"",""pink"",""low nameability""]","left-right","[""darkgreenblue"",""pink"",""low nameability""]","2","low nameability","15","left","audio_feedback","1"
"html-button-response","84","349183","0.0-65.0","CAN_122","122","","","","","","null","<button class=""jspsych-btn""><img src=""stimuli/white_square.png"" style=""width: 200px;height: 200px;""></button>","null","darkgreenblue","pink","[""darkgreenblue"",""pink"",""low nameability""]","left-right","[""darkgreenblue"",""pink"",""low nameability""]","2","low nameability","15","left","iti",""
"html-button-response","85","349504","0.0-66.0","CAN_122","122","","","","","","305","","0","turquoise","neonyellow","[""turquoise"",""neonyellow"",""low nameability""]","right-left","[""neonyellow"",""turquoise""]","2","low nameability","16","right","trigger",""
"html-button-response","86","350172","0.0-67.0-0.0","CAN_122","122","","","","","","660","<button class=""jspsych-btn""><img src=""stimuli/turquoise.png"" style=""width: 200px;height: 200px;""></button>","1","turquoise","neonyellow","[""turquoise"",""neonyellow"",""low nameability""]","right-left","[""neonyellow"",""turquoise""]","2","low nameability","16","right","response","1"
"html-audio-button-response","87","350379","0.0-67.0-1.0","CAN_122","122","","","","","","null","stimuli/bleep.m4a","null","turquoise","neonyellow","[""turquoise"",""neonyellow"",""low nameability""]","right-left","[""neonyellow"",""turquoise""]","2","low nameability","16","right","audio_feedback","1"
"html-button-response","88","350901","0.0-68.0","CAN_122","122","","","","","","null","<button class=""jspsych-btn""><img src=""stimuli/white_square.png"" style=""width: 200px;height: 200px;""></button>","null","turquoise","neonyellow","[""turquoise"",""neonyellow"",""low nameability""]","right-left","[""neonyellow"",""turquoise""]","2","low nameability","16","right","iti",""
"html-button-response","89","350933","0.0-69.0","CAN_122","122","","","","","","21","","0","brown","purple","[""brown"",""purple"",""high nameability""]","left-right","[""brown"",""purple"",""high nameability""]","2","high nameability","17","left","trigger",""
"html-button-response","90","352172","0.0-70.0-0.0","CAN_122","122","","","","","","1234","<button class=""jspsych-btn""><img src=""stimuli/brown.png"" style=""width: 200px;height: 200px;""></button>","0","brown","purple","[""brown"",""purple"",""high nameability""]","left-right","[""brown"",""purple"",""high nameability""]","2","high nameability","17","left","response","1"
"html-audio-button-response","91","352377","0.0-70.0-1.0","CAN_122","122","","","","","","null","stimuli/bleep.m4a","null","brown","purple","[""brown"",""purple"",""high nameability""]","left-right","[""brown"",""purple"",""high nameability""]","2","high nameability","17","left","audio_feedback","1"
"html-button-response","92","352903","0.0-71.0","CAN_122","122","","","","","","null","<button class=""jspsych-btn""><img src=""stimuli/white_square.png"" style=""width: 200px;height: 200px;""></button>","null","brown","purple","[""brown"",""purple"",""high nameability""]","left-right","[""brown"",""purple"",""high nameability""]","2","high nameability","17","left","iti",""
"html-button-response","93","353390","0.0-72.0","CAN_122","122","","","","","","471","","0","darkgreenblue","lightred","[""darkgreenblue"",""lightred"",""low nameability""]","right-left","[""lightred"",""darkgreenblue""]","2","low nameability","18","right","trigger",""
"html-button-response","94","354098","0.0-73.0-0.0","CAN_122","122","","","","","","701","<button class=""jspsych-btn""><img src=""stimuli/darkgreenblue.png"" style=""width: 200px;height: 200px;""></button>","1","darkgreenblue","lightred","[""darkgreenblue"",""lightred"",""low nameability""]","right-left","[""lightred"",""darkgreenblue""]","2","low nameability","18","right","response","1"
"html-audio-button-response","95","354298","0.0-73.0-1.0","CAN_122","122","","","","","","null","stimuli/bleep.m4a","null","darkgreenblue","lightred","[""darkgreenblue"",""lightred"",""low nameability""]","right-left","[""lightred"",""darkgreenblue""]","2","low nameability","18","right","audio_feedback","1"
"html-button-response","96","354819","0.0-74.0","CAN_122","122","","","","","","null","<button class=""jspsych-btn""><img src=""stimuli/white_square.png"" style=""width: 200px;height: 200px;""></button>","null","darkgreenblue","lightred","[""darkgreenblue"",""lightred"",""low nameability""]","right-left","[""lightred"",""darkgreenblue""]","2","low nameability","18","right","iti",""
"html-button-response","97","355288","0.0-75.0","CAN_122","122","","","","","","450","","0","purple","yellow","[""purple"",""yellow"",""high nameability""]","left-right","[""purple"",""yellow"",""high nameability""]","2","high nameability","19","left","trigger",""
"html-button-response","98","355961","0.0-76.0-0.0","CAN_122","122","","","","","","666","<button class=""jspsych-btn""><img src=""stimuli/purple.png"" style=""width: 200px;height: 200px;""></button>","0","purple","yellow","[""purple"",""yellow"",""high nameability""]","left-right","[""purple"",""yellow"",""high nameability""]","2","high nameability","19","left","response","1"
"html-audio-button-response","99","356165","0.0-76.0-1.0","CAN_122","122","","","","","","null","stimuli/bleep.m4a","null","purple","yellow","[""purple"",""yellow"",""high nameability""]","left-right","[""purple"",""yellow"",""high nameability""]","2","high nameability","19","left","audio_feedback","1"
"html-button-response","100","356687","0.0-77.0","CAN_122","122","","","","","","null","<button class=""jspsych-btn""><img src=""stimuli/white_square.png"" style=""width: 200px;height: 200px;""></button>","null","purple","yellow","[""purple"",""yellow"",""high nameability""]","left-right","[""purple"",""yellow"",""high nameability""]","2","high nameability","19","left","iti",""
"html-button-response","101","357163","0.0-78.0","CAN_122","122","","","","","","452","","0","mustard","neonyellow","[""mustard"",""neonyellow"",""low nameability""]","left-right","[""mustard"",""neonyellow"",""low nameability""]","2","low nameability","20","left","trigger",""
"html-button-response","102","357917","0.0-79.0-0.0","CAN_122","122","","","","","","748","<button class=""jspsych-btn""><img src=""stimuli/mustard.png"" style=""width: 200px;height: 200px;""></button>","0","mustard","neonyellow","[""mustard"",""neonyellow"",""low nameability""]","left-right","[""mustard"",""neonyellow"",""low nameability""]","2","low nameability","20","left","response","1"
"html-audio-button-response","103","358117","0.0-79.0-1.0","CAN_122","122","","","","","","null","stimuli/bleep.m4a","null","mustard","neonyellow","[""mustard"",""neonyellow"",""low nameability""]","left-right","[""mustard"",""neonyellow"",""low nameability""]","2","low nameability","20","left","audio_feedback","1"
"html-button-response","104","358638","0.0-80.0","CAN_122","122","","","","","","null","<button class=""jspsych-btn""><img src=""stimuli/white_square.png"" style=""width: 200px;height: 200px;""></button>","null","mustard","neonyellow","[""mustard"",""neonyellow"",""low nameability""]","left-right","[""mustard"",""neonyellow"",""low nameability""]","2","low nameability","20","left","iti",""
"pavlovia","105","358679","0.0-81.0","CAN_122","122","","","","","","","","","","","","","","","","","","",""
"pavlovia","106","358684","0.0-82.0","CAN_122","122","","","","","","","","","","","","","","","","","","",""
"html-audio-button-response","107","360132","0.0-83.0","CAN_122","122","","","","","","1493","stimuli/tada.m4a","0","","","","","","","","","","",""
"html-button-response","108","361139","0.0-84.0","CAN_122","122","","","","","","1004","","0","","","","","","","","","","",""
"html-button-response","109","361790","0.0-85.0","CAN_122","122","","","","","","645","","0","purple","orange","[""purple"",""orange"",""high nameability""]","right-left","[""orange"",""purple""]","3","high nameability","21","right","trigger",""
"html-button-response","110","362495","0.0-86.0-0.0","CAN_122","122","","","","","","699","<button class=""jspsych-btn""><img src=""stimuli/purple.png"" style=""width: 200px;height: 200px;""></button>","1","purple","orange","[""purple"",""orange"",""high nameability""]","right-left","[""orange"",""purple""]","3","high nameability","21","right","response","1"
"html-audio-button-response","111","362696","0.0-86.0-1.0","CAN_122","122","","","","","","null","stimuli/bleep.m4a","null","purple","orange","[""purple"",""orange"",""high nameability""]","right-left","[""orange"",""purple""]","3","high nameability","21","right","audio_feedback","1"
"html-button-response","112","363215","0.0-87.0","CAN_122","122","","","","","","null","<button class=""jspsych-btn""><img src=""stimuli/white_square.png"" style=""width: 200px;height: 200px;""></button>","null","purple","orange","[""purple"",""orange"",""high nameability""]","right-left","[""orange"",""purple""]","3","high nameability","21","right","iti",""
"html-button-response","113","363621","0.0-88.0","CAN_122","122","","","","","","391","","0","orange","red","[""orange"",""red"",""high nameability""]","left-right","[""orange"",""red"",""high nameability""]","3","high nameability","22","left","trigger",""
"html-button-response","114","364261","0.0-89.0-0.0","CAN_122","122","","","","","","635","<button class=""jspsych-btn""><img src=""stimuli/orange.png"" style=""width: 200px;height: 200px;""></button>","0","orange","red","[""orange"",""red"",""high nameability""]","left-right","[""orange"",""red"",""high nameability""]","3","high nameability","22","left","response","1"
"html-audio-button-response","115","364460","0.0-89.0-1.0","CAN_122","122","","","","","","null","stimuli/bleep.m4a","null","orange","red","[""orange"",""red"",""high nameability""]","left-right","[""orange"",""red"",""high nameability""]","3","high nameability","22","left","audio_feedback","1"
"html-button-response","116","364975","0.0-90.0","CAN_122","122","","","","","","null","<button class=""jspsych-btn""><img src=""stimuli/white_square.png"" style=""width: 200px;height: 200px;""></button>","null","orange","red","[""orange"",""red"",""high nameability""]","left-right","[""orange"",""red"",""high nameability""]","3","high nameability","22","left","iti",""
"html-button-response","117","365406","0.0-91.0","CAN_122","122","","","","","","413","","0","blue","yellow","[""blue"",""yellow"",""high nameability""]","right-left","[""yellow"",""blue""]","3","high nameability","23","right","trigger",""
"html-button-response","118","366000","0.0-92.0-0.0","CAN_122","122","","","","","","583","<button class=""jspsych-btn""><img src=""stimuli/blue.png"" style=""width: 200px;height: 200px;""></button>","1","blue","yellow","[""blue"",""yellow"",""high nameability""]","right-left","[""yellow"",""blue""]","3","high nameability","23","right","response","1"
"html-audio-button-response","119","366201","0.0-92.0-1.0","CAN_122","122","","","","","","null","stimuli/bleep.m4a","null","blue","yellow","[""blue"",""yellow"",""high nameability""]","right-left","[""yellow"",""blue""]","3","high nameability","23","right","audio_feedback","1"
"html-button-response","120","366717","0.0-93.0","CAN_122","122","","","","","","null","<button class=""jspsych-btn""><img src=""stimuli/white_square.png"" style=""width: 200px;height: 200px;""></button>","null","blue","yellow","[""blue"",""yellow"",""high nameability""]","right-left","[""yellow"",""blue""]","3","high nameability","23","right","iti",""
"html-button-response","121","367154","0.0-94.0","CAN_122","122","","","","","","420","","0","darkgreenblue","neonyellow","[""darkgreenblue"",""neonyellow"",""low nameability""]","right-left","[""neonyellow"",""darkgreenblue""]","3","low nameability","24","right","trigger",""
"html-button-response","122","367779","0.0-95.0-0.0","CAN_122","122","","","","","","615","<button class=""jspsych-btn""><img src=""stimuli/darkgreenblue.png"" style=""width: 200px;height: 200px;""></button>","1","darkgreenblue","neonyellow","[""darkgreenblue"",""neonyellow"",""low nameability""]","right-left","[""neonyellow"",""darkgreenblue""]","3","low nameability","24","right","response","1"
"html-audio-button-response","123","367984","0.0-95.0-1.0","CAN_122","122","","","","","","null","stimuli/bleep.m4a","null","darkgreenblue","neonyellow","[""darkgreenblue"",""neonyellow"",""low nameability""]","right-left","[""neonyellow"",""darkgreenblue""]","3","low nameability","24","right","audio_feedback","1"
"html-button-response","124","368504","0.0-96.0","CAN_122","122","","","","","","null","<button class=""jspsych-btn""><img src=""stimuli/white_square.png"" style=""width: 200px;height: 200px;""></button>","null","darkgreenblue","neonyellow","[""darkgreenblue"",""neonyellow"",""low nameability""]","right-left","[""neonyellow"",""darkgreenblue""]","3","low nameability","24","right","iti",""
"html-button-response","125","368911","0.0-97.0","CAN_122","122","","","","","","386","","0","purple","brown","[""purple"",""brown"",""high nameability""]","left-right","[""purple"",""brown"",""high nameability""]","3","high nameability","25","left","trigger",""
"html-button-response","126","369528","0.0-98.0-0.0","CAN_122","122","","","","","","609","<button class=""jspsych-btn""><img src=""stimuli/purple.png"" style=""width: 200px;height: 200px;""></button>","0","purple","brown","[""purple"",""brown"",""high nameability""]","left-right","[""purple"",""brown"",""high nameability""]","3","high nameability","25","left","response","1"
"html-audio-button-response","127","369730","0.0-98.0-1.0","CAN_122","122","","","","","","null","stimuli/bleep.m4a","null","purple","brown","[""purple"",""brown"",""high nameability""]","left-right","[""purple"",""brown"",""high nameability""]","3","high nameability","25","left","audio_feedback","1"
"html-button-response","128","370250","0.0-99.0","CAN_122","122","","","","","","null","<button class=""jspsych-btn""><img src=""stimuli/white_square.png"" style=""width: 200px;height: 200px;""></button>","null","purple","brown","[""purple"",""brown"",""high nameability""]","left-right","[""purple"",""brown"",""high nameability""]","3","high nameability","25","left","iti",""
"html-button-response","129","370693","0.0-100.0","CAN_122","122","","","","","","417","","0","red","blue","[""red"",""blue"",""high nameability""]","right-left","[""blue"",""red""]","3","high nameability","26","right","trigger",""
"html-button-response","130","371295","0.0-101.0-0.0","CAN_122","122","","","","","","594","<button class=""jspsych-btn""><img src=""stimuli/red.png"" style=""width: 200px;height: 200px;""></button>","1","red","blue","[""red"",""blue"",""high nameability""]","right-left","[""blue"",""red""]","3","high nameability","26","right","response","1"
"html-audio-button-response","131","371503","0.0-101.0-1.0","CAN_122","122","","","","","","null","stimuli/bleep.m4a","null","red","blue","[""red"",""blue"",""high nameability""]","right-left","[""blue"",""red""]","3","high nameability","26","right","audio_feedback","1"
"html-button-response","132","372020","0.0-102.0","CAN_122","122","","","","","","null","<button class=""jspsych-btn""><img src=""stimuli/white_square.png"" style=""width: 200px;height: 200px;""></button>","null","red","blue","[""red"",""blue"",""high nameability""]","right-left","[""blue"",""red""]","3","high nameability","26","right","iti",""
"html-button-response","133","372437","0.0-103.0","CAN_122","122","","","","","","400","","0","orange","purple","[""orange"",""purple"",""high nameability""]","left-right","[""orange"",""purple"",""high nameability""]","3","high nameability","27","left","trigger",""
"html-button-response","134","373044","0.0-104.0-0.0","CAN_122","122","","","","","","599","<button class=""jspsych-btn""><img src=""stimuli/orange.png"" style=""width: 200px;height: 200px;""></button>","0","orange","purple","[""orange"",""purple"",""high nameability""]","left-right","[""orange"",""purple"",""high nameability""]","3","high nameability","27","left","response","1"
"html-audio-button-response","135","373249","0.0-104.0-1.0","CAN_122","122","","","","","","null","stimuli/bleep.m4a","null","orange","purple","[""orange"",""purple"",""high nameability""]","left-right","[""orange"",""purple"",""high nameability""]","3","high nameability","27","left","audio_feedback","1"
"html-button-response","136","373765","0.0-105.0","CAN_122","122","","","","","","null","<button class=""jspsych-btn""><img src=""stimuli/white_square.png"" style=""width: 200px;height: 200px;""></button>","null","orange","purple","[""orange"",""purple"",""high nameability""]","left-right","[""orange"",""purple"",""high nameability""]","3","high nameability","27","left","iti",""
"html-button-response","137","374173","0.0-106.0","CAN_122","122","","","","","","388","","0","mustard","turquoise","[""mustard"",""turquoise"",""low nameability""]","left-right","[""mustard"",""turquoise"",""low nameability""]","3","low nameability","28","left","trigger",""
"html-button-response","138","374786","0.0-107.0-0.0","CAN_122","122","","","","","","605","<button class=""jspsych-btn""><img src=""stimuli/mustard.png"" style=""width: 200px;height: 200px;""></button>","0","mustard","turquoise","[""mustard"",""turquoise"",""low nameability""]","left-right","[""mustard"",""turquoise"",""low nameability""]","3","low nameability","28","left","response","1"
"html-audio-button-response","139","374989","0.0-107.0-1.0","CAN_122","122","","","","","","null","stimuli/bleep.m4a","null","mustard","turquoise","[""mustard"",""turquoise"",""low nameability""]","left-right","[""mustard"",""turquoise"",""low nameability""]","3","low nameability","28","left","audio_feedback","1"
"html-button-response","140","375508","0.0-108.0","CAN_122","122","","","","","","null","<button class=""jspsych-btn""><img src=""stimuli/white_square.png"" style=""width: 200px;height: 200px;""></button>","null","mustard","turquoise","[""mustard"",""turquoise"",""low nameability""]","left-right","[""mustard"",""turquoise"",""low nameability""]","3","low nameability","28","left","iti",""
"html-button-response","141","375992","0.0-109.0","CAN_122","122","","","","","","464","","0","orange","blue","[""orange"",""blue"",""high nameability""]","right-left","[""blue"",""orange""]","3","high nameability","29","right","trigger",""
"html-button-response","142","376569","0.0-110.0-0.0","CAN_122","122","","","","","","569","<button class=""jspsych-btn""><img src=""stimuli/orange.png"" style=""width: 200px;height: 200px;""></button>","1","orange","blue","[""orange"",""blue"",""high nameability""]","right-left","[""blue"",""orange""]","3","high nameability","29","right","response","1"
"html-audio-button-response","143","376778","0.0-110.0-1.0","CAN_122","122","","","","","","null","stimuli/bleep.m4a","null","orange","blue","[""orange"",""blue"",""high nameability""]","right-left","[""blue"",""orange""]","3","high nameability","29","right","audio_feedback","1"
"html-button-response","144","377292","0.0-111.0","CAN_122","122","","","","","","null","<button class=""jspsych-btn""><img src=""stimuli/white_square.png"" style=""width: 200px;height: 200px;""></button>","null","orange","blue","[""orange"",""blue"",""high nameability""]","right-left","[""blue"",""orange""]","3","high nameability","29","right","iti",""
"html-button-response","145","377747","0.0-112.0","CAN_122","122","","","","","","438","","0","yellow","orange","[""yellow"",""orange"",""high nameability""]","right-left","[""orange"",""yellow""]","3","high nameability","30","right","trigger",""
"html-button-response","146","378400","0.0-113.0-0.0","CAN_122","122","","","","","","644","<button class=""jspsych-btn""><img src=""stimuli/yellow.png"" style=""width: 200px;height: 200px;""></button>","1","yellow","orange","[""yellow"",""orange"",""high nameability""]","right-left","[""orange"",""yellow""]","3","high nameability","30","right","response","1"
"html-audio-button-response","147","378605","0.0-113.0-1.0","CAN_122","122","","","","","","null","stimuli/bleep.m4a","null","yellow","orange","[""yellow"",""orange"",""high nameability""]","right-left","[""orange"",""yellow""]","3","high nameability","30","right","audio_feedback","1"
"html-button-response","148","379122","0.0-114.0","CAN_122","122","","","","","","null","<button class=""jspsych-btn""><img src=""stimuli/white_square.png"" style=""width: 200px;height: 200px;""></button>","null","yellow","orange","[""yellow"",""orange"",""high nameability""]","right-left","[""orange"",""yellow""]","3","high nameability","30","right","iti",""
"pavlovia","149","379188","0.0-115.0","CAN_122","122","","","","","","","","","","","","","","","","","","",""
"pavlovia","150","379194","0.0-116.0","CAN_122","122","","","","","","","","","","","","","","","","","","",""
"html-audio-button-response","151","380706","0.0-117.0","CAN_122","122","","","","","","1579","stimuli/tada.m4a","0","","","","","","","","","","",""
"html-button-response","152","381555","0.0-118.0","CAN_122","122","","","","","","843","","0","","","","","","","","","","",""
"html-button-response","153","382160","0.0-119.0","CAN_122","122","","","","","","597","","0","yellow","brown","[""yellow"",""brown"",""high nameability""]","left-right","[""yellow"",""brown"",""high nameability""]","4","high nameability","31","left","trigger",""
"html-button-response","154","382777","0.0-120.0-0.0","CAN_122","122","","","","","","608","<button class=""jspsych-btn""><img src=""stimuli/yellow.png"" style=""width: 200px;height: 200px;""></button>","0","yellow","brown","[""yellow"",""brown"",""high nameability""]","left-right","[""yellow"",""brown"",""high nameability""]","4","high nameability","31","left","response","1"
"html-audio-button-response","155","382981","0.0-120.0-1.0","CAN_122","122","","","","","","null","stimuli/bleep.m4a","null","yellow","brown","[""yellow"",""brown"",""high nameability""]","left-right","[""yellow"",""brown"",""high nameability""]","4","high nameability","31","left","audio_feedback","1"
"html-button-response","156","383495","0.0-121.0","CAN_122","122","","","","","","null","<button class=""jspsych-btn""><img src=""stimuli/white_square.png"" style=""width: 200px;height: 200px;""></button>","null","yellow","brown","[""yellow"",""brown"",""high nameability""]","left-right","[""yellow"",""brown"",""high nameability""]","4","high nameability","31","left","iti",""
"html-button-response","157","384012","0.0-122.0","CAN_122","122","","","","","","496","","0","purple","blue","[""purple"",""blue"",""high nameability""]","left-right","[""purple"",""blue"",""high nameability""]","4","high nameability","32","left","trigger",""
"html-button-response","158","384836","0.0-123.0-0.0","CAN_122","122","","","","","","811","<button class=""jspsych-btn""><img src=""stimuli/purple.png"" style=""width: 200px;height: 200px;""></button>","0","purple","blue","[""purple"",""blue"",""high nameability""]","left-right","[""purple"",""blue"",""high nameability""]","4","high nameability","32","left","response","1"
"html-audio-button-response","159","385041","0.0-123.0-1.0","CAN_122","122","","","","","","null","stimuli/bleep.m4a","null","purple","blue","[""purple"",""blue"",""high nameability""]","left-right","[""purple"",""blue"",""high nameability""]","4","high nameability","32","left","audio_feedback","1"
"html-button-response","160","385558","0.0-124.0","CAN_122","122","","","","","","null","<button class=""jspsych-btn""><img src=""stimuli/white_square.png"" style=""width: 200px;height: 200px;""></button>","null","purple","blue","[""purple"",""blue"",""high nameability""]","left-right","[""purple"",""blue"",""high nameability""]","4","high nameability","32","left","iti",""
"html-button-response","161","386039","0.0-125.0","CAN_122","122","","","","","","464","","0","turquoise","pink","[""turquoise"",""pink"",""low nameability""]","right-left","[""pink"",""turquoise""]","4","low nameability","33","right","trigger",""
"html-button-response","162","386681","0.0-126.0-0.0","CAN_122","122","","","","","","632","<button class=""jspsych-btn""><img src=""stimuli/turquoise.png"" style=""width: 200px;height: 200px;""></button>","1","turquoise","pink","[""turquoise"",""pink"",""low nameability""]","right-left","[""pink"",""turquoise""]","4","low nameability","33","right","response","1"
"html-audio-button-response","163","386886","0.0-126.0-1.0","CAN_122","122","","","","","","null","stimuli/bleep.m4a","null","turquoise","pink","[""turquoise"",""pink"",""low nameability""]","right-left","[""pink"",""turquoise""]","4","low nameability","33","right","audio_feedback","1"
"html-button-response","164","387402","0.0-127.0","CAN_122","122","","","","","","null","<button class=""jspsych-btn""><img src=""stimuli/white_square.png"" style=""width: 200px;height: 200px;""></button>","null","turquoise","pink","[""turquoise"",""pink"",""low nameability""]","right-left","[""pink"",""turquoise""]","4","low nameability","33","right","iti",""
"html-button-response","165","387937","0.0-128.0","CAN_122","122","","","","","","514","","0","red","orange","[""red"",""orange"",""high nameability""]","left-right","[""red"",""orange"",""high nameability""]","4","high nameability","34","left","trigger",""
"html-button-response","166","388814","0.0-129.0-0.0","CAN_122","122","","","","","","870","<button class=""jspsych-btn""><img src=""stimuli/red.png"" style=""width: 200px;height: 200px;""></button>","0","red","orange","[""red"",""orange"",""high nameability""]","left-right","[""red"",""orange"",""high nameability""]","4","high nameability","34","left","response","1"
"html-audio-button-response","167","389018","0.0-129.0-1.0","CAN_122","122","","","","","","null","stimuli/bleep.m4a","null","red","orange","[""red"",""orange"",""high nameability""]","left-right","[""red"",""orange"",""high nameability""]","4","high nameability","34","left","audio_feedback","1"
"html-button-response","168","389540","0.0-130.0","CAN_122","122","","","","","","null","<button class=""jspsych-btn""><img src=""stimuli/white_square.png"" style=""width: 200px;height: 200px;""></button>","null","red","orange","[""red"",""orange"",""high nameability""]","left-right","[""red"",""orange"",""high nameability""]","4","high nameability","34","left","iti",""
"html-button-response","169","390173","0.0-131.0","CAN_122","122","","","","","","612","","0","neonyellow","mustard","[""neonyellow"",""mustard"",""low nameability""]","left-right","[""neonyellow"",""mustard"",""low nameability""]","4","low nameability","35","left","trigger",""
"html-button-response","170","390795","0.0-132.0-0.0","CAN_122","122","","","","","","615","<button class=""jspsych-btn""><img src=""stimuli/neonyellow.png"" style=""width: 200px;height: 200px;""></button>","0","neonyellow","mustard","[""neonyellow"",""mustard"",""low nameability""]","left-right","[""neonyellow"",""mustard"",""low nameability""]","4","low nameability","35","left","response","1"
"html-audio-button-response","171","391002","0.0-132.0-1.0","CAN_122","122","","","","","","null","stimuli/bleep.m4a","null","neonyellow","mustard","[""neonyellow"",""mustard"",""low nameability""]","left-right","[""neonyellow"",""mustard"",""low nameability""]","4","low nameability","35","left","audio_feedback","1"
"html-button-response","172","391521","0.0-133.0","CAN_122","122","","","","","","null","<button class=""jspsych-btn""><img src=""stimuli/white_square.png"" style=""width: 200px;height: 200px;""></button>","null","neonyellow","mustard","[""neonyellow"",""mustard"",""low nameability""]","left-right","[""neonyellow"",""mustard"",""low nameability""]","4","low nameability","35","left","iti",""
"html-button-response","173","391934","0.0-134.0","CAN_122","122","","","","","","390","","0","brown","yellow","[""brown"",""yellow"",""high nameability""]","left-right","[""brown"",""yellow"",""high nameability""]","4","high nameability","36","left","trigger",""
"html-button-response","174","392565","0.0-135.0-0.0","CAN_122","122","","","","","","623","<button class=""jspsych-btn""><img src=""stimuli/brown.png"" style=""width: 200px;height: 200px;""></button>","0","brown","yellow","[""brown"",""yellow"",""high nameability""]","left-right","[""brown"",""yellow"",""high nameability""]","4","high nameability","36","left","response","1"
"html-audio-button-response","175","392769","0.0-135.0-1.0","CAN_122","122","","","","","","null","stimuli/bleep.m4a","null","brown","yellow","[""brown"",""yellow"",""high nameability""]","left-right","[""brown"",""yellow"",""high nameability""]","4","high nameability","36","left","audio_feedback","1"
"html-button-response","176","393289","0.0-136.0","CAN_122","122","","","","","","null","<button class=""jspsych-btn""><img src=""stimuli/white_square.png"" style=""width: 200px;height: 200px;""></button>","null","brown","yellow","[""brown"",""yellow"",""high nameability""]","left-right","[""brown"",""yellow"",""high nameability""]","4","high nameability","36","left","iti",""
"html-button-response","177","393751","0.0-137.0","CAN_122","122","","","","","","418","","0","yellow","purple","[""yellow"",""purple"",""high nameability""]","right-left","[""purple"",""yellow""]","4","high nameability","37","right","trigger",""
"html-button-response","178","394371","0.0-138.0-0.0","CAN_122","122","","","","","","606","<button class=""jspsych-btn""><img src=""stimuli/yellow.png"" style=""width: 200px;height: 200px;""></button>","1","yellow","purple","[""yellow"",""purple"",""high nameability""]","right-left","[""purple"",""yellow""]","4","high nameability","37","right","response","1"
"html-audio-button-response","179","394577","0.0-138.0-1.0","CAN_122","122","","","","","","null","stimuli/bleep.m4a","null","yellow","purple","[""yellow"",""purple"",""high nameability""]","right-left","[""purple"",""yellow""]","4","high nameability","37","right","audio_feedback","1"
"html-button-response","180","395102","0.0-139.0","CAN_122","122","","","","","","null","<button class=""jspsych-btn""><img src=""stimuli/white_square.png"" style=""width: 200px;height: 200px;""></button>","null","yellow","purple","[""yellow"",""purple"",""high nameability""]","right-left","[""purple"",""yellow""]","4","high nameability","37","right","iti",""
"html-button-response","181","395514","0.0-140.0","CAN_122","122","","","","","","403","","0","red","yellow","[""red"",""yellow"",""high nameability""]","left-right","[""red"",""yellow"",""high nameability""]","4","high nameability","38","left","trigger",""
"html-button-response","182","396083","0.0-141.0-0.0","CAN_122","122","","","","","","554","<button class=""jspsych-btn""><img src=""stimuli/red.png"" style=""width: 200px;height: 200px;""></button>","0","red","yellow","[""red"",""yellow"",""high nameability""]","left-right","[""red"",""yellow"",""high nameability""]","4","high nameability","38","left","response","1"
"html-audio-button-response","183","396299","0.0-141.0-1.0","CAN_122","122","","","","","","null","stimuli/bleep.m4a","null","red","yellow","[""red"",""yellow"",""high nameability""]","left-right","[""red"",""yellow"",""high nameability""]","4","high nameability","38","left","audio_feedback","1"
"html-button-response","184","396822","0.0-142.0","CAN_122","122","","","","","","null","<button class=""jspsych-btn""><img src=""stimuli/white_square.png"" style=""width: 200px;height: 200px;""></button>","null","red","yellow","[""red"",""yellow"",""high nameability""]","left-right","[""red"",""yellow"",""high nameability""]","4","high nameability","38","left","iti",""
"html-button-response","185","397209","0.0-143.0","CAN_122","122","","","","","","367","","0","neonyellow","lightred","[""neonyellow"",""lightred"",""low nameability""]","left-right","[""neonyellow"",""lightred"",""low nameability""]","4","low nameability","39","left","trigger",""
"html-button-response","186","397852","0.0-144.0-0.0","CAN_122","122","","","","","","633","<button class=""jspsych-btn""><img src=""stimuli/neonyellow.png"" style=""width: 200px;height: 200px;""></button>","0","neonyellow","lightred","[""neonyellow"",""lightred"",""low nameability""]","left-right","[""neonyellow"",""lightred"",""low nameability""]","4","low nameability","39","left","response","1"
"html-audio-button-response","187","398057","0.0-144.0-1.0","CAN_122","122","","","","","","null","stimuli/bleep.m4a","null","neonyellow","lightred","[""neonyellow"",""lightred"",""low nameability""]","left-right","[""neonyellow"",""lightred"",""low nameability""]","4","low nameability","39","left","audio_feedback","1"
"html-button-response","188","398572","0.0-145.0","CAN_122","122","","","","","","null","<button class=""jspsych-btn""><img src=""stimuli/white_square.png"" style=""width: 200px;height: 200px;""></button>","null","neonyellow","lightred","[""neonyellow"",""lightred"",""low nameability""]","left-right","[""neonyellow"",""lightred"",""low nameability""]","4","low nameability","39","left","iti",""
"html-button-response","189","399018","0.0-146.0","CAN_122","122","","","","","","428","","0","lightred","mustard","[""lightred"",""mustard"",""low nameability""]","right-left","[""mustard"",""lightred""]","4","low nameability","40","right","trigger",""
"html-button-response","190","399792","0.0-147.0-0.0","CAN_122","122","","","","","","765","<button class=""jspsych-btn""><img src=""stimuli/lightred.png"" style=""width: 200px;height: 200px;""></button>","1","lightred","mustard","[""lightred"",""mustard"",""low nameability""]","right-left","[""mustard"",""lightred""]","4","low nameability","40","right","response","1"
"html-audio-button-response","191","399998","0.0-147.0-1.0","CAN_122","122","","","","","","null","stimuli/bleep.m4a","null","lightred","mustard","[""lightred"",""mustard"",""low nameability""]","right-left","[""mustard"",""lightred""]","4","low nameability","40","right","audio_feedback","1"
"html-button-response","192","400520","0.0-148.0","CAN_122","122","","","","","","null","<button class=""jspsych-btn""><img src=""stimuli/white_square.png"" style=""width: 200px;height: 200px;""></button>","null","lightred","mustard","[""lightred"",""mustard"",""low nameability""]","right-left","[""mustard"",""lightred""]","4","low nameability","40","right","iti",""
"pavlovia","193","400581","0.0-149.0","CAN_122","122","","","","","","","","","","","","","","","","","","",""
"pavlovia","194","400591","0.0-150.0","CAN_122","122","","","","","","","","","","","","","","","","","","",""
"html-audio-button-response","195","402316","0.0-151.0","CAN_122","122","","","","","","1797","stimuli/tada.m4a","0","","","","","","","","","","",""
"html-button-response","196","403002","0.0-152.0","CAN_122","122","","","","","","682","","0","","","","","","","","","","",""
"html-button-response","197","403515","0.0-153.0","CAN_122","122","","","","","","507","","0","neonyellow","turquoise","[""neonyellow"",""turquoise"",""low nameability""]","right-left","[""turquoise"",""neonyellow""]","5","low nameability","41","right","trigger",""
"html-button-response","198","404120","0.0-154.0-0.0","CAN_122","122","","","","","","595","<button class=""jspsych-btn""><img src=""stimuli/neonyellow.png"" style=""width: 200px;height: 200px;""></button>","1","neonyellow","turquoise","[""neonyellow"",""turquoise"",""low nameability""]","right-left","[""turquoise"",""neonyellow""]","5","low nameability","41","right","response","1"
"html-audio-button-response","199","404320","0.0-154.0-1.0","CAN_122","122","","","","","","null","stimuli/bleep.m4a","null","neonyellow","turquoise","[""neonyellow"",""turquoise"",""low nameability""]","right-left","[""turquoise"",""neonyellow""]","5","low nameability","41","right","audio_feedback","1"
"html-button-response","200","404834","0.0-155.0","CAN_122","122","","","","","","null","<button class=""jspsych-btn""><img src=""stimuli/white_square.png"" style=""width: 200px;height: 200px;""></button>","null","neonyellow","turquoise","[""neonyellow"",""turquoise"",""low nameability""]","right-left","[""turquoise"",""neonyellow""]","5","low nameability","41","right","iti",""
"html-button-response","201","405271","0.0-156.0","CAN_122","122","","","","","","405","","0","darkgreenblue","mustard","[""darkgreenblue"",""mustard"",""low nameability""]","right-left","[""mustard"",""darkgreenblue""]","5","low nameability","42","right","trigger",""
"html-button-response","202","406010","0.0-157.0-0.0","CAN_122","122","","","","","","724","<button class=""jspsych-btn""><img src=""stimuli/darkgreenblue.png"" style=""width: 200px;height: 200px;""></button>","1","darkgreenblue","mustard","[""darkgreenblue"",""mustard"",""low nameability""]","right-left","[""mustard"",""darkgreenblue""]","5","low nameability","42","right","response","1"
"html-audio-button-response","203","406213","0.0-157.0-1.0","CAN_122","122","","","","","","null","stimuli/bleep.m4a","null","darkgreenblue","mustard","[""darkgreenblue"",""mustard"",""low nameability""]","right-left","[""mustard"",""darkgreenblue""]","5","low nameability","42","right","audio_feedback","1"
"html-button-response","204","406726","0.0-158.0","CAN_122","122","","","","","","null","<button class=""jspsych-btn""><img src=""stimuli/white_square.png"" style=""width: 200px;height: 200px;""></button>","null","darkgreenblue","mustard","[""darkgreenblue"",""mustard"",""low nameability""]","right-left","[""mustard"",""darkgreenblue""]","5","low nameability","42","right","iti",""
"html-button-response","205","407180","0.0-159.0","CAN_122","122","","","","","","436","","0","blue","red","[""blue"",""red"",""high nameability""]","left-right","[""blue"",""red"",""high nameability""]","5","high nameability","43","left","trigger",""
"html-button-response","206","407847","0.0-160.0-0.0","CAN_122","122","","","","","","660","<button class=""jspsych-btn""><img src=""stimuli/blue.png"" style=""width: 200px;height: 200px;""></button>","0","blue","red","[""blue"",""red"",""high nameability""]","left-right","[""blue"",""red"",""high nameability""]","5","high nameability","43","left","response","1"
"html-audio-button-response","207","408049","0.0-160.0-1.0","CAN_122","122","","","","","","null","stimuli/bleep.m4a","null","blue","red","[""blue"",""red"",""high nameability""]","left-right","[""blue"",""red"",""high nameability""]","5","high nameability","43","left","audio_feedback","1"
"html-button-response","208","408564","0.0-161.0","CAN_122","122","","","","","","null","<button class=""jspsych-btn""><img src=""stimuli/white_square.png"" style=""width: 200px;height: 200px;""></button>","null","blue","red","[""blue"",""red"",""high nameability""]","left-right","[""blue"",""red"",""high nameability""]","5","high nameability","43","left","iti",""
"html-button-response","209","409001","0.0-162.0","CAN_122","122","","","","","","416","","0","brown","orange","[""brown"",""orange"",""high nameability""]","left-right","[""brown"",""orange"",""high nameability""]","5","high nameability","44","left","trigger",""
"html-button-response","210","409714","0.0-163.0-0.0","CAN_122","122","","","","","","706","<button class=""jspsych-btn""><img src=""stimuli/brown.png"" style=""width: 200px;height: 200px;""></button>","0","brown","orange","[""brown"",""orange"",""high nameability""]","left-right","[""brown"",""orange"",""high nameability""]","5","high nameability","44","left","response","1"
"html-audio-button-response","211","409917","0.0-163.0-1.0","CAN_122","122","","","","","","null","stimuli/bleep.m4a","null","brown","orange","[""brown"",""orange"",""high nameability""]","left-right","[""brown"",""orange"",""high nameability""]","5","high nameability","44","left","audio_feedback","1"
"html-button-response","212","410433","0.0-164.0","CAN_122","122","","","","","","null","<button class=""jspsych-btn""><img src=""stimuli/white_square.png"" style=""width: 200px;height: 200px;""></button>","null","brown","orange","[""brown"",""orange"",""high nameability""]","left-right","[""brown"",""orange"",""high nameability""]","5","high nameability","44","left","iti",""
"html-button-response","213","410891","0.0-165.0","CAN_122","122","","","","","","441","","0","brown","blue","[""brown"",""blue"",""high nameability""]","left-right","[""brown"",""blue"",""high nameability""]","5","high nameability","45","left","trigger",""
"html-button-response","214","411568","0.0-166.0-0.0","CAN_122","122","","","","","","670","<button class=""jspsych-btn""><img src=""stimuli/brown.png"" style=""width: 200px;height: 200px;""></button>","0","brown","blue","[""brown"",""blue"",""high nameability""]","left-right","[""brown"",""blue"",""high nameability""]","5","high nameability","45","left","response","1"
"html-audio-button-response","215","411771","0.0-166.0-1.0","CAN_122","122","","","","","","null","stimuli/bleep.m4a","null","brown","blue","[""brown"",""blue"",""high nameability""]","left-right","[""brown"",""blue"",""high nameability""]","5","high nameability","45","left","audio_feedback","1"
"html-button-response","216","412295","0.0-167.0","CAN_122","122","","","","","","null","<button class=""jspsych-btn""><img src=""stimuli/white_square.png"" style=""width: 200px;height: 200px;""></button>","null","brown","blue","[""brown"",""blue"",""high nameability""]","left-right","[""brown"",""blue"",""high nameability""]","5","high nameability","45","left","iti",""
"html-button-response","217","412895","0.0-168.0","CAN_122","122","","","","","","585","","0","pink","turquoise","[""pink"",""turquoise"",""low nameability""]","left-right","[""pink"",""turquoise"",""low nameability""]","5","low nameability","46","left","trigger",""
"html-button-response","218","413548","0.0-169.0-0.0","CAN_122","122","","","","","","646","<button class=""jspsych-btn""><img src=""stimuli/pink.png"" style=""width: 200px;height: 200px;""></button>","0","pink","turquoise","[""pink"",""turquoise"",""low nameability""]","left-right","[""pink"",""turquoise"",""low nameability""]","5","low nameability","46","left","response","1"
"html-audio-button-response","219","413750","0.0-169.0-1.0","CAN_122","122","","","","","","null","stimuli/bleep.m4a","null","pink","turquoise","[""pink"",""turquoise"",""low nameability""]","left-right","[""pink"",""turquoise"",""low nameability""]","5","low nameability","46","left","audio_feedback","1"
"html-button-response","220","414265","0.0-170.0","CAN_122","122","","","","","","null","<button class=""jspsych-btn""><img src=""stimuli/white_square.png"" style=""width: 200px;height: 200px;""></button>","null","pink","turquoise","[""pink"",""turquoise"",""low nameability""]","left-right","[""pink"",""turquoise"",""low nameability""]","5","low nameability","46","left","iti",""
"html-button-response","221","414700","0.0-171.0","CAN_122","122","","","","","","421","","0","blue","purple","[""blue"",""purple"",""high nameability""]","left-right","[""blue"",""purple"",""high nameability""]","5","high nameability","47","left","trigger",""
"html-button-response","222","415321","0.0-172.0-0.0","CAN_122","122","","","","","","614","<button class=""jspsych-btn""><img src=""stimuli/blue.png"" style=""width: 200px;height: 200px;""></button>","0","blue","purple","[""blue"",""purple"",""high nameability""]","left-right","[""blue"",""purple"",""high nameability""]","5","high nameability","47","left","response","1"
"html-audio-button-response","223","415526","0.0-172.0-1.0","CAN_122","122","","","","","","null","stimuli/bleep.m4a","null","blue","purple","[""blue"",""purple"",""high nameability""]","left-right","[""blue"",""purple"",""high nameability""]","5","high nameability","47","left","audio_feedback","1"
"html-button-response","224","416047","0.0-173.0","CAN_122","122","","","","","","null","<button class=""jspsych-btn""><img src=""stimuli/white_square.png"" style=""width: 200px;height: 200px;""></button>","null","blue","purple","[""blue"",""purple"",""high nameability""]","left-right","[""blue"",""purple"",""high nameability""]","5","high nameability","47","left","iti",""
"html-button-response","225","416485","0.0-174.0","CAN_122","122","","","","","","423","","0","red","purple","[""red"",""purple"",""high nameability""]","left-right","[""red"",""purple"",""high nameability""]","5","high nameability","48","left","trigger",""
"html-button-response","226","417115","0.0-175.0-0.0","CAN_122","122","","","","","","622","<button class=""jspsych-btn""><img src=""stimuli/red.png"" style=""width: 200px;height: 200px;""></button>","0","red","purple","[""red"",""purple"",""high nameability""]","left-right","[""red"",""purple"",""high nameability""]","5","high nameability","48","left","response","1"
"html-audio-button-response","227","417317","0.0-175.0-1.0","CAN_122","122","","","","","","null","stimuli/bleep.m4a","null","red","purple","[""red"",""purple"",""high nameability""]","left-right","[""red"",""purple"",""high nameability""]","5","high nameability","48","left","audio_feedback","1"
"html-button-response","228","417834","0.0-176.0","CAN_122","122","","","","","","null","<button class=""jspsych-btn""><img src=""stimuli/white_square.png"" style=""width: 200px;height: 200px;""></button>","null","red","purple","[""red"",""purple"",""high nameability""]","left-right","[""red"",""purple"",""high nameability""]","5","high nameability","48","left","iti",""
"html-button-response","229","418293","0.0-177.0","CAN_122","122","","","","","","443","","0","lightred","neonyellow","[""lightred"",""neonyellow"",""low nameability""]","right-left","[""neonyellow"",""lightred""]","5","low nameability","49","right","trigger",""
"html-button-response","230","418943","0.0-178.0-0.0","CAN_122","122","","","","","","642","<button class=""jspsych-btn""><img src=""stimuli/lightred.png"" style=""width: 200px;height: 200px;""></button>","1","lightred","neonyellow","[""lightred"",""neonyellow"",""low nameability""]","right-left","[""neonyellow"",""lightred""]","5","low nameability","49","right","response","1"
"html-audio-button-response","231","419149","0.0-178.0-1.0","CAN_122","122","","","","","","null","stimuli/bleep.m4a","null","lightred","neonyellow","[""lightred"",""neonyellow"",""low nameability""]","right-left","[""neonyellow"",""lightred""]","5","low nameability","49","right","audio_feedback","1"
"html-button-response","232","419670","0.0-179.0","CAN_122","122","","","","","","null","<button class=""jspsych-btn""><img src=""stimuli/white_square.png"" style=""width: 200px;height: 200px;""></button>","null","lightred","neonyellow","[""lightred"",""neonyellow"",""low nameability""]","right-left","[""neonyellow"",""lightred""]","5","low nameability","49","right","iti",""
"html-button-response","233","420112","0.0-180.0","CAN_122","122","","","","","","426","","0","purple","red","[""purple"",""red"",""high nameability""]","right-left","[""red"",""purple""]","5","high nameability","50","right","trigger",""
"html-button-response","234","420811","0.0-181.0-0.0","CAN_122","122","","","","","","692","<button class=""jspsych-btn""><img src=""stimuli/purple.png"" style=""width: 200px;height: 200px;""></button>","1","purple","red","[""purple"",""red"",""high nameability""]","right-left","[""red"",""purple""]","5","high nameability","50","right","response","1"
"html-audio-button-response","235","421017","0.0-181.0-1.0","CAN_122","122","","","","","","null","stimuli/bleep.m4a","null","purple","red","[""purple"",""red"",""high nameability""]","right-left","[""red"",""purple""]","5","high nameability","50","right","audio_feedback","1"
"html-button-response","236","421534","0.0-182.0","CAN_122","122","","","","","","null","<button class=""jspsych-btn""><img src=""stimuli/white_square.png"" style=""width: 200px;height: 200px;""></button>","null","purple","red","[""purple"",""red"",""high nameability""]","right-left","[""red"",""purple""]","5","high nameability","50","right","iti",""
"pavlovia","237","421593","0.0-183.0","CAN_122","122","","","","","","","","","","","","","","","","","","",""
"pavlovia","238","421601","0.0-184.0","CAN_122","122","","","","","","","","","","","","","","","","","","",""
"html-audio-button-response","239","422863","0.0-185.0","CAN_122","122","","","","","","1328","stimuli/tada.m4a","0","","","","","","","","","","",""
"html-button-response","240","423467","0.0-186.0","CAN_122","122","","","","","","599","","0","","","","","","","","","","",""
"html-button-response","241","423997","0.0-187.0","CAN_122","122","","","","","","522","","0","turquoise","lightred","[""turquoise"",""lightred"",""low nameability""]","right-left","[""lightred"",""turquoise""]","6","low nameability","51","right","trigger",""
"html-button-response","242","424626","0.0-188.0-0.0","CAN_122","122","","","","","","621","<button class=""jspsych-btn""><img src=""stimuli/turquoise.png"" style=""width: 200px;height: 200px;""></button>","1","turquoise","lightred","[""turquoise"",""lightred"",""low nameability""]","right-left","[""lightred"",""turquoise""]","6","low nameability","51","right","response","1"
"html-audio-button-response","243","424833","0.0-188.0-1.0","CAN_122","122","","","","","","null","stimuli/bleep.m4a","null","turquoise","lightred","[""turquoise"",""lightred"",""low nameability""]","right-left","[""lightred"",""turquoise""]","6","low nameability","51","right","audio_feedback","1"
"html-button-response","244","425350","0.0-189.0","CAN_122","122","","","","","","null","<button class=""jspsych-btn""><img src=""stimuli/white_square.png"" style=""width: 200px;height: 200px;""></button>","null","turquoise","lightred","[""turquoise"",""lightred"",""low nameability""]","right-left","[""lightred"",""turquoise""]","6","low nameability","51","right","iti",""
"html-button-response","245","425853","0.0-190.0","CAN_122","122","","","","","","488","","0","pink","mustard","[""pink"",""mustard"",""low nameability""]","right-left","[""mustard"",""pink""]","6","low nameability","52","right","trigger",""
"html-button-response","246","426416","0.0-191.0-0.0","CAN_122","122","","","","","","556","<button class=""jspsych-btn""><img src=""stimuli/pink.png"" style=""width: 200px;height: 200px;""></button>","1","pink","mustard","[""pink"",""mustard"",""low nameability""]","right-left","[""mustard"",""pink""]","6","low nameability","52","right","response","1"
"html-audio-button-response","247","426620","0.0-191.0-1.0","CAN_122","122","","","","","","null","stimuli/bleep.m4a","null","pink","mustard","[""pink"",""mustard"",""low nameability""]","right-left","[""mustard"",""pink""]","6","low nameability","52","right","audio_feedback","1"
"html-button-response","248","427135","0.0-192.0","CAN_122","122","","","","","","null","<button class=""jspsych-btn""><img src=""stimuli/white_square.png"" style=""width: 200px;height: 200px;""></button>","null","pink","mustard","[""pink"",""mustard"",""low nameability""]","right-left","[""mustard"",""pink""]","6","low nameability","52","right","iti",""
"html-button-response","249","427550","0.0-193.0","CAN_122","122","","","","","","388","","0","pink","neonyellow","[""pink"",""neonyellow"",""low nameability""]","right-left","[""neonyellow"",""pink""]","6","low nameability","53","right","trigger",""
"html-button-response","250","428151","0.0-194.0-0.0","CAN_122","122","","","","","","593","<button class=""jspsych-btn""><img src=""stimuli/pink.png"" style=""width: 200px;height: 200px;""></button>","1","pink","neonyellow","[""pink"",""neonyellow"",""low nameability""]","right-left","[""neonyellow"",""pink""]","6","low nameability","53","right","response","1"
"html-audio-button-response","251","428358","0.0-194.0-1.0","CAN_122","122","","","","","","null","stimuli/bleep.m4a","null","pink","neonyellow","[""pink"",""neonyellow"",""low nameability""]","right-left","[""neonyellow"",""pink""]","6","low nameability","53","right","audio_feedback","1"
"html-button-response","252","428873","0.0-195.0","CAN_122","122","","","","","","null","<button class=""jspsych-btn""><img src=""stimuli/white_square.png"" style=""width: 200px;height: 200px;""></button>","null","pink","neonyellow","[""pink"",""neonyellow"",""low nameability""]","right-left","[""neonyellow"",""pink""]","6","low nameability","53","right","iti",""
"html-button-response","253","429295","0.0-196.0","CAN_122","122","","","","","","406","","0","orange","brown","[""orange"",""brown"",""high nameability""]","left-right","[""orange"",""brown"",""high nameability""]","6","high nameability","54","left","trigger",""
"html-button-response","254","430003","0.0-197.0-0.0","CAN_122","122","","","","","","701","<button class=""jspsych-btn""><img src=""stimuli/orange.png"" style=""width: 200px;height: 200px;""></button>","0","orange","brown","[""orange"",""brown"",""high nameability""]","left-right","[""orange"",""brown"",""high nameability""]","6","high nameability","54","left","response","1"
"html-audio-button-response","255","430205","0.0-197.0-1.0","CAN_122","122","","","","","","null","stimuli/bleep.m4a","null","orange","brown","[""orange"",""brown"",""high nameability""]","left-right","[""orange"",""brown"",""high nameability""]","6","high nameability","54","left","audio_feedback","1"
"html-button-response","256","430727","0.0-198.0","CAN_122","122","","","","","","null","<button class=""jspsych-btn""><img src=""stimuli/white_square.png"" style=""width: 200px;height: 200px;""></button>","null","orange","brown","[""orange"",""brown"",""high nameability""]","left-right","[""orange"",""brown"",""high nameability""]","6","high nameability","54","left","iti",""
"html-button-response","257","431147","0.0-199.0","CAN_122","122","","","","","","402","","0","yellow","red","[""yellow"",""red"",""high nameability""]","right-left","[""red"",""yellow""]","6","high nameability","55","right","trigger",""
"html-button-response","258","431739","0.0-200.0-0.0","CAN_122","122","","","","","","585","<button class=""jspsych-btn""><img src=""stimuli/yellow.png"" style=""width: 200px;height: 200px;""></button>","1","yellow","red","[""yellow"",""red"",""high nameability""]","right-left","[""red"",""yellow""]","6","high nameability","55","right","response","1"
"html-audio-button-response","259","431945","0.0-200.0-1.0","CAN_122","122","","","","","","null","stimuli/bleep.m4a","null","yellow","red","[""yellow"",""red"",""high nameability""]","right-left","[""red"",""yellow""]","6","high nameability","55","right","audio_feedback","1"
"html-button-response","260","432462","0.0-201.0","CAN_122","122","","","","","","null","<button class=""jspsych-btn""><img src=""stimuli/white_square.png"" style=""width: 200px;height: 200px;""></button>","null","yellow","red","[""yellow"",""red"",""high nameability""]","right-left","[""red"",""yellow""]","6","high nameability","55","right","iti",""
"html-button-response","261","432906","0.0-202.0","CAN_122","122","","","","","","428","","0","lightred","turquoise","[""lightred"",""turquoise"",""low nameability""]","right-left","[""turquoise"",""lightred""]","6","low nameability","56","right","trigger",""
"html-button-response","262","433508","0.0-203.0-0.0","CAN_122","122","","","","","","596","<button class=""jspsych-btn""><img src=""stimuli/lightred.png"" style=""width: 200px;height: 200px;""></button>","1","lightred","turquoise","[""lightred"",""turquoise"",""low nameability""]","right-left","[""turquoise"",""lightred""]","6","low nameability","56","right","response","1"
"html-audio-button-response","263","433711","0.0-203.0-1.0","CAN_122","122","","","","","","null","stimuli/bleep.m4a","null","lightred","turquoise","[""lightred"",""turquoise"",""low nameability""]","right-left","[""turquoise"",""lightred""]","6","low nameability","56","right","audio_feedback","1"
"html-button-response","264","434227","0.0-204.0","CAN_122","122","","","","","","null","<button class=""jspsych-btn""><img src=""stimuli/white_square.png"" style=""width: 200px;height: 200px;""></button>","null","lightred","turquoise","[""lightred"",""turquoise"",""low nameability""]","right-left","[""turquoise"",""lightred""]","6","low nameability","56","right","iti",""
"html-button-response","265","434630","0.0-205.0","CAN_122","122","","","","","","388","","0","brown","red","[""brown"",""red"",""high nameability""]","left-right","[""brown"",""red"",""high nameability""]","6","high nameability","57","left","trigger",""
"html-button-response","266","435400","0.0-206.0-0.0","CAN_122","122","","","","","","763","<button class=""jspsych-btn""><img src=""stimuli/brown.png"" style=""width: 200px;height: 200px;""></button>","0","brown","red","[""brown"",""red"",""high nameability""]","left-right","[""brown"",""red"",""high nameability""]","6","high nameability","57","left","response","1"
"html-audio-button-response","267","435601","0.0-206.0-1.0","CAN_122","122","","","","","","null","stimuli/bleep.m4a","null","brown","red","[""brown"",""red"",""high nameability""]","left-right","[""brown"",""red"",""high nameability""]","6","high nameability","57","left","audio_feedback","1"
"html-button-response","268","436121","0.0-207.0","CAN_122","122","","","","","","null","<button class=""jspsych-btn""><img src=""stimuli/white_square.png"" style=""width: 200px;height: 200px;""></button>","null","brown","red","[""brown"",""red"",""high nameability""]","left-right","[""brown"",""red"",""high nameability""]","6","high nameability","57","left","iti",""
"html-button-response","269","436578","0.0-208.0","CAN_122","122","","","","","","439","","0","turquoise","mustard","[""turquoise"",""mustard"",""low nameability""]","left-right","[""turquoise"",""mustard"",""low nameability""]","6","low nameability","58","left","trigger",""
"html-button-response","270","437228","0.0-209.0-0.0","CAN_122","122","","","","","","643","<button class=""jspsych-btn""><img src=""stimuli/turquoise.png"" style=""width: 200px;height: 200px;""></button>","0","turquoise","mustard","[""turquoise"",""mustard"",""low nameability""]","left-right","[""turquoise"",""mustard"",""low nameability""]","6","low nameability","58","left","response","1"
"html-audio-button-response","271","437429","0.0-209.0-1.0","CAN_122","122","","","","","","null","stimuli/bleep.m4a","null","turquoise","mustard","[""turquoise"",""mustard"",""low nameability""]","left-right","[""turquoise"",""mustard"",""low nameability""]","6","low nameability","58","left","audio_feedback","1"
"html-button-response","272","437944","0.0-210.0","CAN_122","122","","","","","","null","<button class=""jspsych-btn""><img src=""stimuli/white_square.png"" style=""width: 200px;height: 200px;""></button>","null","turquoise","mustard","[""turquoise"",""mustard"",""low nameability""]","left-right","[""turquoise"",""mustard"",""low nameability""]","6","low nameability","58","left","iti",""
"html-button-response","273","438396","0.0-211.0","CAN_122","122","","","","","","436","","0","mustard","darkgreenblue","[""mustard"",""darkgreenblue"",""low nameability""]","left-right","[""mustard"",""darkgreenblue"",""low nameability""]","6","low nameability","59","left","trigger",""
"html-button-response","274","439023","0.0-212.0-0.0","CAN_122","122","","","","","","618","<button class=""jspsych-btn""><img src=""stimuli/mustard.png"" style=""width: 200px;height: 200px;""></button>","0","mustard","darkgreenblue","[""mustard"",""darkgreenblue"",""low nameability""]","left-right","[""mustard"",""darkgreenblue"",""low nameability""]","6","low nameability","59","left","response","1"
"html-audio-button-response","275","439225","0.0-212.0-1.0","CAN_122","122","","","","","","null","stimuli/bleep.m4a","null","mustard","darkgreenblue","[""mustard"",""darkgreenblue"",""low nameability""]","left-right","[""mustard"",""darkgreenblue"",""low nameability""]","6","low nameability","59","left","audio_feedback","1"
"html-button-response","276","439746","0.0-213.0","CAN_122","122","","","","","","null","<button class=""jspsych-btn""><img src=""stimuli/white_square.png"" style=""width: 200px;height: 200px;""></button>","null","mustard","darkgreenblue","[""mustard"",""darkgreenblue"",""low nameability""]","left-right","[""mustard"",""darkgreenblue"",""low nameability""]","6","low nameability","59","left","iti",""
"html-button-response","277","440198","0.0-214.0","CAN_122","122","","","","","","433","","0","pink","darkgreenblue","[""pink"",""darkgreenblue"",""low nameability""]","right-left","[""darkgreenblue"",""pink""]","6","low nameability","60","right","trigger",""
"html-button-response","278","440803","0.0-215.0-0.0","CAN_122","122","","","","","","598","<button class=""jspsych-btn""><img src=""stimuli/pink.png"" style=""width: 200px;height: 200px;""></button>","1","pink","darkgreenblue","[""pink"",""darkgreenblue"",""low nameability""]","right-left","[""darkgreenblue"",""pink""]","6","low nameability","60","right","response","1"
"html-audio-button-response","279","441006","0.0-215.0-1.0","CAN_122","122","","","","","","null","stimuli/bleep.m4a","null","pink","darkgreenblue","[""pink"",""darkgreenblue"",""low nameability""]","right-left","[""darkgreenblue"",""pink""]","6","low nameability","60","right","audio_feedback","1"
"html-button-response","280","441525","0.0-216.0","CAN_122","122","","","","","","null","<button class=""jspsych-btn""><img src=""stimuli/white_square.png"" style=""width: 200px;height: 200px;""></button>","null","pink","darkgreenblue","[""pink"",""darkgreenblue"",""low nameability""]","right-left","[""darkgreenblue"",""pink""]","6","low nameability","60","right","iti",""
