"trial_type","trial_index","time_elapsed","internal_node_id","subject_id","seed","success","timeout","failed_images","failed_audio","failed_video","rt","stimulus","response","target","foil","choices","combination_order","choices_in_order","round","condition","trial_counter","target_location","trial_kind","correct"
"pavlovia","0","22","0.0-0.0","CAN_125","125","","","","","","","","","","","","","","","","","","",""
"preload","1","753","0.0-1.0","CAN_125","125","true","false","[]","[]","[]","","","","","","","","","","","","","",""
"fullscreen","2","481209","0.0-2.0","CAN_125","125","true","","","","","","","","","","","","","","","","","",""
"html-button-response","3","506653","0.0-3.0","CAN_125","125","","","","","","25416","","0","","","","","","","","","","",""
"html-button-response","4","511429","0.0-4.0","CAN_125","125","","","","","","4763","","0","star","square","[""square"",""star""]","left-right","[""square"",""star""]","1","practice","1","right","trigger",""
"html-button-response","5","516878","0.0-5.0-0.0","CAN_125","125","","","","","","5438","<button class=""jspsych-btn""><img src=""stimuli/star.png"" style=""width: 200px;height: 200px;""></button>","1","star","square","[""square"",""star""]","left-right","[""square"",""star""]","1","practice","1","right","response","1"
"html-audio-button-response","6","517092","0.0-5.0-1.0","CAN_125","125","","","","","","null","stimuli/bleep.m4a","null","star","square","[""square"",""star""]","left-right","[""square"",""star""]","1","practice","1","right","audio_feedback","1"
"html-button-response","7","517625","0.0-6.0","CAN_125","125","","","","","","null","<button class=""jspsych-btn""><img src=""stimuli/white_square.png"" style=""width: 200px;height: 200px;""></button>","null","star","square","[""square"",""star""]","left-right","[""square"",""star""]","1","practice","1","right","iti",""
"html-button-response","8","519973","0.0-7.0","CAN_125","125","","","","","","2329","","0","triangle","pentagram","[""triangle"",""pentagram""]","left-right","[""triangle"",""pentagram""]","1","practice","1","left","trigger",""
"html-button-response","9","522785","0.0-8.0-0.0","CAN_125","125","","","","","","2802","<button class=""jspsych-btn""><img src=""stimuli/triangle.png"" style=""width: 200px;height: 200px;""></button>","0","triangle","pentagram","[""triangle"",""pentagram""]","left-right","[""triangle"",""pentagram""]","1","practice","1","left","response","1"
"html-audio-button-response","10","522992","0.0-8.0-1.0","CAN_125","125","","","","","","null","stimuli/bleep.m4a","null","triangle","pentagram","[""triangle"",""pentagram""]","left-right","[""triangle"",""pentagram""]","1","practice","1","left","audio_feedback","1"
"html-button-response","11","523512","0.0-9.0","CAN_125","125","","","","","","null","<button class=""jspsych-btn""><img src=""stimuli/white_square.png"" style=""width: 200px;height: 200px;""></button>","null","triangle","pentagram","[""triangle"",""pentagram""]","left-right","[""triangle"",""pentagram""]","1","practice","1","left","iti",""
"html-button-response","12","524305","0.0-10.0","CAN_125","125","","","","","","775","","0","diamond","rectangle","[""rectangle"",""diamond""]","left-right","[""rectangle"",""diamond""]","1","practice","1","right","trigger",""
"html-button-response","13","525394","0.0-11.0-0.0","CAN_125","125","","","","","","1079","<button class=""jspsych-btn""><img src=""stimuli/diamond.png"" style=""width: 200px;height: 200px;""></button>","1","diamond","rectangle","[""rectangle"",""diamond""]","left-right","[""rectangle"",""diamond""]","1","practice","1","right","response","1"
"html-audio-button-response","14","525596","0.0-11.0-1.0","CAN_125","125","","","","","","null","stimuli/bleep.m4a","null","diamond","rectangle","[""rectangle"",""diamond""]","left-right","[""rectangle"",""diamond""]","1","practice","1","right","audio_feedback","1"
"html-button-response","15","526118","0.0-12.0","CAN_125","125","","","","","","null","<button class=""jspsych-btn""><img src=""stimuli/white_square.png"" style=""width: 200px;height: 200px;""></button>","null","diamond","rectangle","[""rectangle"",""diamond""]","left-right","[""rectangle"",""diamond""]","1","practice","1","right","iti",""
"html-button-response","16","526479","0.0-13.0","CAN_125","125","","","","","","346","","0","pentagram","star","[""pentagram"",""star""]","left-right","[""pentagram"",""star""]","1","practice","1","left","trigger",""
"html-button-response","17","527490","0.0-14.0-0.0","CAN_125","125","","","","","","1002","<button class=""jspsych-btn""><img src=""stimuli/pentagram.png"" style=""width: 200px;height: 200px;""></button>","0","pentagram","star","[""pentagram"",""star""]","left-right","[""pentagram"",""star""]","1","practice","1","left","response","1"
"html-audio-button-response","18","527695","0.0-14.0-1.0","CAN_125","125","","","","","","null","stimuli/bleep.m4a","null","pentagram","star","[""pentagram"",""star""]","left-right","[""pentagram"",""star""]","1","practice","1","left","audio_feedback","1"
"html-button-response","19","528226","0.0-15.0","CAN_125","125","","","","","","null","<button class=""jspsych-btn""><img src=""stimuli/white_square.png"" style=""width: 200px;height: 200px;""></button>","null","pentagram","star","[""pentagram"",""star""]","left-right","[""pentagram"",""star""]","1","practice","1","left","iti",""
"html-button-response","20","536852","0.0-16.0","CAN_125","125","","","","","","8617","","0","","","","","","","","","","",""
"html-button-response","21","537875","0.0-17.0","CAN_125","125","","","","","","1015","","0","pink","turquoise","[""pink"",""turquoise"",""low nameability""]","right-left","[""turquoise"",""pink""]","1","low nameability","1","right","trigger",""
"html-button-response","22","538970","0.0-18.0-0.0","CAN_125","125","","","","","","1081","<button class=""jspsych-btn""><img src=""stimuli/pink.png"" style=""width: 200px;height: 200px;""></button>","1","pink","turquoise","[""pink"",""turquoise"",""low nameability""]","right-left","[""turquoise"",""pink""]","1","low nameability","1","right","response","1"
"html-audio-button-response","23","539175","0.0-18.0-1.0","CAN_125","125","","","","","","null","stimuli/bleep.m4a","null","pink","turquoise","[""pink"",""turquoise"",""low nameability""]","right-left","[""turquoise"",""pink""]","1","low nameability","1","right","audio_feedback","1"
"html-button-response","24","539696","0.0-19.0","CAN_125","125","","","","","","null","<button class=""jspsych-btn""><img src=""stimuli/white_square.png"" style=""width: 200px;height: 200px;""></button>","null","pink","turquoise","[""pink"",""turquoise"",""low nameability""]","right-left","[""turquoise"",""pink""]","1","low nameability","1","right","iti",""
"html-button-response","25","540487","0.0-20.0","CAN_125","125","","","","","","769","","0","red","yellow","[""red"",""yellow"",""high nameability""]","left-right","[""red"",""yellow"",""high nameability""]","1","high nameability","2","left","trigger",""
"html-button-response","26","541359","0.0-21.0-0.0","CAN_125","125","","","","","","864","<button class=""jspsych-btn""><img src=""stimuli/red.png"" style=""width: 200px;height: 200px;""></button>","0","red","yellow","[""red"",""yellow"",""high nameability""]","left-right","[""red"",""yellow"",""high nameability""]","1","high nameability","2","left","response","1"
"html-audio-button-response","27","541565","0.0-21.0-1.0","CAN_125","125","","","","","","null","stimuli/bleep.m4a","null","red","yellow","[""red"",""yellow"",""high nameability""]","left-right","[""red"",""yellow"",""high nameability""]","1","high nameability","2","left","audio_feedback","1"
"html-button-response","28","542088","0.0-22.0","CAN_125","125","","","","","","null","<button class=""jspsych-btn""><img src=""stimuli/white_square.png"" style=""width: 200px;height: 200px;""></button>","null","red","yellow","[""red"",""yellow"",""high nameability""]","left-right","[""red"",""yellow"",""high nameability""]","1","high nameability","2","left","iti",""
"html-button-response","29","542907","0.0-23.0","CAN_125","125","","","","","","795","","0","lightred","pink","[""lightred"",""pink"",""low nameability""]","right-left","[""pink"",""lightred""]","1","low nameability","3","right","trigger",""
"html-button-response","30","543806","0.0-24.0-0.0","CAN_125","125","","","","","","890","<button class=""jspsych-btn""><img src=""stimuli/lightred.png"" style=""width: 200px;height: 200px;""></button>","1","lightred","pink","[""lightred"",""pink"",""low nameability""]","right-left","[""pink"",""lightred""]","1","low nameability","3","right","response","1"
"html-audio-button-response","31","544015","0.0-24.0-1.0","CAN_125","125","","","","","","null","stimuli/bleep.m4a","null","lightred","pink","[""lightred"",""pink"",""low nameability""]","right-left","[""pink"",""lightred""]","1","low nameability","3","right","audio_feedback","1"
"html-button-response","32","544537","0.0-25.0","CAN_125","125","","","","","","null","<button class=""jspsych-btn""><img src=""stimuli/white_square.png"" style=""width: 200px;height: 200px;""></button>","null","lightred","pink","[""lightred"",""pink"",""low nameability""]","right-left","[""pink"",""lightred""]","1","low nameability","3","right","iti",""
"html-button-response","33","545293","0.0-26.0","CAN_125","125","","","","","","731","","0","red","orange","[""red"",""orange"",""high nameability""]","right-left","[""orange"",""red""]","1","high nameability","4","right","trigger",""
"html-button-response","34","547556","0.0-27.0-0.0","CAN_125","125","","","","","","2255","<button class=""jspsych-btn""><img src=""stimuli/red.png"" style=""width: 200px;height: 200px;""></button>","1","red","orange","[""red"",""orange"",""high nameability""]","right-left","[""orange"",""red""]","1","high nameability","4","right","response","1"
"html-audio-button-response","35","547760","0.0-27.0-1.0","CAN_125","125","","","","","","null","stimuli/bleep.m4a","null","red","orange","[""red"",""orange"",""high nameability""]","right-left","[""orange"",""red""]","1","high nameability","4","right","audio_feedback","1"
"html-button-response","36","548287","0.0-28.0","CAN_125","125","","","","","","null","<button class=""jspsych-btn""><img src=""stimuli/white_square.png"" style=""width: 200px;height: 200px;""></button>","null","red","orange","[""red"",""orange"",""high nameability""]","right-left","[""orange"",""red""]","1","high nameability","4","right","iti",""
"html-button-response","37","549198","0.0-29.0","CAN_125","125","","","","","","892","","0","neonyellow","lightred","[""neonyellow"",""lightred"",""low nameability""]","right-left","[""lightred"",""neonyellow""]","1","low nameability","5","right","trigger",""
"html-button-response","38","550126","0.0-30.0-0.0","CAN_125","125","","","","","","921","<button class=""jspsych-btn""><img src=""stimuli/neonyellow.png"" style=""width: 200px;height: 200px;""></button>","1","neonyellow","lightred","[""neonyellow"",""lightred"",""low nameability""]","right-left","[""lightred"",""neonyellow""]","1","low nameability","5","right","response","1"
"html-audio-button-response","39","550333","0.0-30.0-1.0","CAN_125","125","","","","","","null","stimuli/bleep.m4a","null","neonyellow","lightred","[""neonyellow"",""lightred"",""low nameability""]","right-left","[""lightred"",""neonyellow""]","1","low nameability","5","right","audio_feedback","1"
"html-button-response","40","550853","0.0-31.0","CAN_125","125","","","","","","null","<button class=""jspsych-btn""><img src=""stimuli/white_square.png"" style=""width: 200px;height: 200px;""></button>","null","neonyellow","lightred","[""neonyellow"",""lightred"",""low nameability""]","right-left","[""lightred"",""neonyellow""]","1","low nameability","5","right","iti",""
"html-button-response","41","551630","0.0-32.0","CAN_125","125","","","","","","755","","0","orange","red","[""orange"",""red"",""high nameability""]","left-right","[""orange"",""red"",""high nameability""]","1","high nameability","6","left","trigger",""
"html-button-response","42","552429","0.0-33.0-0.0","CAN_125","125","","","","","","792","<button class=""jspsych-btn""><img src=""stimuli/orange.png"" style=""width: 200px;height: 200px;""></button>","0","orange","red","[""orange"",""red"",""high nameability""]","left-right","[""orange"",""red"",""high nameability""]","1","high nameability","6","left","response","1"
"html-audio-button-response","43","552636","0.0-33.0-1.0","CAN_125","125","","","","","","null","stimuli/bleep.m4a","null","orange","red","[""orange"",""red"",""high nameability""]","left-right","[""orange"",""red"",""high nameability""]","1","high nameability","6","left","audio_feedback","1"
"html-button-response","44","553154","0.0-34.0","CAN_125","125","","","","","","null","<button class=""jspsych-btn""><img src=""stimuli/white_square.png"" style=""width: 200px;height: 200px;""></button>","null","orange","red","[""orange"",""red"",""high nameability""]","left-right","[""orange"",""red"",""high nameability""]","1","high nameability","6","left","iti",""
"html-button-response","45","553918","0.0-35.0","CAN_125","125","","","","","","756","","0","purple","blue","[""purple"",""blue"",""high nameability""]","left-right","[""purple"",""blue"",""high nameability""]","1","high nameability","7","left","trigger",""
"html-button-response","46","555665","0.0-36.0-0.0","CAN_125","125","","","","","","1739","<button class=""jspsych-btn""><img src=""stimuli/purple.png"" style=""width: 200px;height: 200px;""></button>","0","purple","blue","[""purple"",""blue"",""high nameability""]","left-right","[""purple"",""blue"",""high nameability""]","1","high nameability","7","left","response","1"
"html-audio-button-response","47","555873","0.0-36.0-1.0","CAN_125","125","","","","","","null","stimuli/bleep.m4a","null","purple","blue","[""purple"",""blue"",""high nameability""]","left-right","[""purple"",""blue"",""high nameability""]","1","high nameability","7","left","audio_feedback","1"
"html-button-response","48","556391","0.0-37.0","CAN_125","125","","","","","","null","<button class=""jspsych-btn""><img src=""stimuli/white_square.png"" style=""width: 200px;height: 200px;""></button>","null","purple","blue","[""purple"",""blue"",""high nameability""]","left-right","[""purple"",""blue"",""high nameability""]","1","high nameability","7","left","iti",""
"html-button-response","49","557036","0.0-38.0","CAN_125","125","","","","","","627","","0","mustard","darkgreenblue","[""mustard"",""darkgreenblue"",""low nameability""]","right-left","[""darkgreenblue"",""mustard""]","1","low nameability","8","right","trigger",""
"html-button-response","50","557962","0.0-39.0-0.0","CAN_125","125","","","","","","915","<button class=""jspsych-btn""><img src=""stimuli/mustard.png"" style=""width: 200px;height: 200px;""></button>","1","mustard","darkgreenblue","[""mustard"",""darkgreenblue"",""low nameability""]","right-left","[""darkgreenblue"",""mustard""]","1","low nameability","8","right","response","1"
"html-audio-button-response","51","558169","0.0-39.0-1.0","CAN_125","125","","","","","","null","stimuli/bleep.m4a","null","mustard","darkgreenblue","[""mustard"",""darkgreenblue"",""low nameability""]","right-left","[""darkgreenblue"",""mustard""]","1","low nameability","8","right","audio_feedback","1"
"html-button-response","52","558692","0.0-40.0","CAN_125","125","","","","","","null","<button class=""jspsych-btn""><img src=""stimuli/white_square.png"" style=""width: 200px;height: 200px;""></button>","null","mustard","darkgreenblue","[""mustard"",""darkgreenblue"",""low nameability""]","right-left","[""darkgreenblue"",""mustard""]","1","low nameability","8","right","iti",""
"html-button-response","53","559473","0.0-41.0","CAN_125","125","","","","","","761","","0","orange","purple","[""orange"",""purple"",""high nameability""]","left-right","[""orange"",""purple"",""high nameability""]","1","high nameability","9","left","trigger",""
"html-button-response","54","560330","0.0-42.0-0.0","CAN_125","125","","","","","","850","<button class=""jspsych-btn""><img src=""stimuli/orange.png"" style=""width: 200px;height: 200px;""></button>","0","orange","purple","[""orange"",""purple"",""high nameability""]","left-right","[""orange"",""purple"",""high nameability""]","1","high nameability","9","left","response","1"
"html-audio-button-response","55","560535","0.0-42.0-1.0","CAN_125","125","","","","","","null","stimuli/bleep.m4a","null","orange","purple","[""orange"",""purple"",""high nameability""]","left-right","[""orange"",""purple"",""high nameability""]","1","high nameability","9","left","audio_feedback","1"
"html-button-response","56","561061","0.0-43.0","CAN_125","125","","","","","","null","<button class=""jspsych-btn""><img src=""stimuli/white_square.png"" style=""width: 200px;height: 200px;""></button>","null","orange","purple","[""orange"",""purple"",""high nameability""]","left-right","[""orange"",""purple"",""high nameability""]","1","high nameability","9","left","iti",""
"html-button-response","57","562045","0.0-44.0","CAN_125","125","","","","","","964","","0","yellow","blue","[""yellow"",""blue"",""high nameability""]","left-right","[""yellow"",""blue"",""high nameability""]","1","high nameability","10","left","trigger",""
"html-button-response","58","562867","0.0-45.0-0.0","CAN_125","125","","","","","","814","<button class=""jspsych-btn""><img src=""stimuli/yellow.png"" style=""width: 200px;height: 200px;""></button>","0","yellow","blue","[""yellow"",""blue"",""high nameability""]","left-right","[""yellow"",""blue"",""high nameability""]","1","high nameability","10","left","response","1"
"html-audio-button-response","59","563071","0.0-45.0-1.0","CAN_125","125","","","","","","null","stimuli/bleep.m4a","null","yellow","blue","[""yellow"",""blue"",""high nameability""]","left-right","[""yellow"",""blue"",""high nameability""]","1","high nameability","10","left","audio_feedback","1"
"html-button-response","60","563591","0.0-46.0","CAN_125","125","","","","","","null","<button class=""jspsych-btn""><img src=""stimuli/white_square.png"" style=""width: 200px;height: 200px;""></button>","null","yellow","blue","[""yellow"",""blue"",""high nameability""]","left-right","[""yellow"",""blue"",""high nameability""]","1","high nameability","10","left","iti",""
"pavlovia","61","563678","0.0-47.0","CAN_125","125","","","","","","","","","","","","","","","","","","",""
"pavlovia","62","563694","0.0-48.0","CAN_125","125","","","","","","","","","","","","","","","","","","",""
"html-audio-button-response","63","566415","0.0-49.0","CAN_125","125","","","","","","2821","stimuli/tada.m4a","0","","","","","","","","","","",""
"html-button-response","64","567801","0.0-50.0","CAN_125","125","","","","","","1380","","0","","","","","","","","","","",""
"html-button-response","65","568765","0.0-51.0","CAN_125","125","","","","","","957","","0","pink","darkgreenblue","[""pink"",""darkgreenblue"",""low nameability""]","right-left","[""darkgreenblue"",""pink""]","2","low nameability","11","right","trigger",""
"html-button-response","66","569801","0.0-52.0-0.0","CAN_125","125","","","","","","1027","<button class=""jspsych-btn""><img src=""stimuli/pink.png"" style=""width: 200px;height: 200px;""></button>","1","pink","darkgreenblue","[""pink"",""darkgreenblue"",""low nameability""]","right-left","[""darkgreenblue"",""pink""]","2","low nameability","11","right","response","1"
"html-audio-button-response","67","570008","0.0-52.0-1.0","CAN_125","125","","","","","","null","stimuli/bleep.m4a","null","pink","darkgreenblue","[""pink"",""darkgreenblue"",""low nameability""]","right-left","[""darkgreenblue"",""pink""]","2","low nameability","11","right","audio_feedback","1"
"html-button-response","68","570531","0.0-53.0","CAN_125","125","","","","","","null","<button class=""jspsych-btn""><img src=""stimuli/white_square.png"" style=""width: 200px;height: 200px;""></button>","null","pink","darkgreenblue","[""pink"",""darkgreenblue"",""low nameability""]","right-left","[""darkgreenblue"",""pink""]","2","low nameability","11","right","iti",""
"html-button-response","69","571185","0.0-54.0","CAN_125","125","","","","","","637","","0","darkgreenblue","lightred","[""darkgreenblue"",""lightred"",""low nameability""]","right-left","[""lightred"",""darkgreenblue""]","2","low nameability","12","right","trigger",""
"html-button-response","70","572000","0.0-55.0-0.0","CAN_125","125","","","","","","807","<button class=""jspsych-btn""><img src=""stimuli/darkgreenblue.png"" style=""width: 200px;height: 200px;""></button>","1","darkgreenblue","lightred","[""darkgreenblue"",""lightred"",""low nameability""]","right-left","[""lightred"",""darkgreenblue""]","2","low nameability","12","right","response","1"
"html-audio-button-response","71","572204","0.0-55.0-1.0","CAN_125","125","","","","","","null","stimuli/bleep.m4a","null","darkgreenblue","lightred","[""darkgreenblue"",""lightred"",""low nameability""]","right-left","[""lightred"",""darkgreenblue""]","2","low nameability","12","right","audio_feedback","1"
"html-button-response","72","572725","0.0-56.0","CAN_125","125","","","","","","null","<button class=""jspsych-btn""><img src=""stimuli/white_square.png"" style=""width: 200px;height: 200px;""></button>","null","darkgreenblue","lightred","[""darkgreenblue"",""lightred"",""low nameability""]","right-left","[""lightred"",""darkgreenblue""]","2","low nameability","12","right","iti",""
"html-button-response","73","573579","0.0-57.0","CAN_125","125","","","","","","835","","0","neonyellow","mustard","[""neonyellow"",""mustard"",""low nameability""]","left-right","[""neonyellow"",""mustard"",""low nameability""]","2","low nameability","13","left","trigger",""
"html-button-response","74","574428","0.0-58.0-0.0","CAN_125","125","","","","","","842","<button class=""jspsych-btn""><img src=""stimuli/neonyellow.png"" style=""width: 200px;height: 200px;""></button>","0","neonyellow","mustard","[""neonyellow"",""mustard"",""low nameability""]","left-right","[""neonyellow"",""mustard"",""low nameability""]","2","low nameability","13","left","response","1"
"html-audio-button-response","75","574632","0.0-58.0-1.0","CAN_125","125","","","","","","null","stimuli/bleep.m4a","null","neonyellow","mustard","[""neonyellow"",""mustard"",""low nameability""]","left-right","[""neonyellow"",""mustard"",""low nameability""]","2","low nameability","13","left","audio_feedback","1"
"html-button-response","76","575156","0.0-59.0","CAN_125","125","","","","","","null","<button class=""jspsych-btn""><img src=""stimuli/white_square.png"" style=""width: 200px;height: 200px;""></button>","null","neonyellow","mustard","[""neonyellow"",""mustard"",""low nameability""]","left-right","[""neonyellow"",""mustard"",""low nameability""]","2","low nameability","13","left","iti",""
"html-button-response","77","575868","0.0-60.0","CAN_125","125","","","","","","692","","0","pink","neonyellow","[""pink"",""neonyellow"",""low nameability""]","right-left","[""neonyellow"",""pink""]","2","low nameability","14","right","trigger",""
"html-button-response","78","576760","0.0-61.0-0.0","CAN_125","125","","","","","","885","<button class=""jspsych-btn""><img src=""stimuli/pink.png"" style=""width: 200px;height: 200px;""></button>","1","pink","neonyellow","[""pink"",""neonyellow"",""low nameability""]","right-left","[""neonyellow"",""pink""]","2","low nameability","14","right","response","1"
"html-audio-button-response","79","576968","0.0-61.0-1.0","CAN_125","125","","","","","","null","stimuli/bleep.m4a","null","pink","neonyellow","[""pink"",""neonyellow"",""low nameability""]","right-left","[""neonyellow"",""pink""]","2","low nameability","14","right","audio_feedback","1"
"html-button-response","80","577492","0.0-62.0","CAN_125","125","","","","","","null","<button class=""jspsych-btn""><img src=""stimuli/white_square.png"" style=""width: 200px;height: 200px;""></button>","null","pink","neonyellow","[""pink"",""neonyellow"",""low nameability""]","right-left","[""neonyellow"",""pink""]","2","low nameability","14","right","iti",""
"html-button-response","81","578236","0.0-63.0","CAN_125","125","","","","","","729","","0","mustard","neonyellow","[""mustard"",""neonyellow"",""low nameability""]","right-left","[""neonyellow"",""mustard""]","2","low nameability","15","right","trigger",""
"html-button-response","82","579154","0.0-64.0-0.0","CAN_125","125","","","","","","910","<button class=""jspsych-btn""><img src=""stimuli/mustard.png"" style=""width: 200px;height: 200px;""></button>","1","mustard","neonyellow","[""mustard"",""neonyellow"",""low nameability""]","right-left","[""neonyellow"",""mustard""]","2","low nameability","15","right","response","1"
"html-audio-button-response","83","579360","0.0-64.0-1.0","CAN_125","125","","","","","","null","stimuli/bleep.m4a","null","mustard","neonyellow","[""mustard"",""neonyellow"",""low nameability""]","right-left","[""neonyellow"",""mustard""]","2","low nameability","15","right","audio_feedback","1"
"html-button-response","84","579881","0.0-65.0","CAN_125","125","","","","","","null","<button class=""jspsych-btn""><img src=""stimuli/white_square.png"" style=""width: 200px;height: 200px;""></button>","null","mustard","neonyellow","[""mustard"",""neonyellow"",""low nameability""]","right-left","[""neonyellow"",""mustard""]","2","low nameability","15","right","iti",""
"html-button-response","85","580557","0.0-66.0","CAN_125","125","","","","","","663","","0","turquoise","pink","[""turquoise"",""pink"",""low nameability""]","right-left","[""pink"",""turquoise""]","2","low nameability","16","right","trigger",""
"html-button-response","86","581389","0.0-67.0-0.0","CAN_125","125","","","","","","823","<button class=""jspsych-btn""><img src=""stimuli/turquoise.png"" style=""width: 200px;height: 200px;""></button>","1","turquoise","pink","[""turquoise"",""pink"",""low nameability""]","right-left","[""pink"",""turquoise""]","2","low nameability","16","right","response","1"
"html-audio-button-response","87","581595","0.0-67.0-1.0","CAN_125","125","","","","","","null","stimuli/bleep.m4a","null","turquoise","pink","[""turquoise"",""pink"",""low nameability""]","right-left","[""pink"",""turquoise""]","2","low nameability","16","right","audio_feedback","1"
"html-button-response","88","582111","0.0-68.0","CAN_125","125","","","","","","null","<button class=""jspsych-btn""><img src=""stimuli/white_square.png"" style=""width: 200px;height: 200px;""></button>","null","turquoise","pink","[""turquoise"",""pink"",""low nameability""]","right-left","[""pink"",""turquoise""]","2","low nameability","16","right","iti",""
"html-button-response","89","583055","0.0-69.0","CAN_125","125","","","","","","929","","0","yellow","purple","[""yellow"",""purple"",""high nameability""]","left-right","[""yellow"",""purple"",""high nameability""]","2","high nameability","17","left","trigger",""
"html-button-response","90","583840","0.0-70.0-0.0","CAN_125","125","","","","","","776","<button class=""jspsych-btn""><img src=""stimuli/yellow.png"" style=""width: 200px;height: 200px;""></button>","0","yellow","purple","[""yellow"",""purple"",""high nameability""]","left-right","[""yellow"",""purple"",""high nameability""]","2","high nameability","17","left","response","1"
"html-audio-button-response","91","584048","0.0-70.0-1.0","CAN_125","125","","","","","","null","stimuli/bleep.m4a","null","yellow","purple","[""yellow"",""purple"",""high nameability""]","left-right","[""yellow"",""purple"",""high nameability""]","2","high nameability","17","left","audio_feedback","1"
"html-button-response","92","584576","0.0-71.0","CAN_125","125","","","","","","null","<button class=""jspsych-btn""><img src=""stimuli/white_square.png"" style=""width: 200px;height: 200px;""></button>","null","yellow","purple","[""yellow"",""purple"",""high nameability""]","left-right","[""yellow"",""purple"",""high nameability""]","2","high nameability","17","left","iti",""
"html-button-response","93","585280","0.0-72.0","CAN_125","125","","","","","","683","","0","mustard","lightred","[""mustard"",""lightred"",""low nameability""]","left-right","[""mustard"",""lightred"",""low nameability""]","2","low nameability","18","left","trigger",""
"html-button-response","94","586010","0.0-73.0-0.0","CAN_125","125","","","","","","720","<button class=""jspsych-btn""><img src=""stimuli/mustard.png"" style=""width: 200px;height: 200px;""></button>","0","mustard","lightred","[""mustard"",""lightred"",""low nameability""]","left-right","[""mustard"",""lightred"",""low nameability""]","2","low nameability","18","left","response","1"
"html-audio-button-response","95","586213","0.0-73.0-1.0","CAN_125","125","","","","","","null","stimuli/bleep.m4a","null","mustard","lightred","[""mustard"",""lightred"",""low nameability""]","left-right","[""mustard"",""lightred"",""low nameability""]","2","low nameability","18","left","audio_feedback","1"
"html-button-response","96","586731","0.0-74.0","CAN_125","125","","","","","","null","<button class=""jspsych-btn""><img src=""stimuli/white_square.png"" style=""width: 200px;height: 200px;""></button>","null","mustard","lightred","[""mustard"",""lightred"",""low nameability""]","left-right","[""mustard"",""lightred"",""low nameability""]","2","low nameability","18","left","iti",""
"html-button-response","97","587529","0.0-75.0","CAN_125","125","","","","","","778","","0","brown","yellow","[""brown"",""yellow"",""high nameability""]","left-right","[""brown"",""yellow"",""high nameability""]","2","high nameability","19","left","trigger",""
"html-button-response","98","588291","0.0-76.0-0.0","CAN_125","125","","","","","","752","<button class=""jspsych-btn""><img src=""stimuli/brown.png"" style=""width: 200px;height: 200px;""></button>","0","brown","yellow","[""brown"",""yellow"",""high nameability""]","left-right","[""brown"",""yellow"",""high nameability""]","2","high nameability","19","left","response","1"
"html-audio-button-response","99","588495","0.0-76.0-1.0","CAN_125","125","","","","","","null","stimuli/bleep.m4a","null","brown","yellow","[""brown"",""yellow"",""high nameability""]","left-right","[""brown"",""yellow"",""high nameability""]","2","high nameability","19","left","audio_feedback","1"
"html-button-response","100","589015","0.0-77.0","CAN_125","125","","","","","","null","<button class=""jspsych-btn""><img src=""stimuli/white_square.png"" style=""width: 200px;height: 200px;""></button>","null","brown","yellow","[""brown"",""yellow"",""high nameability""]","left-right","[""brown"",""yellow"",""high nameability""]","2","high nameability","19","left","iti",""
"html-button-response","101","589756","0.0-78.0","CAN_125","125","","","","","","726","","0","purple","brown","[""purple"",""brown"",""high nameability""]","right-left","[""brown"",""purple""]","2","high nameability","20","right","trigger",""
"html-button-response","102","590575","0.0-79.0-0.0","CAN_125","125","","","","","","810","<button class=""jspsych-btn""><img src=""stimuli/purple.png"" style=""width: 200px;height: 200px;""></button>","1","purple","brown","[""purple"",""brown"",""high nameability""]","right-left","[""brown"",""purple""]","2","high nameability","20","right","response","1"
"html-audio-button-response","103","590780","0.0-79.0-1.0","CAN_125","125","","","","","","null","stimuli/bleep.m4a","null","purple","brown","[""purple"",""brown"",""high nameability""]","right-left","[""brown"",""purple""]","2","high nameability","20","right","audio_feedback","1"
"html-button-response","104","591304","0.0-80.0","CAN_125","125","","","","","","null","<button class=""jspsych-btn""><img src=""stimuli/white_square.png"" style=""width: 200px;height: 200px;""></button>","null","purple","brown","[""purple"",""brown"",""high nameability""]","right-left","[""brown"",""purple""]","2","high nameability","20","right","iti",""
"pavlovia","105","591373","0.0-81.0","CAN_125","125","","","","","","","","","","","","","","","","","","",""
"pavlovia","106","591382","0.0-82.0","CAN_125","125","","","","","","","","","","","","","","","","","","",""
"html-audio-button-response","107","593009","0.0-83.0","CAN_125","125","","","","","","1704","stimuli/tada.m4a","0","","","","","","","","","","",""
"html-button-response","108","594169","0.0-84.0","CAN_125","125","","","","","","1153","","0","","","","","","","","","","",""
"html-button-response","109","595089","0.0-85.0","CAN_125","125","","","","","","912","","0","darkgreenblue","turquoise","[""darkgreenblue"",""turquoise"",""low nameability""]","left-right","[""darkgreenblue"",""turquoise"",""low nameability""]","3","low nameability","21","left","trigger",""
"html-button-response","110","595880","0.0-86.0-0.0","CAN_125","125","","","","","","782","<button class=""jspsych-btn""><img src=""stimuli/darkgreenblue.png"" style=""width: 200px;height: 200px;""></button>","0","darkgreenblue","turquoise","[""darkgreenblue"",""turquoise"",""low nameability""]","left-right","[""darkgreenblue"",""turquoise"",""low nameability""]","3","low nameability","21","left","response","1"
"html-audio-button-response","111","596088","0.0-86.0-1.0","CAN_125","125","","","","","","null","stimuli/bleep.m4a","null","darkgreenblue","turquoise","[""darkgreenblue"",""turquoise"",""low nameability""]","left-right","[""darkgreenblue"",""turquoise"",""low nameability""]","3","low nameability","21","left","audio_feedback","1"
"html-button-response","112","596611","0.0-87.0","CAN_125","125","","","","","","null","<button class=""jspsych-btn""><img src=""stimuli/white_square.png"" style=""width: 200px;height: 200px;""></button>","null","darkgreenblue","turquoise","[""darkgreenblue"",""turquoise"",""low nameability""]","left-right","[""darkgreenblue"",""turquoise"",""low nameability""]","3","low nameability","21","left","iti",""
"html-button-response","113","597161","0.0-88.0","CAN_125","125","","","","","","534","","0","blue","red","[""blue"",""red"",""high nameability""]","left-right","[""blue"",""red"",""high nameability""]","3","high nameability","22","left","trigger",""
"html-button-response","114","597861","0.0-89.0-0.0","CAN_125","125","","","","","","693","<button class=""jspsych-btn""><img src=""stimuli/blue.png"" style=""width: 200px;height: 200px;""></button>","0","blue","red","[""blue"",""red"",""high nameability""]","left-right","[""blue"",""red"",""high nameability""]","3","high nameability","22","left","response","1"
"html-audio-button-response","115","598065","0.0-89.0-1.0","CAN_125","125","","","","","","null","stimuli/bleep.m4a","null","blue","red","[""blue"",""red"",""high nameability""]","left-right","[""blue"",""red"",""high nameability""]","3","high nameability","22","left","audio_feedback","1"
"html-button-response","116","598579","0.0-90.0","CAN_125","125","","","","","","null","<button class=""jspsych-btn""><img src=""stimuli/white_square.png"" style=""width: 200px;height: 200px;""></button>","null","blue","red","[""blue"",""red"",""high nameability""]","left-right","[""blue"",""red"",""high nameability""]","3","high nameability","22","left","iti",""
"html-button-response","117","599339","0.0-91.0","CAN_125","125","","","","","","744","","0","neonyellow","turquoise","[""neonyellow"",""turquoise"",""low nameability""]","right-left","[""turquoise"",""neonyellow""]","3","low nameability","23","right","trigger",""
"html-button-response","118","600092","0.0-92.0-0.0","CAN_125","125","","","","","","744","<button class=""jspsych-btn""><img src=""stimuli/neonyellow.png"" style=""width: 200px;height: 200px;""></button>","1","neonyellow","turquoise","[""neonyellow"",""turquoise"",""low nameability""]","right-left","[""turquoise"",""neonyellow""]","3","low nameability","23","right","response","1"
"html-audio-button-response","119","600296","0.0-92.0-1.0","CAN_125","125","","","","","","null","stimuli/bleep.m4a","null","neonyellow","turquoise","[""neonyellow"",""turquoise"",""low nameability""]","right-left","[""turquoise"",""neonyellow""]","3","low nameability","23","right","audio_feedback","1"
"html-button-response","120","600817","0.0-93.0","CAN_125","125","","","","","","null","<button class=""jspsych-btn""><img src=""stimuli/white_square.png"" style=""width: 200px;height: 200px;""></button>","null","neonyellow","turquoise","[""neonyellow"",""turquoise"",""low nameability""]","right-left","[""turquoise"",""neonyellow""]","3","low nameability","23","right","iti",""
"html-button-response","121","601530","0.0-94.0","CAN_125","125","","","","","","696","","0","turquoise","mustard","[""turquoise"",""mustard"",""low nameability""]","right-left","[""mustard"",""turquoise""]","3","low nameability","24","right","trigger",""
"html-button-response","122","602377","0.0-95.0-0.0","CAN_125","125","","","","","","839","<button class=""jspsych-btn""><img src=""stimuli/turquoise.png"" style=""width: 200px;height: 200px;""></button>","1","turquoise","mustard","[""turquoise"",""mustard"",""low nameability""]","right-left","[""mustard"",""turquoise""]","3","low nameability","24","right","response","1"
"html-audio-button-response","123","602580","0.0-95.0-1.0","CAN_125","125","","","","","","null","stimuli/bleep.m4a","null","turquoise","mustard","[""turquoise"",""mustard"",""low nameability""]","right-left","[""mustard"",""turquoise""]","3","low nameability","24","right","audio_feedback","1"
"html-button-response","124","603101","0.0-96.0","CAN_125","125","","","","","","null","<button class=""jspsych-btn""><img src=""stimuli/white_square.png"" style=""width: 200px;height: 200px;""></button>","null","turquoise","mustard","[""turquoise"",""mustard"",""low nameability""]","right-left","[""mustard"",""turquoise""]","3","low nameability","24","right","iti",""
"html-button-response","125","603998","0.0-97.0","CAN_125","125","","","","","","877","","0","darkgreenblue","mustard","[""darkgreenblue"",""mustard"",""low nameability""]","left-right","[""darkgreenblue"",""mustard"",""low nameability""]","3","low nameability","25","left","trigger",""
"html-button-response","126","604755","0.0-98.0-0.0","CAN_125","125","","","","","","749","<button class=""jspsych-btn""><img src=""stimuli/darkgreenblue.png"" style=""width: 200px;height: 200px;""></button>","0","darkgreenblue","mustard","[""darkgreenblue"",""mustard"",""low nameability""]","left-right","[""darkgreenblue"",""mustard"",""low nameability""]","3","low nameability","25","left","response","1"
"html-audio-button-response","127","604955","0.0-98.0-1.0","CAN_125","125","","","","","","null","stimuli/bleep.m4a","null","darkgreenblue","mustard","[""darkgreenblue"",""mustard"",""low nameability""]","left-right","[""darkgreenblue"",""mustard"",""low nameability""]","3","low nameability","25","left","audio_feedback","1"
"html-button-response","128","605477","0.0-99.0","CAN_125","125","","","","","","null","<button class=""jspsych-btn""><img src=""stimuli/white_square.png"" style=""width: 200px;height: 200px;""></button>","null","darkgreenblue","mustard","[""darkgreenblue"",""mustard"",""low nameability""]","left-right","[""darkgreenblue"",""mustard"",""low nameability""]","3","low nameability","25","left","iti",""
"html-button-response","129","606296","0.0-100.0","CAN_125","125","","","","","","798","","0","blue","purple","[""blue"",""purple"",""high nameability""]","left-right","[""blue"",""purple"",""high nameability""]","3","high nameability","26","left","trigger",""
"html-button-response","130","607039","0.0-101.0-0.0","CAN_125","125","","","","","","734","<button class=""jspsych-btn""><img src=""stimuli/blue.png"" style=""width: 200px;height: 200px;""></button>","0","blue","purple","[""blue"",""purple"",""high nameability""]","left-right","[""blue"",""purple"",""high nameability""]","3","high nameability","26","left","response","1"
"html-audio-button-response","131","607244","0.0-101.0-1.0","CAN_125","125","","","","","","null","stimuli/bleep.m4a","null","blue","purple","[""blue"",""purple"",""high nameability""]","left-right","[""blue"",""purple"",""high nameability""]","3","high nameability","26","left","audio_feedback","1"
"html-button-response","132","607763","0.0-102.0","CAN_125","125","","","","","","null","<button class=""jspsych-btn""><img src=""stimuli/white_square.png"" style=""width: 200px;height: 200px;""></button>","null","blue","purple","[""blue"",""purple"",""high nameability""]","left-right","[""blue"",""purple"",""high nameability""]","3","high nameability","26","left","iti",""
"html-button-response","133","608554","0.0-103.0","CAN_125","125","","","","","","769","","0","pink","mustard","[""pink"",""mustard"",""low nameability""]","left-right","[""pink"",""mustard"",""low nameability""]","3","low nameability","27","left","trigger",""
"html-button-response","134","609275","0.0-104.0-0.0","CAN_125","125","","","","","","713","<button class=""jspsych-btn""><img src=""stimuli/pink.png"" style=""width: 200px;height: 200px;""></button>","0","pink","mustard","[""pink"",""mustard"",""low nameability""]","left-right","[""pink"",""mustard"",""low nameability""]","3","low nameability","27","left","response","1"
"html-audio-button-response","135","609479","0.0-104.0-1.0","CAN_125","125","","","","","","null","stimuli/bleep.m4a","null","pink","mustard","[""pink"",""mustard"",""low nameability""]","left-right","[""pink"",""mustard"",""low nameability""]","3","low nameability","27","left","audio_feedback","1"
"html-button-response","136","609997","0.0-105.0","CAN_125","125","","","","","","null","<button class=""jspsych-btn""><img src=""stimuli/white_square.png"" style=""width: 200px;height: 200px;""></button>","null","pink","mustard","[""pink"",""mustard"",""low nameability""]","left-right","[""pink"",""mustard"",""low nameability""]","3","low nameability","27","left","iti",""
"html-button-response","137","610730","0.0-106.0","CAN_125","125","","","","","","707","","0","blue","brown","[""blue"",""brown"",""high nameability""]","right-left","[""brown"",""blue""]","3","high nameability","28","right","trigger",""
"html-button-response","138","611479","0.0-107.0-0.0","CAN_125","125","","","","","","742","<button class=""jspsych-btn""><img src=""stimuli/blue.png"" style=""width: 200px;height: 200px;""></button>","1","blue","brown","[""blue"",""brown"",""high nameability""]","right-left","[""brown"",""blue""]","3","high nameability","28","right","response","1"
"html-audio-button-response","139","611684","0.0-107.0-1.0","CAN_125","125","","","","","","null","stimuli/bleep.m4a","null","blue","brown","[""blue"",""brown"",""high nameability""]","right-left","[""brown"",""blue""]","3","high nameability","28","right","audio_feedback","1"
"html-button-response","140","612203","0.0-108.0","CAN_125","125","","","","","","null","<button class=""jspsych-btn""><img src=""stimuli/white_square.png"" style=""width: 200px;height: 200px;""></button>","null","blue","brown","[""blue"",""brown"",""high nameability""]","right-left","[""brown"",""blue""]","3","high nameability","28","right","iti",""
"html-button-response","141","613000","0.0-109.0","CAN_125","125","","","","","","778","","0","yellow","brown","[""yellow"",""brown"",""high nameability""]","right-left","[""brown"",""yellow""]","3","high nameability","29","right","trigger",""
"html-button-response","142","613744","0.0-110.0-0.0","CAN_125","125","","","","","","739","<button class=""jspsych-btn""><img src=""stimuli/yellow.png"" style=""width: 200px;height: 200px;""></button>","1","yellow","brown","[""yellow"",""brown"",""high nameability""]","right-left","[""brown"",""yellow""]","3","high nameability","29","right","response","1"
"html-audio-button-response","143","613948","0.0-110.0-1.0","CAN_125","125","","","","","","null","stimuli/bleep.m4a","null","yellow","brown","[""yellow"",""brown"",""high nameability""]","right-left","[""brown"",""yellow""]","3","high nameability","29","right","audio_feedback","1"
"html-button-response","144","614468","0.0-111.0","CAN_125","125","","","","","","null","<button class=""jspsych-btn""><img src=""stimuli/white_square.png"" style=""width: 200px;height: 200px;""></button>","null","yellow","brown","[""yellow"",""brown"",""high nameability""]","right-left","[""brown"",""yellow""]","3","high nameability","29","right","iti",""
"html-button-response","145","615323","0.0-112.0","CAN_125","125","","","","","","833","","0","blue","yellow","[""blue"",""yellow"",""high nameability""]","right-left","[""yellow"",""blue""]","3","high nameability","30","right","trigger",""
"html-button-response","146","616071","0.0-113.0-0.0","CAN_125","125","","","","","","740","<button class=""jspsych-btn""><img src=""stimuli/blue.png"" style=""width: 200px;height: 200px;""></button>","1","blue","yellow","[""blue"",""yellow"",""high nameability""]","right-left","[""yellow"",""blue""]","3","high nameability","30","right","response","1"
"html-audio-button-response","147","616276","0.0-113.0-1.0","CAN_125","125","","","","","","null","stimuli/bleep.m4a","null","blue","yellow","[""blue"",""yellow"",""high nameability""]","right-left","[""yellow"",""blue""]","3","high nameability","30","right","audio_feedback","1"
"html-button-response","148","616802","0.0-114.0","CAN_125","125","","","","","","null","<button class=""jspsych-btn""><img src=""stimuli/white_square.png"" style=""width: 200px;height: 200px;""></button>","null","blue","yellow","[""blue"",""yellow"",""high nameability""]","right-left","[""yellow"",""blue""]","3","high nameability","30","right","iti",""
"pavlovia","149","616870","0.0-115.0","CAN_125","125","","","","","","","","","","","","","","","","","","",""
"pavlovia","150","616877","0.0-116.0","CAN_125","125","","","","","","","","","","","","","","","","","","",""
"html-audio-button-response","151","618319","0.0-117.0","CAN_125","125","","","","","","1515","stimuli/tada.m4a","0","","","","","","","","","","",""
"html-button-response","152","619039","0.0-118.0","CAN_125","125","","","","","","713","","0","","","","","","","","","","",""
"html-button-response","153","619777","0.0-119.0","CAN_125","125","","","","","","729","","0","lightred","darkgreenblue","[""lightred"",""darkgreenblue"",""low nameability""]","left-right","[""lightred"",""darkgreenblue"",""low nameability""]","4","low nameability","31","left","trigger",""
"html-button-response","154","620467","0.0-120.0-0.0","CAN_125","125","","","","","","681","<button class=""jspsych-btn""><img src=""stimuli/lightred.png"" style=""width: 200px;height: 200px;""></button>","0","lightred","darkgreenblue","[""lightred"",""darkgreenblue"",""low nameability""]","left-right","[""lightred"",""darkgreenblue"",""low nameability""]","4","low nameability","31","left","response","1"
"html-audio-button-response","155","620672","0.0-120.0-1.0","CAN_125","125","","","","","","null","stimuli/bleep.m4a","null","lightred","darkgreenblue","[""lightred"",""darkgreenblue"",""low nameability""]","left-right","[""lightred"",""darkgreenblue"",""low nameability""]","4","low nameability","31","left","audio_feedback","1"
"html-button-response","156","621190","0.0-121.0","CAN_125","125","","","","","","null","<button class=""jspsych-btn""><img src=""stimuli/white_square.png"" style=""width: 200px;height: 200px;""></button>","null","lightred","darkgreenblue","[""lightred"",""darkgreenblue"",""low nameability""]","left-right","[""lightred"",""darkgreenblue"",""low nameability""]","4","low nameability","31","left","iti",""
"html-button-response","157","621811","0.0-122.0","CAN_125","125","","","","","","602","","0","orange","brown","[""orange"",""brown"",""high nameability""]","left-right","[""orange"",""brown"",""high nameability""]","4","high nameability","32","left","trigger",""
"html-button-response","158","622451","0.0-123.0-0.0","CAN_125","125","","","","","","633","<button class=""jspsych-btn""><img src=""stimuli/orange.png"" style=""width: 200px;height: 200px;""></button>","0","orange","brown","[""orange"",""brown"",""high nameability""]","left-right","[""orange"",""brown"",""high nameability""]","4","high nameability","32","left","response","1"
"html-audio-button-response","159","622660","0.0-123.0-1.0","CAN_125","125","","","","","","null","stimuli/bleep.m4a","null","orange","brown","[""orange"",""brown"",""high nameability""]","left-right","[""orange"",""brown"",""high nameability""]","4","high nameability","32","left","audio_feedback","1"
"html-button-response","160","623180","0.0-124.0","CAN_125","125","","","","","","null","<button class=""jspsych-btn""><img src=""stimuli/white_square.png"" style=""width: 200px;height: 200px;""></button>","null","orange","brown","[""orange"",""brown"",""high nameability""]","left-right","[""orange"",""brown"",""high nameability""]","4","high nameability","32","left","iti",""
"html-button-response","161","623942","0.0-125.0","CAN_125","125","","","","","","736","","0","purple","yellow","[""purple"",""yellow"",""high nameability""]","right-left","[""yellow"",""purple""]","4","high nameability","33","right","trigger",""
"html-button-response","162","624667","0.0-126.0-0.0","CAN_125","125","","","","","","717","<button class=""jspsych-btn""><img src=""stimuli/purple.png"" style=""width: 200px;height: 200px;""></button>","1","purple","yellow","[""purple"",""yellow"",""high nameability""]","right-left","[""yellow"",""purple""]","4","high nameability","33","right","response","1"
"html-audio-button-response","163","624873","0.0-126.0-1.0","CAN_125","125","","","","","","null","stimuli/bleep.m4a","null","purple","yellow","[""purple"",""yellow"",""high nameability""]","right-left","[""yellow"",""purple""]","4","high nameability","33","right","audio_feedback","1"
"html-button-response","164","625394","0.0-127.0","CAN_125","125","","","","","","null","<button class=""jspsych-btn""><img src=""stimuli/white_square.png"" style=""width: 200px;height: 200px;""></button>","null","purple","yellow","[""purple"",""yellow"",""high nameability""]","right-left","[""yellow"",""purple""]","4","high nameability","33","right","iti",""
"html-button-response","165","626178","0.0-128.0","CAN_125","125","","","","","","762","","0","purple","orange","[""purple"",""orange"",""high nameability""]","left-right","[""purple"",""orange"",""high nameability""]","4","high nameability","34","left","trigger",""
"html-button-response","166","626865","0.0-129.0-0.0","CAN_125","125","","","","","","680","<button class=""jspsych-btn""><img src=""stimuli/purple.png"" style=""width: 200px;height: 200px;""></button>","0","purple","orange","[""purple"",""orange"",""high nameability""]","left-right","[""purple"",""orange"",""high nameability""]","4","high nameability","34","left","response","1"
"html-audio-button-response","167","627068","0.0-129.0-1.0","CAN_125","125","","","","","","null","stimuli/bleep.m4a","null","purple","orange","[""purple"",""orange"",""high nameability""]","left-right","[""purple"",""orange"",""high nameability""]","4","high nameability","34","left","audio_feedback","1"
"html-button-response","168","627589","0.0-130.0","CAN_125","125","","","","","","null","<button class=""jspsych-btn""><img src=""stimuli/white_square.png"" style=""width: 200px;height: 200px;""></button>","null","purple","orange","[""purple"",""orange"",""high nameability""]","left-right","[""purple"",""orange"",""high nameability""]","4","high nameability","34","left","iti",""
"html-button-response","169","628416","0.0-131.0","CAN_125","125","","","","","","802","","0","brown","orange","[""brown"",""orange"",""high nameability""]","left-right","[""brown"",""orange"",""high nameability""]","4","high nameability","35","left","trigger",""
"html-button-response","170","629085","0.0-132.0-0.0","CAN_125","125","","","","","","660","<button class=""jspsych-btn""><img src=""stimuli/brown.png"" style=""width: 200px;height: 200px;""></button>","0","brown","orange","[""brown"",""orange"",""high nameability""]","left-right","[""brown"",""orange"",""high nameability""]","4","high nameability","35","left","response","1"
"html-audio-button-response","171","629288","0.0-132.0-1.0","CAN_125","125","","","","","","null","stimuli/bleep.m4a","null","brown","orange","[""brown"",""orange"",""high nameability""]","left-right","[""brown"",""orange"",""high nameability""]","4","high nameability","35","left","audio_feedback","1"
"html-button-response","172","629806","0.0-133.0","CAN_125","125","","","","","","null","<button class=""jspsych-btn""><img src=""stimuli/white_square.png"" style=""width: 200px;height: 200px;""></button>","null","brown","orange","[""brown"",""orange"",""high nameability""]","left-right","[""brown"",""orange"",""high nameability""]","4","high nameability","35","left","iti",""
"html-button-response","173","630591","0.0-134.0","CAN_125","125","","","","","","766","","0","orange","blue","[""orange"",""blue"",""high nameability""]","left-right","[""orange"",""blue"",""high nameability""]","4","high nameability","36","left","trigger",""
"html-button-response","174","631215","0.0-135.0-0.0","CAN_125","125","","","","","","614","<button class=""jspsych-btn""><img src=""stimuli/orange.png"" style=""width: 200px;height: 200px;""></button>","0","orange","blue","[""orange"",""blue"",""high nameability""]","left-right","[""orange"",""blue"",""high nameability""]","4","high nameability","36","left","response","1"
"html-audio-button-response","175","631420","0.0-135.0-1.0","CAN_125","125","","","","","","null","stimuli/bleep.m4a","null","orange","blue","[""orange"",""blue"",""high nameability""]","left-right","[""orange"",""blue"",""high nameability""]","4","high nameability","36","left","audio_feedback","1"
"html-button-response","176","631939","0.0-136.0","CAN_125","125","","","","","","null","<button class=""jspsych-btn""><img src=""stimuli/white_square.png"" style=""width: 200px;height: 200px;""></button>","null","orange","blue","[""orange"",""blue"",""high nameability""]","left-right","[""orange"",""blue"",""high nameability""]","4","high nameability","36","left","iti",""
"html-button-response","177","632682","0.0-137.0","CAN_125","125","","","","","","702","","0","brown","purple","[""brown"",""purple"",""high nameability""]","right-left","[""purple"",""brown""]","4","high nameability","37","right","trigger",""
"html-button-response","178","633437","0.0-138.0-0.0","CAN_125","125","","","","","","743","<button class=""jspsych-btn""><img src=""stimuli/brown.png"" style=""width: 200px;height: 200px;""></button>","1","brown","purple","[""brown"",""purple"",""high nameability""]","right-left","[""purple"",""brown""]","4","high nameability","37","right","response","1"
"html-audio-button-response","179","633645","0.0-138.0-1.0","CAN_125","125","","","","","","null","stimuli/bleep.m4a","null","brown","purple","[""brown"",""purple"",""high nameability""]","right-left","[""purple"",""brown""]","4","high nameability","37","right","audio_feedback","1"
"html-button-response","180","634168","0.0-139.0","CAN_125","125","","","","","","null","<button class=""jspsych-btn""><img src=""stimuli/white_square.png"" style=""width: 200px;height: 200px;""></button>","null","brown","purple","[""brown"",""purple"",""high nameability""]","right-left","[""purple"",""brown""]","4","high nameability","37","right","iti",""
"html-button-response","181","635007","0.0-140.0","CAN_125","125","","","","","","822","","0","turquoise","lightred","[""turquoise"",""lightred"",""low nameability""]","right-left","[""lightred"",""turquoise""]","4","low nameability","38","right","trigger",""
"html-button-response","182","635765","0.0-141.0-0.0","CAN_125","125","","","","","","741","<button class=""jspsych-btn""><img src=""stimuli/turquoise.png"" style=""width: 200px;height: 200px;""></button>","1","turquoise","lightred","[""turquoise"",""lightred"",""low nameability""]","right-left","[""lightred"",""turquoise""]","4","low nameability","38","right","response","1"
"html-audio-button-response","183","635981","0.0-141.0-1.0","CAN_125","125","","","","","","null","stimuli/bleep.m4a","null","turquoise","lightred","[""turquoise"",""lightred"",""low nameability""]","right-left","[""lightred"",""turquoise""]","4","low nameability","38","right","audio_feedback","1"
"html-button-response","184","636507","0.0-142.0","CAN_125","125","","","","","","null","<button class=""jspsych-btn""><img src=""stimuli/white_square.png"" style=""width: 200px;height: 200px;""></button>","null","turquoise","lightred","[""turquoise"",""lightred"",""low nameability""]","right-left","[""lightred"",""turquoise""]","4","low nameability","38","right","iti",""
"html-button-response","185","637391","0.0-143.0","CAN_125","125","","","","","","865","","0","mustard","turquoise","[""mustard"",""turquoise"",""low nameability""]","left-right","[""mustard"",""turquoise"",""low nameability""]","4","low nameability","39","left","trigger",""
"html-button-response","186","638049","0.0-144.0-0.0","CAN_125","125","","","","","","651","<button class=""jspsych-btn""><img src=""stimuli/mustard.png"" style=""width: 200px;height: 200px;""></button>","0","mustard","turquoise","[""mustard"",""turquoise"",""low nameability""]","left-right","[""mustard"",""turquoise"",""low nameability""]","4","low nameability","39","left","response","1"
"html-audio-button-response","187","638256","0.0-144.0-1.0","CAN_125","125","","","","","","null","stimuli/bleep.m4a","null","mustard","turquoise","[""mustard"",""turquoise"",""low nameability""]","left-right","[""mustard"",""turquoise"",""low nameability""]","4","low nameability","39","left","audio_feedback","1"
"html-button-response","188","638779","0.0-145.0","CAN_125","125","","","","","","null","<button class=""jspsych-btn""><img src=""stimuli/white_square.png"" style=""width: 200px;height: 200px;""></button>","null","mustard","turquoise","[""mustard"",""turquoise"",""low nameability""]","left-right","[""mustard"",""turquoise"",""low nameability""]","4","low nameability","39","left","iti",""
"html-button-response","189","639729","0.0-146.0","CAN_125","125","","","","","","923","","0","mustard","pink","[""mustard"",""pink"",""low nameability""]","right-left","[""pink"",""mustard""]","4","low nameability","40","right","trigger",""
"html-button-response","190","640478","0.0-147.0-0.0","CAN_125","125","","","","","","742","<button class=""jspsych-btn""><img src=""stimuli/mustard.png"" style=""width: 200px;height: 200px;""></button>","1","mustard","pink","[""mustard"",""pink"",""low nameability""]","right-left","[""pink"",""mustard""]","4","low nameability","40","right","response","1"
"html-audio-button-response","191","640679","0.0-147.0-1.0","CAN_125","125","","","","","","null","stimuli/bleep.m4a","null","mustard","pink","[""mustard"",""pink"",""low nameability""]","right-left","[""pink"",""mustard""]","4","low nameability","40","right","audio_feedback","1"
"html-button-response","192","641204","0.0-148.0","CAN_125","125","","","","","","null","<button class=""jspsych-btn""><img src=""stimuli/white_square.png"" style=""width: 200px;height: 200px;""></button>","null","mustard","pink","[""mustard"",""pink"",""low nameability""]","right-left","[""pink"",""mustard""]","4","low nameability","40","right","iti",""
"pavlovia","193","641262","0.0-149.0","CAN_125","125","","","","","","","","","","","","","","","","","","",""
"pavlovia","194","641269","0.0-150.0","CAN_125","125","","","","","","","","","","","","","","","","","","",""
"html-audio-button-response","195","642624","0.0-151.0","CAN_125","125","","","","","","1419","stimuli/tada.m4a","0","","","","","","","","","","",""
"html-button-response","196","643498","0.0-152.0","CAN_125","125","","","","","","868","","0","","","","","","","","","","",""
"html-button-response","197","644331","0.0-153.0","CAN_125","125","","","","","","827","","0","darkgreenblue","pink","[""darkgreenblue"",""pink"",""low nameability""]","right-left","[""pink"",""darkgreenblue""]","5","low nameability","41","right","trigger",""
"html-button-response","198","645093","0.0-154.0-0.0","CAN_125","125","","","","","","756","<button class=""jspsych-btn""><img src=""stimuli/darkgreenblue.png"" style=""width: 200px;height: 200px;""></button>","1","darkgreenblue","pink","[""darkgreenblue"",""pink"",""low nameability""]","right-left","[""pink"",""darkgreenblue""]","5","low nameability","41","right","response","1"
"html-audio-button-response","199","645296","0.0-154.0-1.0","CAN_125","125","","","","","","null","stimuli/bleep.m4a","null","darkgreenblue","pink","[""darkgreenblue"",""pink"",""low nameability""]","right-left","[""pink"",""darkgreenblue""]","5","low nameability","41","right","audio_feedback","1"
"html-button-response","200","645816","0.0-155.0","CAN_125","125","","","","","","null","<button class=""jspsych-btn""><img src=""stimuli/white_square.png"" style=""width: 200px;height: 200px;""></button>","null","darkgreenblue","pink","[""darkgreenblue"",""pink"",""low nameability""]","right-left","[""pink"",""darkgreenblue""]","5","low nameability","41","right","iti",""
"html-button-response","201","646378","0.0-156.0","CAN_125","125","","","","","","532","","0","lightred","neonyellow","[""lightred"",""neonyellow"",""low nameability""]","right-left","[""neonyellow"",""lightred""]","5","low nameability","42","right","trigger",""
"html-button-response","202","647118","0.0-157.0-0.0","CAN_125","125","","","","","","732","<button class=""jspsych-btn""><img src=""stimuli/lightred.png"" style=""width: 200px;height: 200px;""></button>","1","lightred","neonyellow","[""lightred"",""neonyellow"",""low nameability""]","right-left","[""neonyellow"",""lightred""]","5","low nameability","42","right","response","1"
"html-audio-button-response","203","647320","0.0-157.0-1.0","CAN_125","125","","","","","","null","stimuli/bleep.m4a","null","lightred","neonyellow","[""lightred"",""neonyellow"",""low nameability""]","right-left","[""neonyellow"",""lightred""]","5","low nameability","42","right","audio_feedback","1"
"html-button-response","204","647844","0.0-158.0","CAN_125","125","","","","","","null","<button class=""jspsych-btn""><img src=""stimuli/white_square.png"" style=""width: 200px;height: 200px;""></button>","null","lightred","neonyellow","[""lightred"",""neonyellow"",""low nameability""]","right-left","[""neonyellow"",""lightred""]","5","low nameability","42","right","iti",""
"html-button-response","205","648524","0.0-159.0","CAN_125","125","","","","","","663","","0","red","blue","[""red"",""blue"",""high nameability""]","left-right","[""red"",""blue"",""high nameability""]","5","high nameability","43","left","trigger",""
"html-button-response","206","649233","0.0-160.0-0.0","CAN_125","125","","","","","","702","<button class=""jspsych-btn""><img src=""stimuli/red.png"" style=""width: 200px;height: 200px;""></button>","0","red","blue","[""red"",""blue"",""high nameability""]","left-right","[""red"",""blue"",""high nameability""]","5","high nameability","43","left","response","1"
"html-audio-button-response","207","649435","0.0-160.0-1.0","CAN_125","125","","","","","","null","stimuli/bleep.m4a","null","red","blue","[""red"",""blue"",""high nameability""]","left-right","[""red"",""blue"",""high nameability""]","5","high nameability","43","left","audio_feedback","1"
"html-button-response","208","649958","0.0-161.0","CAN_125","125","","","","","","null","<button class=""jspsych-btn""><img src=""stimuli/white_square.png"" style=""width: 200px;height: 200px;""></button>","null","red","blue","[""red"",""blue"",""high nameability""]","left-right","[""red"",""blue"",""high nameability""]","5","high nameability","43","left","iti",""
"html-button-response","209","650770","0.0-162.0","CAN_125","125","","","","","","802","","0","neonyellow","pink","[""neonyellow"",""pink"",""low nameability""]","right-left","[""pink"",""neonyellow""]","5","low nameability","44","right","trigger",""
"html-button-response","210","651458","0.0-163.0-0.0","CAN_125","125","","","","","","681","<button class=""jspsych-btn""><img src=""stimuli/neonyellow.png"" style=""width: 200px;height: 200px;""></button>","1","neonyellow","pink","[""neonyellow"",""pink"",""low nameability""]","right-left","[""pink"",""neonyellow""]","5","low nameability","44","right","response","1"
"html-audio-button-response","211","651660","0.0-163.0-1.0","CAN_125","125","","","","","","null","stimuli/bleep.m4a","null","neonyellow","pink","[""neonyellow"",""pink"",""low nameability""]","right-left","[""pink"",""neonyellow""]","5","low nameability","44","right","audio_feedback","1"
"html-button-response","212","652178","0.0-164.0","CAN_125","125","","","","","","null","<button class=""jspsych-btn""><img src=""stimuli/white_square.png"" style=""width: 200px;height: 200px;""></button>","null","neonyellow","pink","[""neonyellow"",""pink"",""low nameability""]","right-left","[""pink"",""neonyellow""]","5","low nameability","44","right","iti",""
"html-button-response","213","652945","0.0-165.0","CAN_125","125","","","","","","748","","0","lightred","mustard","[""lightred"",""mustard"",""low nameability""]","left-right","[""lightred"",""mustard"",""low nameability""]","5","low nameability","45","left","trigger",""
"html-button-response","214","653585","0.0-166.0-0.0","CAN_125","125","","","","","","635","<button class=""jspsych-btn""><img src=""stimuli/lightred.png"" style=""width: 200px;height: 200px;""></button>","0","lightred","mustard","[""lightred"",""mustard"",""low nameability""]","left-right","[""lightred"",""mustard"",""low nameability""]","5","low nameability","45","left","response","1"
"html-audio-button-response","215","653788","0.0-166.0-1.0","CAN_125","125","","","","","","null","stimuli/bleep.m4a","null","lightred","mustard","[""lightred"",""mustard"",""low nameability""]","left-right","[""lightred"",""mustard"",""low nameability""]","5","low nameability","45","left","audio_feedback","1"
"html-button-response","216","654306","0.0-167.0","CAN_125","125","","","","","","null","<button class=""jspsych-btn""><img src=""stimuli/white_square.png"" style=""width: 200px;height: 200px;""></button>","null","lightred","mustard","[""lightred"",""mustard"",""low nameability""]","left-right","[""lightred"",""mustard"",""low nameability""]","5","low nameability","45","left","iti",""
"html-button-response","217","655184","0.0-168.0","CAN_125","125","","","","","","858","","0","neonyellow","darkgreenblue","[""neonyellow"",""darkgreenblue"",""low nameability""]","left-right","[""neonyellow"",""darkgreenblue"",""low nameability""]","5","low nameability","46","left","trigger",""
"html-button-response","218","655872","0.0-169.0-0.0","CAN_125","125","","","","","","681","<button class=""jspsych-btn""><img src=""stimuli/neonyellow.png"" style=""width: 200px;height: 200px;""></button>","0","neonyellow","darkgreenblue","[""neonyellow"",""darkgreenblue"",""low nameability""]","left-right","[""neonyellow"",""darkgreenblue"",""low nameability""]","5","low nameability","46","left","response","1"
"html-audio-button-response","219","656076","0.0-169.0-1.0","CAN_125","125","","","","","","null","stimuli/bleep.m4a","null","neonyellow","darkgreenblue","[""neonyellow"",""darkgreenblue"",""low nameability""]","left-right","[""neonyellow"",""darkgreenblue"",""low nameability""]","5","low nameability","46","left","audio_feedback","1"
"html-button-response","220","656603","0.0-170.0","CAN_125","125","","","","","","null","<button class=""jspsych-btn""><img src=""stimuli/white_square.png"" style=""width: 200px;height: 200px;""></button>","null","neonyellow","darkgreenblue","[""neonyellow"",""darkgreenblue"",""low nameability""]","left-right","[""neonyellow"",""darkgreenblue"",""low nameability""]","5","low nameability","46","left","iti",""
"html-button-response","221","657674","0.0-171.0","CAN_125","125","","","","","","1048","","0","darkgreenblue","neonyellow","[""darkgreenblue"",""neonyellow"",""low nameability""]","left-right","[""darkgreenblue"",""neonyellow"",""low nameability""]","5","low nameability","47","left","trigger",""
"html-button-response","222","658310","0.0-172.0-0.0","CAN_125","125","","","","","","629","<button class=""jspsych-btn""><img src=""stimuli/darkgreenblue.png"" style=""width: 200px;height: 200px;""></button>","0","darkgreenblue","neonyellow","[""darkgreenblue"",""neonyellow"",""low nameability""]","left-right","[""darkgreenblue"",""neonyellow"",""low nameability""]","5","low nameability","47","left","response","1"
"html-audio-button-response","223","658515","0.0-172.0-1.0","CAN_125","125","","","","","","null","stimuli/bleep.m4a","null","darkgreenblue","neonyellow","[""darkgreenblue"",""neonyellow"",""low nameability""]","left-right","[""darkgreenblue"",""neonyellow"",""low nameability""]","5","low nameability","47","left","audio_feedback","1"
"html-button-response","224","659035","0.0-173.0","CAN_125","125","","","","","","null","<button class=""jspsych-btn""><img src=""stimuli/white_square.png"" style=""width: 200px;height: 200px;""></button>","null","darkgreenblue","neonyellow","[""darkgreenblue"",""neonyellow"",""low nameability""]","left-right","[""darkgreenblue"",""neonyellow"",""low nameability""]","5","low nameability","47","left","iti",""
"html-button-response","225","659829","0.0-174.0","CAN_125","125","","","","","","780","","0","orange","yellow","[""orange"",""yellow"",""high nameability""]","left-right","[""orange"",""yellow"",""high nameability""]","5","high nameability","48","left","trigger",""
"html-button-response","226","660479","0.0-175.0-0.0","CAN_125","125","","","","","","643","<button class=""jspsych-btn""><img src=""stimuli/orange.png"" style=""width: 200px;height: 200px;""></button>","0","orange","yellow","[""orange"",""yellow"",""high nameability""]","left-right","[""orange"",""yellow"",""high nameability""]","5","high nameability","48","left","response","1"
"html-audio-button-response","227","660679","0.0-175.0-1.0","CAN_125","125","","","","","","null","stimuli/bleep.m4a","null","orange","yellow","[""orange"",""yellow"",""high nameability""]","left-right","[""orange"",""yellow"",""high nameability""]","5","high nameability","48","left","audio_feedback","1"
"html-button-response","228","661196","0.0-176.0","CAN_125","125","","","","","","null","<button class=""jspsych-btn""><img src=""stimuli/white_square.png"" style=""width: 200px;height: 200px;""></button>","null","orange","yellow","[""orange"",""yellow"",""high nameability""]","left-right","[""orange"",""yellow"",""high nameability""]","5","high nameability","48","left","iti",""
"html-button-response","229","661992","0.0-177.0","CAN_125","125","","","","","","774","","0","blue","orange","[""blue"",""orange"",""high nameability""]","right-left","[""orange"",""blue""]","5","high nameability","49","right","trigger",""
"html-button-response","230","662652","0.0-178.0-0.0","CAN_125","125","","","","","","653","<button class=""jspsych-btn""><img src=""stimuli/blue.png"" style=""width: 200px;height: 200px;""></button>","1","blue","orange","[""blue"",""orange"",""high nameability""]","right-left","[""orange"",""blue""]","5","high nameability","49","right","response","1"
"html-audio-button-response","231","662856","0.0-178.0-1.0","CAN_125","125","","","","","","null","stimuli/bleep.m4a","null","blue","orange","[""blue"",""orange"",""high nameability""]","right-left","[""orange"",""blue""]","5","high nameability","49","right","audio_feedback","1"
"html-button-response","232","663379","0.0-179.0","CAN_125","125","","","","","","null","<button class=""jspsych-btn""><img src=""stimuli/white_square.png"" style=""width: 200px;height: 200px;""></button>","null","blue","orange","[""blue"",""orange"",""high nameability""]","right-left","[""orange"",""blue""]","5","high nameability","49","right","iti",""
"html-button-response","233","664127","0.0-180.0","CAN_125","125","","","","","","731","","0","red","purple","[""red"",""purple"",""high nameability""]","right-left","[""purple"",""red""]","5","high nameability","50","right","trigger",""
"html-button-response","234","664833","0.0-181.0-0.0","CAN_125","125","","","","","","699","<button class=""jspsych-btn""><img src=""stimuli/red.png"" style=""width: 200px;height: 200px;""></button>","1","red","purple","[""red"",""purple"",""high nameability""]","right-left","[""purple"",""red""]","5","high nameability","50","right","response","1"
"html-audio-button-response","235","665039","0.0-181.0-1.0","CAN_125","125","","","","","","null","stimuli/bleep.m4a","null","red","purple","[""red"",""purple"",""high nameability""]","right-left","[""purple"",""red""]","5","high nameability","50","right","audio_feedback","1"
"html-button-response","236","665559","0.0-182.0","CAN_125","125","","","","","","null","<button class=""jspsych-btn""><img src=""stimuli/white_square.png"" style=""width: 200px;height: 200px;""></button>","null","red","purple","[""red"",""purple"",""high nameability""]","right-left","[""purple"",""red""]","5","high nameability","50","right","iti",""
"pavlovia","237","665618","0.0-183.0","CAN_125","125","","","","","","","","","","","","","","","","","","",""
"pavlovia","238","665628","0.0-184.0","CAN_125","125","","","","","","","","","","","","","","","","","","",""
"html-audio-button-response","239","666865","0.0-185.0","CAN_125","125","","","","","","1309","stimuli/tada.m4a","0","","","","","","","","","","",""
"html-button-response","240","667692","0.0-186.0","CAN_125","125","","","","","","821","","0","","","","","","","","","","",""
"html-button-response","241","668409","0.0-187.0","CAN_125","125","","","","","","709","","0","purple","red","[""purple"",""red"",""high nameability""]","right-left","[""red"",""purple""]","6","high nameability","51","right","trigger",""
"html-button-response","242","669106","0.0-188.0-0.0","CAN_125","125","","","","","","690","<button class=""jspsych-btn""><img src=""stimuli/purple.png"" style=""width: 200px;height: 200px;""></button>","1","purple","red","[""purple"",""red"",""high nameability""]","right-left","[""red"",""purple""]","6","high nameability","51","right","response","1"
"html-audio-button-response","243","669307","0.0-188.0-1.0","CAN_125","125","","","","","","null","stimuli/bleep.m4a","null","purple","red","[""purple"",""red"",""high nameability""]","right-left","[""red"",""purple""]","6","high nameability","51","right","audio_feedback","1"
"html-button-response","244","669825","0.0-189.0","CAN_125","125","","","","","","null","<button class=""jspsych-btn""><img src=""stimuli/white_square.png"" style=""width: 200px;height: 200px;""></button>","null","purple","red","[""purple"",""red"",""high nameability""]","right-left","[""red"",""purple""]","6","high nameability","51","right","iti",""
"html-button-response","245","670501","0.0-190.0","CAN_125","125","","","","","","660","","0","turquoise","darkgreenblue","[""turquoise"",""darkgreenblue"",""low nameability""]","left-right","[""turquoise"",""darkgreenblue"",""low nameability""]","6","low nameability","52","left","trigger",""
"html-button-response","246","671258","0.0-191.0-0.0","CAN_125","125","","","","","","752","<button class=""jspsych-btn""><img src=""stimuli/turquoise.png"" style=""width: 200px;height: 200px;""></button>","0","turquoise","darkgreenblue","[""turquoise"",""darkgreenblue"",""low nameability""]","left-right","[""turquoise"",""darkgreenblue"",""low nameability""]","6","low nameability","52","left","response","1"
"html-audio-button-response","247","671461","0.0-191.0-1.0","CAN_125","125","","","","","","null","stimuli/bleep.m4a","null","turquoise","darkgreenblue","[""turquoise"",""darkgreenblue"",""low nameability""]","left-right","[""turquoise"",""darkgreenblue"",""low nameability""]","6","low nameability","52","left","audio_feedback","1"
"html-button-response","248","671984","0.0-192.0","CAN_125","125","","","","","","null","<button class=""jspsych-btn""><img src=""stimuli/white_square.png"" style=""width: 200px;height: 200px;""></button>","null","turquoise","darkgreenblue","[""turquoise"",""darkgreenblue"",""low nameability""]","left-right","[""turquoise"",""darkgreenblue"",""low nameability""]","6","low nameability","52","left","iti",""
"html-button-response","249","672692","0.0-193.0","CAN_125","125","","","","","","691","","0","yellow","orange","[""yellow"",""orange"",""high nameability""]","right-left","[""orange"",""yellow""]","6","high nameability","53","right","trigger",""
"html-button-response","250","673343","0.0-194.0-0.0","CAN_125","125","","","","","","642","<button class=""jspsych-btn""><img src=""stimuli/yellow.png"" style=""width: 200px;height: 200px;""></button>","1","yellow","orange","[""yellow"",""orange"",""high nameability""]","right-left","[""orange"",""yellow""]","6","high nameability","53","right","response","1"
"html-audio-button-response","251","673548","0.0-194.0-1.0","CAN_125","125","","","","","","null","stimuli/bleep.m4a","null","yellow","orange","[""yellow"",""orange"",""high nameability""]","right-left","[""orange"",""yellow""]","6","high nameability","53","right","audio_feedback","1"
"html-button-response","252","674065","0.0-195.0","CAN_125","125","","","","","","null","<button class=""jspsych-btn""><img src=""stimuli/white_square.png"" style=""width: 200px;height: 200px;""></button>","null","yellow","orange","[""yellow"",""orange"",""high nameability""]","right-left","[""orange"",""yellow""]","6","high nameability","53","right","iti",""
"html-button-response","253","674834","0.0-196.0","CAN_125","125","","","","","","753","","0","turquoise","neonyellow","[""turquoise"",""neonyellow"",""low nameability""]","left-right","[""turquoise"",""neonyellow"",""low nameability""]","6","low nameability","54","left","trigger",""
"html-button-response","254","675516","0.0-197.0-0.0","CAN_125","125","","","","","","675","<button class=""jspsych-btn""><img src=""stimuli/turquoise.png"" style=""width: 200px;height: 200px;""></button>","0","turquoise","neonyellow","[""turquoise"",""neonyellow"",""low nameability""]","left-right","[""turquoise"",""neonyellow"",""low nameability""]","6","low nameability","54","left","response","1"
"html-audio-button-response","255","675719","0.0-197.0-1.0","CAN_125","125","","","","","","null","stimuli/bleep.m4a","null","turquoise","neonyellow","[""turquoise"",""neonyellow"",""low nameability""]","left-right","[""turquoise"",""neonyellow"",""low nameability""]","6","low nameability","54","left","audio_feedback","1"
"html-button-response","256","676240","0.0-198.0","CAN_125","125","","","","","","null","<button class=""jspsych-btn""><img src=""stimuli/white_square.png"" style=""width: 200px;height: 200px;""></button>","null","turquoise","neonyellow","[""turquoise"",""neonyellow"",""low nameability""]","left-right","[""turquoise"",""neonyellow"",""low nameability""]","6","low nameability","54","left","iti",""
"html-button-response","257","677099","0.0-199.0","CAN_125","125","","","","","","844","","0","yellow","red","[""yellow"",""red"",""high nameability""]","right-left","[""red"",""yellow""]","6","high nameability","55","right","trigger",""
"html-button-response","258","677807","0.0-200.0-0.0","CAN_125","125","","","","","","700","<button class=""jspsych-btn""><img src=""stimuli/yellow.png"" style=""width: 200px;height: 200px;""></button>","1","yellow","red","[""yellow"",""red"",""high nameability""]","right-left","[""red"",""yellow""]","6","high nameability","55","right","response","1"
"html-audio-button-response","259","678008","0.0-200.0-1.0","CAN_125","125","","","","","","null","stimuli/bleep.m4a","null","yellow","red","[""yellow"",""red"",""high nameability""]","right-left","[""red"",""yellow""]","6","high nameability","55","right","audio_feedback","1"
"html-button-response","260","678526","0.0-201.0","CAN_125","125","","","","","","null","<button class=""jspsych-btn""><img src=""stimuli/white_square.png"" style=""width: 200px;height: 200px;""></button>","null","yellow","red","[""yellow"",""red"",""high nameability""]","right-left","[""red"",""yellow""]","6","high nameability","55","right","iti",""
"html-button-response","261","679259","0.0-202.0","CAN_125","125","","","","","","723","","0","brown","red","[""brown"",""red"",""high nameability""]","left-right","[""brown"",""red"",""high nameability""]","6","high nameability","56","left","trigger",""
"html-button-response","262","679932","0.0-203.0-0.0","CAN_125","125","","","","","","667","<button class=""jspsych-btn""><img src=""stimuli/brown.png"" style=""width: 200px;height: 200px;""></button>","0","brown","red","[""brown"",""red"",""high nameability""]","left-right","[""brown"",""red"",""high nameability""]","6","high nameability","56","left","response","1"
"html-audio-button-response","263","680138","0.0-203.0-1.0","CAN_125","125","","","","","","null","stimuli/bleep.m4a","null","brown","red","[""brown"",""red"",""high nameability""]","left-right","[""brown"",""red"",""high nameability""]","6","high nameability","56","left","audio_feedback","1"
"html-button-response","264","680668","0.0-204.0","CAN_125","125","","","","","","null","<button class=""jspsych-btn""><img src=""stimuli/white_square.png"" style=""width: 200px;height: 200px;""></button>","null","brown","red","[""brown"",""red"",""high nameability""]","left-right","[""brown"",""red"",""high nameability""]","6","high nameability","56","left","iti",""
"html-button-response","265","681346","0.0-205.0","CAN_125","125","","","","","","662","","0","pink","lightred","[""pink"",""lightred"",""low nameability""]","right-left","[""lightred"",""pink""]","6","low nameability","57","right","trigger",""
"html-button-response","266","683097","0.0-206.0-0.0","CAN_125","125","","","","","","1744","<button class=""jspsych-btn""><img src=""stimuli/pink.png"" style=""width: 200px;height: 200px;""></button>","1","pink","lightred","[""pink"",""lightred"",""low nameability""]","right-left","[""lightred"",""pink""]","6","low nameability","57","right","response","1"
"html-audio-button-response","267","683300","0.0-206.0-1.0","CAN_125","125","","","","","","null","stimuli/bleep.m4a","null","pink","lightred","[""pink"",""lightred"",""low nameability""]","right-left","[""lightred"",""pink""]","6","low nameability","57","right","audio_feedback","1"
"html-button-response","268","683818","0.0-207.0","CAN_125","125","","","","","","null","<button class=""jspsych-btn""><img src=""stimuli/white_square.png"" style=""width: 200px;height: 200px;""></button>","null","pink","lightred","[""pink"",""lightred"",""low nameability""]","right-left","[""lightred"",""pink""]","6","low nameability","57","right","iti",""
"html-button-response","269","684667","0.0-208.0","CAN_125","125","","","","","","830","","0","brown","blue","[""brown"",""blue"",""high nameability""]","left-right","[""brown"",""blue"",""high nameability""]","6","high nameability","58","left","trigger",""
"html-button-response","270","685319","0.0-209.0-0.0","CAN_125","125","","","","","","646","<button class=""jspsych-btn""><img src=""stimuli/brown.png"" style=""width: 200px;height: 200px;""></button>","0","brown","blue","[""brown"",""blue"",""high nameability""]","left-right","[""brown"",""blue"",""high nameability""]","6","high nameability","58","left","response","1"
"html-audio-button-response","271","685520","0.0-209.0-1.0","CAN_125","125","","","","","","null","stimuli/bleep.m4a","null","brown","blue","[""brown"",""blue"",""high nameability""]","left-right","[""brown"",""blue"",""high nameability""]","6","high nameability","58","left","audio_feedback","1"
"html-button-response","272","686047","0.0-210.0","CAN_125","125","","","","","","null","<button class=""jspsych-btn""><img src=""stimuli/white_square.png"" style=""width: 200px;height: 200px;""></button>","null","brown","blue","[""brown"",""blue"",""high nameability""]","left-right","[""brown"",""blue"",""high nameability""]","6","high nameability","58","left","iti",""
"html-button-response","273","686830","0.0-211.0","CAN_125","125","","","","","","763","","0","lightred","turquoise","[""lightred"",""turquoise"",""low nameability""]","right-left","[""turquoise"",""lightred""]","6","low nameability","59","right","trigger",""
"html-button-response","274","687470","0.0-212.0-0.0","CAN_125","125","","","","","","634","<button class=""jspsych-btn""><img src=""stimuli/lightred.png"" style=""width: 200px;height: 200px;""></button>","1","lightred","turquoise","[""lightred"",""turquoise"",""low nameability""]","right-left","[""turquoise"",""lightred""]","6","low nameability","59","right","response","1"
"html-audio-button-response","275","687676","0.0-212.0-1.0","CAN_125","125","","","","","","null","stimuli/bleep.m4a","null","lightred","turquoise","[""lightred"",""turquoise"",""low nameability""]","right-left","[""turquoise"",""lightred""]","6","low nameability","59","right","audio_feedback","1"
"html-button-response","276","688195","0.0-213.0","CAN_125","125","","","","","","null","<button class=""jspsych-btn""><img src=""stimuli/white_square.png"" style=""width: 200px;height: 200px;""></button>","null","lightred","turquoise","[""lightred"",""turquoise"",""low nameability""]","right-left","[""turquoise"",""lightred""]","6","low nameability","59","right","iti",""
"html-button-response","277","688952","0.0-214.0","CAN_125","125","","","","","","737","","0","red","brown","[""red"",""brown"",""high nameability""]","left-right","[""red"",""brown"",""high nameability""]","6","high nameability","60","left","trigger",""
"html-button-response","278","689556","0.0-215.0-0.0","CAN_125","125","","","","","","597","<button class=""jspsych-btn""><img src=""stimuli/red.png"" style=""width: 200px;height: 200px;""></button>","0","red","brown","[""red"",""brown"",""high nameability""]","left-right","[""red"",""brown"",""high nameability""]","6","high nameability","60","left","response","1"
"html-audio-button-response","279","689759","0.0-215.0-1.0","CAN_125","125","","","","","","null","stimuli/bleep.m4a","null","red","brown","[""red"",""brown"",""high nameability""]","left-right","[""red"",""brown"",""high nameability""]","6","high nameability","60","left","audio_feedback","1"
"html-button-response","280","690282","0.0-216.0","CAN_125","125","","","","","","null","<button class=""jspsych-btn""><img src=""stimuli/white_square.png"" style=""width: 200px;height: 200px;""></button>","null","red","brown","[""red"",""brown"",""high nameability""]","left-right","[""red"",""brown"",""high nameability""]","6","high nameability","60","left","iti",""
