"trial_type","trial_index","time_elapsed","internal_node_id","subject_id","seed","success","timeout","failed_images","failed_audio","failed_video","rt","stimulus","response","target","foil","choices","combination_order","choices_in_order","round","condition","trial_counter","target_location","trial_kind","correct"
"pavlovia","0","20","0.0-0.0","CAN_120","120","","","","","","","","","","","","","","","","","","",""
"preload","1","1537","0.0-1.0","CAN_120","120","true","false","[]","[]","[]","","","","","","","","","","","","","",""
"fullscreen","2","4160","0.0-2.0","CAN_120","120","true","","","","","","","","","","","","","","","","","",""
"html-button-response","3","53103","0.0-3.0","CAN_120","120","","","","","","48920","","0","","","","","","","","","","",""
"html-button-response","4","54555","0.0-4.0","CAN_120","120","","","","","","1439","","0","star","square","[""square"",""star""]","left-right","[""square"",""star""]","1","practice","1","right","trigger",""
"html-button-response","5","57307","0.0-5.0-0.0","CAN_120","120","","","","","","2742","<button class=""jspsych-btn""><img src=""stimuli/star.png"" style=""width: 200px;height: 200px;""></button>","1","star","square","[""square"",""star""]","left-right","[""square"",""star""]","1","practice","1","right","response","1"
"html-audio-button-response","6","57512","0.0-5.0-1.0","CAN_120","120","","","","","","null","stimuli/bleep.m4a","null","star","square","[""square"",""star""]","left-right","[""square"",""star""]","1","practice","1","right","audio_feedback","1"
"html-button-response","7","58026","0.0-6.0","CAN_120","120","","","","","","null","<button class=""jspsych-btn""><img src=""stimuli/white_square.png"" style=""width: 200px;height: 200px;""></button>","null","star","square","[""square"",""star""]","left-right","[""square"",""star""]","1","practice","1","right","iti",""
"html-button-response","8","59803","0.0-7.0","CAN_120","120","","","","","","1764","","0","triangle","pentagram","[""triangle"",""pentagram""]","left-right","[""triangle"",""pentagram""]","1","practice","1","left","trigger",""
"html-button-response","9","60603","0.0-8.0-0.0","CAN_120","120","","","","","","783","<button class=""jspsych-btn""><img src=""stimuli/triangle.png"" style=""width: 200px;height: 200px;""></button>","0","triangle","pentagram","[""triangle"",""pentagram""]","left-right","[""triangle"",""pentagram""]","1","practice","1","left","response","1"
"html-audio-button-response","10","60817","0.0-8.0-1.0","CAN_120","120","","","","","","null","stimuli/bleep.m4a","null","triangle","pentagram","[""triangle"",""pentagram""]","left-right","[""triangle"",""pentagram""]","1","practice","1","left","audio_feedback","1"
"html-button-response","11","61348","0.0-9.0","CAN_120","120","","","","","","null","<button class=""jspsych-btn""><img src=""stimuli/white_square.png"" style=""width: 200px;height: 200px;""></button>","null","triangle","pentagram","[""triangle"",""pentagram""]","left-right","[""triangle"",""pentagram""]","1","practice","1","left","iti",""
"html-button-response","12","61957","0.0-10.0","CAN_120","120","","","","","","586","","0","diamond","rectangle","[""rectangle"",""diamond""]","left-right","[""rectangle"",""diamond""]","1","practice","1","right","trigger",""
"html-button-response","13","62656","0.0-11.0-0.0","CAN_120","120","","","","","","685","<button class=""jspsych-btn""><img src=""stimuli/diamond.png"" style=""width: 200px;height: 200px;""></button>","1","diamond","rectangle","[""rectangle"",""diamond""]","left-right","[""rectangle"",""diamond""]","1","practice","1","right","response","1"
"html-audio-button-response","14","62865","0.0-11.0-1.0","CAN_120","120","","","","","","null","stimuli/bleep.m4a","null","diamond","rectangle","[""rectangle"",""diamond""]","left-right","[""rectangle"",""diamond""]","1","practice","1","right","audio_feedback","1"
"html-button-response","15","63390","0.0-12.0","CAN_120","120","","","","","","null","<button class=""jspsych-btn""><img src=""stimuli/white_square.png"" style=""width: 200px;height: 200px;""></button>","null","diamond","rectangle","[""rectangle"",""diamond""]","left-right","[""rectangle"",""diamond""]","1","practice","1","right","iti",""
"html-button-response","16","64012","0.0-13.0","CAN_120","120","","","","","","604","","0","pentagram","star","[""pentagram"",""star""]","left-right","[""pentagram"",""star""]","1","practice","1","left","trigger",""
"html-button-response","17","64711","0.0-14.0-0.0","CAN_120","120","","","","","","692","<button class=""jspsych-btn""><img src=""stimuli/pentagram.png"" style=""width: 200px;height: 200px;""></button>","0","pentagram","star","[""pentagram"",""star""]","left-right","[""pentagram"",""star""]","1","practice","1","left","response","1"
"html-audio-button-response","18","64923","0.0-14.0-1.0","CAN_120","120","","","","","","null","stimuli/bleep.m4a","null","pentagram","star","[""pentagram"",""star""]","left-right","[""pentagram"",""star""]","1","practice","1","left","audio_feedback","1"
"html-button-response","19","65447","0.0-15.0","CAN_120","120","","","","","","null","<button class=""jspsych-btn""><img src=""stimuli/white_square.png"" style=""width: 200px;height: 200px;""></button>","null","pentagram","star","[""pentagram"",""star""]","left-right","[""pentagram"",""star""]","1","practice","1","left","iti",""
"html-button-response","20","74681","0.0-16.0","CAN_120","120","","","","","","9224","","0","","","","","","","","","","",""
"html-button-response","21","76068","0.0-17.0","CAN_120","120","","","","","","1378","","0","brown","yellow","[""brown"",""yellow"",""high nameability""]","left-right","[""brown"",""yellow"",""high nameability""]","1","high nameability","1","left","trigger",""
"html-button-response","22","76667","0.0-18.0-0.0","CAN_120","120","","","","","","589","<button class=""jspsych-btn""><img src=""stimuli/brown.png"" style=""width: 200px;height: 200px;""></button>","0","brown","yellow","[""brown"",""yellow"",""high nameability""]","left-right","[""brown"",""yellow"",""high nameability""]","1","high nameability","1","left","response","1"
"html-audio-button-response","23","76878","0.0-18.0-1.0","CAN_120","120","","","","","","null","stimuli/bleep.m4a","null","brown","yellow","[""brown"",""yellow"",""high nameability""]","left-right","[""brown"",""yellow"",""high nameability""]","1","high nameability","1","left","audio_feedback","1"
"html-button-response","24","77398","0.0-19.0","CAN_120","120","","","","","","null","<button class=""jspsych-btn""><img src=""stimuli/white_square.png"" style=""width: 200px;height: 200px;""></button>","null","brown","yellow","[""brown"",""yellow"",""high nameability""]","left-right","[""brown"",""yellow"",""high nameability""]","1","high nameability","1","left","iti",""
"html-button-response","25","77967","0.0-20.0","CAN_120","120","","","","","","549","","0","red","brown","[""red"",""brown"",""high nameability""]","left-right","[""red"",""brown"",""high nameability""]","1","high nameability","2","left","trigger",""
"html-button-response","26","78550","0.0-21.0-0.0","CAN_120","120","","","","","","572","<button class=""jspsych-btn""><img src=""stimuli/red.png"" style=""width: 200px;height: 200px;""></button>","0","red","brown","[""red"",""brown"",""high nameability""]","left-right","[""red"",""brown"",""high nameability""]","1","high nameability","2","left","response","1"
"html-audio-button-response","27","78758","0.0-21.0-1.0","CAN_120","120","","","","","","null","stimuli/bleep.m4a","null","red","brown","[""red"",""brown"",""high nameability""]","left-right","[""red"",""brown"",""high nameability""]","1","high nameability","2","left","audio_feedback","1"
"html-button-response","28","79279","0.0-22.0","CAN_120","120","","","","","","null","<button class=""jspsych-btn""><img src=""stimuli/white_square.png"" style=""width: 200px;height: 200px;""></button>","null","red","brown","[""red"",""brown"",""high nameability""]","left-right","[""red"",""brown"",""high nameability""]","1","high nameability","2","left","iti",""
"html-button-response","29","79808","0.0-23.0","CAN_120","120","","","","","","511","","0","turquoise","mustard","[""turquoise"",""mustard"",""low nameability""]","left-right","[""turquoise"",""mustard"",""low nameability""]","1","low nameability","3","left","trigger",""
"html-button-response","30","80426","0.0-24.0-0.0","CAN_120","120","","","","","","612","<button class=""jspsych-btn""><img src=""stimuli/turquoise.png"" style=""width: 200px;height: 200px;""></button>","0","turquoise","mustard","[""turquoise"",""mustard"",""low nameability""]","left-right","[""turquoise"",""mustard"",""low nameability""]","1","low nameability","3","left","response","1"
"html-audio-button-response","31","80631","0.0-24.0-1.0","CAN_120","120","","","","","","null","stimuli/bleep.m4a","null","turquoise","mustard","[""turquoise"",""mustard"",""low nameability""]","left-right","[""turquoise"",""mustard"",""low nameability""]","1","low nameability","3","left","audio_feedback","1"
"html-button-response","32","81161","0.0-25.0","CAN_120","120","","","","","","null","<button class=""jspsych-btn""><img src=""stimuli/white_square.png"" style=""width: 200px;height: 200px;""></button>","null","turquoise","mustard","[""turquoise"",""mustard"",""low nameability""]","left-right","[""turquoise"",""mustard"",""low nameability""]","1","low nameability","3","left","iti",""
"html-button-response","33","81806","0.0-26.0","CAN_120","120","","","","","","638","","0","mustard","pink","[""mustard"",""pink"",""low nameability""]","left-right","[""mustard"",""pink"",""low nameability""]","1","low nameability","4","left","trigger",""
"html-button-response","34","82406","0.0-27.0-0.0","CAN_120","120","","","","","","592","<button class=""jspsych-btn""><img src=""stimuli/mustard.png"" style=""width: 200px;height: 200px;""></button>","0","mustard","pink","[""mustard"",""pink"",""low nameability""]","left-right","[""mustard"",""pink"",""low nameability""]","1","low nameability","4","left","response","1"
"html-audio-button-response","35","82610","0.0-27.0-1.0","CAN_120","120","","","","","","null","stimuli/bleep.m4a","null","mustard","pink","[""mustard"",""pink"",""low nameability""]","left-right","[""mustard"",""pink"",""low nameability""]","1","low nameability","4","left","audio_feedback","1"
"html-button-response","36","83126","0.0-28.0","CAN_120","120","","","","","","null","<button class=""jspsych-btn""><img src=""stimuli/white_square.png"" style=""width: 200px;height: 200px;""></button>","null","mustard","pink","[""mustard"",""pink"",""low nameability""]","left-right","[""mustard"",""pink"",""low nameability""]","1","low nameability","4","left","iti",""
"html-button-response","37","83651","0.0-29.0","CAN_120","120","","","","","","509","","0","red","purple","[""red"",""purple"",""high nameability""]","right-left","[""purple"",""red""]","1","high nameability","5","right","trigger",""
"html-button-response","38","84299","0.0-30.0-0.0","CAN_120","120","","","","","","635","<button class=""jspsych-btn""><img src=""stimuli/red.png"" style=""width: 200px;height: 200px;""></button>","1","red","purple","[""red"",""purple"",""high nameability""]","right-left","[""purple"",""red""]","1","high nameability","5","right","response","1"
"html-audio-button-response","39","84506","0.0-30.0-1.0","CAN_120","120","","","","","","null","stimuli/bleep.m4a","null","red","purple","[""red"",""purple"",""high nameability""]","right-left","[""purple"",""red""]","1","high nameability","5","right","audio_feedback","1"
"html-button-response","40","85025","0.0-31.0","CAN_120","120","","","","","","null","<button class=""jspsych-btn""><img src=""stimuli/white_square.png"" style=""width: 200px;height: 200px;""></button>","null","red","purple","[""red"",""purple"",""high nameability""]","right-left","[""purple"",""red""]","1","high nameability","5","right","iti",""
"html-button-response","41","85618","0.0-32.0","CAN_120","120","","","","","","573","","0","lightred","darkgreenblue","[""lightred"",""darkgreenblue"",""low nameability""]","right-left","[""darkgreenblue"",""lightred""]","1","low nameability","6","right","trigger",""
"html-button-response","42","86209","0.0-33.0-0.0","CAN_120","120","","","","","","584","<button class=""jspsych-btn""><img src=""stimuli/lightred.png"" style=""width: 200px;height: 200px;""></button>","1","lightred","darkgreenblue","[""lightred"",""darkgreenblue"",""low nameability""]","right-left","[""darkgreenblue"",""lightred""]","1","low nameability","6","right","response","1"
"html-audio-button-response","43","86412","0.0-33.0-1.0","CAN_120","120","","","","","","null","stimuli/bleep.m4a","null","lightred","darkgreenblue","[""lightred"",""darkgreenblue"",""low nameability""]","right-left","[""darkgreenblue"",""lightred""]","1","low nameability","6","right","audio_feedback","1"
"html-button-response","44","86929","0.0-34.0","CAN_120","120","","","","","","null","<button class=""jspsych-btn""><img src=""stimuli/white_square.png"" style=""width: 200px;height: 200px;""></button>","null","lightred","darkgreenblue","[""lightred"",""darkgreenblue"",""low nameability""]","right-left","[""darkgreenblue"",""lightred""]","1","low nameability","6","right","iti",""
"html-button-response","45","87507","0.0-35.0","CAN_120","120","","","","","","559","","0","red","blue","[""red"",""blue"",""high nameability""]","right-left","[""blue"",""red""]","1","high nameability","7","right","trigger",""
"html-button-response","46","88110","0.0-36.0-0.0","CAN_120","120","","","","","","594","<button class=""jspsych-btn""><img src=""stimuli/red.png"" style=""width: 200px;height: 200px;""></button>","1","red","blue","[""red"",""blue"",""high nameability""]","right-left","[""blue"",""red""]","1","high nameability","7","right","response","1"
"html-audio-button-response","47","88313","0.0-36.0-1.0","CAN_120","120","","","","","","null","stimuli/bleep.m4a","null","red","blue","[""red"",""blue"",""high nameability""]","right-left","[""blue"",""red""]","1","high nameability","7","right","audio_feedback","1"
"html-button-response","48","88829","0.0-37.0","CAN_120","120","","","","","","null","<button class=""jspsych-btn""><img src=""stimuli/white_square.png"" style=""width: 200px;height: 200px;""></button>","null","red","blue","[""red"",""blue"",""high nameability""]","right-left","[""blue"",""red""]","1","high nameability","7","right","iti",""
"html-button-response","49","89335","0.0-38.0","CAN_120","120","","","","","","486","","0","neonyellow","mustard","[""neonyellow"",""mustard"",""low nameability""]","left-right","[""neonyellow"",""mustard"",""low nameability""]","1","low nameability","8","left","trigger",""
"html-button-response","50","89975","0.0-39.0-0.0","CAN_120","120","","","","","","628","<button class=""jspsych-btn""><img src=""stimuli/neonyellow.png"" style=""width: 200px;height: 200px;""></button>","0","neonyellow","mustard","[""neonyellow"",""mustard"",""low nameability""]","left-right","[""neonyellow"",""mustard"",""low nameability""]","1","low nameability","8","left","response","1"
"html-audio-button-response","51","90189","0.0-39.0-1.0","CAN_120","120","","","","","","null","stimuli/bleep.m4a","null","neonyellow","mustard","[""neonyellow"",""mustard"",""low nameability""]","left-right","[""neonyellow"",""mustard"",""low nameability""]","1","low nameability","8","left","audio_feedback","1"
"html-button-response","52","90710","0.0-40.0","CAN_120","120","","","","","","null","<button class=""jspsych-btn""><img src=""stimuli/white_square.png"" style=""width: 200px;height: 200px;""></button>","null","neonyellow","mustard","[""neonyellow"",""mustard"",""low nameability""]","left-right","[""neonyellow"",""mustard"",""low nameability""]","1","low nameability","8","left","iti",""
"html-button-response","53","91219","0.0-41.0","CAN_120","120","","","","","","492","","0","red","yellow","[""red"",""yellow"",""high nameability""]","right-left","[""yellow"",""red""]","1","high nameability","9","right","trigger",""
"html-button-response","54","91888","0.0-42.0-0.0","CAN_120","120","","","","","","661","<button class=""jspsych-btn""><img src=""stimuli/red.png"" style=""width: 200px;height: 200px;""></button>","1","red","yellow","[""red"",""yellow"",""high nameability""]","right-left","[""yellow"",""red""]","1","high nameability","9","right","response","1"
"html-audio-button-response","55","92088","0.0-42.0-1.0","CAN_120","120","","","","","","null","stimuli/bleep.m4a","null","red","yellow","[""red"",""yellow"",""high nameability""]","right-left","[""yellow"",""red""]","1","high nameability","9","right","audio_feedback","1"
"html-button-response","56","92605","0.0-43.0","CAN_120","120","","","","","","null","<button class=""jspsych-btn""><img src=""stimuli/white_square.png"" style=""width: 200px;height: 200px;""></button>","null","red","yellow","[""red"",""yellow"",""high nameability""]","right-left","[""yellow"",""red""]","1","high nameability","9","right","iti",""
"html-button-response","57","93162","0.0-44.0","CAN_120","120","","","","","","535","","0","brown","purple","[""brown"",""purple"",""high nameability""]","right-left","[""purple"",""brown""]","1","high nameability","10","right","trigger",""
"html-button-response","58","93726","0.0-45.0-0.0","CAN_120","120","","","","","","557","<button class=""jspsych-btn""><img src=""stimuli/brown.png"" style=""width: 200px;height: 200px;""></button>","1","brown","purple","[""brown"",""purple"",""high nameability""]","right-left","[""purple"",""brown""]","1","high nameability","10","right","response","1"
"html-audio-button-response","59","93929","0.0-45.0-1.0","CAN_120","120","","","","","","null","stimuli/bleep.m4a","null","brown","purple","[""brown"",""purple"",""high nameability""]","right-left","[""purple"",""brown""]","1","high nameability","10","right","audio_feedback","1"
"html-button-response","60","94447","0.0-46.0","CAN_120","120","","","","","","null","<button class=""jspsych-btn""><img src=""stimuli/white_square.png"" style=""width: 200px;height: 200px;""></button>","null","brown","purple","[""brown"",""purple"",""high nameability""]","right-left","[""purple"",""brown""]","1","high nameability","10","right","iti",""
"pavlovia","61","94557","0.0-47.0","CAN_120","120","","","","","","","","","","","","","","","","","","",""
"pavlovia","62","94572","0.0-48.0","CAN_120","120","","","","","","","","","","","","","","","","","","",""
"html-audio-button-response","63","97258","0.0-49.0","CAN_120","120","","","","","","2813","stimuli/tada.m4a","0","","","","","","","","","","",""
"html-button-response","64","98263","0.0-50.0","CAN_120","120","","","","","","1001","","0","","","","","","","","","","",""
"html-button-response","65","98888","0.0-51.0","CAN_120","120","","","","","","616","","0","pink","turquoise","[""pink"",""turquoise"",""low nameability""]","left-right","[""pink"",""turquoise"",""low nameability""]","2","low nameability","11","left","trigger",""
"html-button-response","66","99444","0.0-52.0-0.0","CAN_120","120","","","","","","548","<button class=""jspsych-btn""><img src=""stimuli/pink.png"" style=""width: 200px;height: 200px;""></button>","0","pink","turquoise","[""pink"",""turquoise"",""low nameability""]","left-right","[""pink"",""turquoise"",""low nameability""]","2","low nameability","11","left","response","1"
"html-audio-button-response","67","99646","0.0-52.0-1.0","CAN_120","120","","","","","","null","stimuli/bleep.m4a","null","pink","turquoise","[""pink"",""turquoise"",""low nameability""]","left-right","[""pink"",""turquoise"",""low nameability""]","2","low nameability","11","left","audio_feedback","1"
"html-button-response","68","100167","0.0-53.0","CAN_120","120","","","","","","null","<button class=""jspsych-btn""><img src=""stimuli/white_square.png"" style=""width: 200px;height: 200px;""></button>","null","pink","turquoise","[""pink"",""turquoise"",""low nameability""]","left-right","[""pink"",""turquoise"",""low nameability""]","2","low nameability","11","left","iti",""
"html-button-response","69","100785","0.0-54.0","CAN_120","120","","","","","","601","","0","yellow","red","[""yellow"",""red"",""high nameability""]","right-left","[""red"",""yellow""]","2","high nameability","12","right","trigger",""
"html-button-response","70","101414","0.0-55.0-0.0","CAN_120","120","","","","","","618","<button class=""jspsych-btn""><img src=""stimuli/yellow.png"" style=""width: 200px;height: 200px;""></button>","1","yellow","red","[""yellow"",""red"",""high nameability""]","right-left","[""red"",""yellow""]","2","high nameability","12","right","response","1"
"html-audio-button-response","71","101618","0.0-55.0-1.0","CAN_120","120","","","","","","null","stimuli/bleep.m4a","null","yellow","red","[""yellow"",""red"",""high nameability""]","right-left","[""red"",""yellow""]","2","high nameability","12","right","audio_feedback","1"
"html-button-response","72","102135","0.0-56.0","CAN_120","120","","","","","","null","<button class=""jspsych-btn""><img src=""stimuli/white_square.png"" style=""width: 200px;height: 200px;""></button>","null","yellow","red","[""yellow"",""red"",""high nameability""]","right-left","[""red"",""yellow""]","2","high nameability","12","right","iti",""
"html-button-response","73","102691","0.0-57.0","CAN_120","120","","","","","","537","","0","turquoise","pink","[""turquoise"",""pink"",""low nameability""]","left-right","[""turquoise"",""pink"",""low nameability""]","2","low nameability","13","left","trigger",""
"html-button-response","74","103229","0.0-58.0-0.0","CAN_120","120","","","","","","530","<button class=""jspsych-btn""><img src=""stimuli/turquoise.png"" style=""width: 200px;height: 200px;""></button>","0","turquoise","pink","[""turquoise"",""pink"",""low nameability""]","left-right","[""turquoise"",""pink"",""low nameability""]","2","low nameability","13","left","response","1"
"html-audio-button-response","75","103438","0.0-58.0-1.0","CAN_120","120","","","","","","null","stimuli/bleep.m4a","null","turquoise","pink","[""turquoise"",""pink"",""low nameability""]","left-right","[""turquoise"",""pink"",""low nameability""]","2","low nameability","13","left","audio_feedback","1"
"html-button-response","76","103960","0.0-59.0","CAN_120","120","","","","","","null","<button class=""jspsych-btn""><img src=""stimuli/white_square.png"" style=""width: 200px;height: 200px;""></button>","null","turquoise","pink","[""turquoise"",""pink"",""low nameability""]","left-right","[""turquoise"",""pink"",""low nameability""]","2","low nameability","13","left","iti",""
"html-button-response","77","104517","0.0-60.0","CAN_120","120","","","","","","538","","0","darkgreenblue","mustard","[""darkgreenblue"",""mustard"",""low nameability""]","right-left","[""mustard"",""darkgreenblue""]","2","low nameability","14","right","trigger",""
"html-button-response","78","105044","0.0-61.0-0.0","CAN_120","120","","","","","","523","<button class=""jspsych-btn""><img src=""stimuli/darkgreenblue.png"" style=""width: 200px;height: 200px;""></button>","1","darkgreenblue","mustard","[""darkgreenblue"",""mustard"",""low nameability""]","right-left","[""mustard"",""darkgreenblue""]","2","low nameability","14","right","response","1"
"html-audio-button-response","79","105249","0.0-61.0-1.0","CAN_120","120","","","","","","null","stimuli/bleep.m4a","null","darkgreenblue","mustard","[""darkgreenblue"",""mustard"",""low nameability""]","right-left","[""mustard"",""darkgreenblue""]","2","low nameability","14","right","audio_feedback","1"
"html-button-response","80","105765","0.0-62.0","CAN_120","120","","","","","","null","<button class=""jspsych-btn""><img src=""stimuli/white_square.png"" style=""width: 200px;height: 200px;""></button>","null","darkgreenblue","mustard","[""darkgreenblue"",""mustard"",""low nameability""]","right-left","[""mustard"",""darkgreenblue""]","2","low nameability","14","right","iti",""
"html-button-response","81","106265","0.0-63.0","CAN_120","120","","","","","","482","","0","darkgreenblue","lightred","[""darkgreenblue"",""lightred"",""low nameability""]","left-right","[""darkgreenblue"",""lightred"",""low nameability""]","2","low nameability","15","left","trigger",""
"html-button-response","82","106837","0.0-64.0-0.0","CAN_120","120","","","","","","567","<button class=""jspsych-btn""><img src=""stimuli/darkgreenblue.png"" style=""width: 200px;height: 200px;""></button>","0","darkgreenblue","lightred","[""darkgreenblue"",""lightred"",""low nameability""]","left-right","[""darkgreenblue"",""lightred"",""low nameability""]","2","low nameability","15","left","response","1"
"html-audio-button-response","83","107039","0.0-64.0-1.0","CAN_120","120","","","","","","null","stimuli/bleep.m4a","null","darkgreenblue","lightred","[""darkgreenblue"",""lightred"",""low nameability""]","left-right","[""darkgreenblue"",""lightred"",""low nameability""]","2","low nameability","15","left","audio_feedback","1"
"html-button-response","84","107573","0.0-65.0","CAN_120","120","","","","","","null","<button class=""jspsych-btn""><img src=""stimuli/white_square.png"" style=""width: 200px;height: 200px;""></button>","null","darkgreenblue","lightred","[""darkgreenblue"",""lightred"",""low nameability""]","left-right","[""darkgreenblue"",""lightred"",""low nameability""]","2","low nameability","15","left","iti",""
"html-button-response","85","108102","0.0-66.0","CAN_120","120","","","","","","522","","0","lightred","mustard","[""lightred"",""mustard"",""low nameability""]","left-right","[""lightred"",""mustard"",""low nameability""]","2","low nameability","16","left","trigger",""
"html-button-response","86","108688","0.0-67.0-0.0","CAN_120","120","","","","","","580","<button class=""jspsych-btn""><img src=""stimuli/lightred.png"" style=""width: 200px;height: 200px;""></button>","0","lightred","mustard","[""lightred"",""mustard"",""low nameability""]","left-right","[""lightred"",""mustard"",""low nameability""]","2","low nameability","16","left","response","1"
"html-audio-button-response","87","108890","0.0-67.0-1.0","CAN_120","120","","","","","","null","stimuli/bleep.m4a","null","lightred","mustard","[""lightred"",""mustard"",""low nameability""]","left-right","[""lightred"",""mustard"",""low nameability""]","2","low nameability","16","left","audio_feedback","1"
"html-button-response","88","109407","0.0-68.0","CAN_120","120","","","","","","null","<button class=""jspsych-btn""><img src=""stimuli/white_square.png"" style=""width: 200px;height: 200px;""></button>","null","lightred","mustard","[""lightred"",""mustard"",""low nameability""]","left-right","[""lightred"",""mustard"",""low nameability""]","2","low nameability","16","left","iti",""
"html-button-response","89","109856","0.0-69.0","CAN_120","120","","","","","","434","","0","purple","blue","[""purple"",""blue"",""high nameability""]","left-right","[""purple"",""blue"",""high nameability""]","2","high nameability","17","left","trigger",""
"html-button-response","90","110553","0.0-70.0-0.0","CAN_120","120","","","","","","687","<button class=""jspsych-btn""><img src=""stimuli/purple.png"" style=""width: 200px;height: 200px;""></button>","0","purple","blue","[""purple"",""blue"",""high nameability""]","left-right","[""purple"",""blue"",""high nameability""]","2","high nameability","17","left","response","1"
"html-audio-button-response","91","110757","0.0-70.0-1.0","CAN_120","120","","","","","","null","stimuli/bleep.m4a","null","purple","blue","[""purple"",""blue"",""high nameability""]","left-right","[""purple"",""blue"",""high nameability""]","2","high nameability","17","left","audio_feedback","1"
"html-button-response","92","111276","0.0-71.0","CAN_120","120","","","","","","null","<button class=""jspsych-btn""><img src=""stimuli/white_square.png"" style=""width: 200px;height: 200px;""></button>","null","purple","blue","[""purple"",""blue"",""high nameability""]","left-right","[""purple"",""blue"",""high nameability""]","2","high nameability","17","left","iti",""
"html-button-response","93","111795","0.0-72.0","CAN_120","120","","","","","","500","","0","darkgreenblue","pink","[""darkgreenblue"",""pink"",""low nameability""]","right-left","[""pink"",""darkgreenblue""]","2","low nameability","18","right","trigger",""
"html-button-response","94","112431","0.0-73.0-0.0","CAN_120","120","","","","","","631","<button class=""jspsych-btn""><img src=""stimuli/darkgreenblue.png"" style=""width: 200px;height: 200px;""></button>","1","darkgreenblue","pink","[""darkgreenblue"",""pink"",""low nameability""]","right-left","[""pink"",""darkgreenblue""]","2","low nameability","18","right","response","1"
"html-audio-button-response","95","112637","0.0-73.0-1.0","CAN_120","120","","","","","","null","stimuli/bleep.m4a","null","darkgreenblue","pink","[""darkgreenblue"",""pink"",""low nameability""]","right-left","[""pink"",""darkgreenblue""]","2","low nameability","18","right","audio_feedback","1"
"html-button-response","96","113159","0.0-74.0","CAN_120","120","","","","","","null","<button class=""jspsych-btn""><img src=""stimuli/white_square.png"" style=""width: 200px;height: 200px;""></button>","null","darkgreenblue","pink","[""darkgreenblue"",""pink"",""low nameability""]","right-left","[""pink"",""darkgreenblue""]","2","low nameability","18","right","iti",""
"html-button-response","97","113753","0.0-75.0","CAN_120","120","","","","","","571","","0","yellow","orange","[""yellow"",""orange"",""high nameability""]","left-right","[""yellow"",""orange"",""high nameability""]","2","high nameability","19","left","trigger",""
"html-button-response","98","114450","0.0-76.0-0.0","CAN_120","120","","","","","","689","<button class=""jspsych-btn""><img src=""stimuli/yellow.png"" style=""width: 200px;height: 200px;""></button>","0","yellow","orange","[""yellow"",""orange"",""high nameability""]","left-right","[""yellow"",""orange"",""high nameability""]","2","high nameability","19","left","response","1"
"html-audio-button-response","99","114657","0.0-76.0-1.0","CAN_120","120","","","","","","null","stimuli/bleep.m4a","null","yellow","orange","[""yellow"",""orange"",""high nameability""]","left-right","[""yellow"",""orange"",""high nameability""]","2","high nameability","19","left","audio_feedback","1"
"html-button-response","100","115171","0.0-77.0","CAN_120","120","","","","","","null","<button class=""jspsych-btn""><img src=""stimuli/white_square.png"" style=""width: 200px;height: 200px;""></button>","null","yellow","orange","[""yellow"",""orange"",""high nameability""]","left-right","[""yellow"",""orange"",""high nameability""]","2","high nameability","19","left","iti",""
"html-button-response","101","115714","0.0-78.0","CAN_120","120","","","","","","526","","0","purple","red","[""purple"",""red"",""high nameability""]","right-left","[""red"",""purple""]","2","high nameability","20","right","trigger",""
"html-button-response","102","116343","0.0-79.0-0.0","CAN_120","120","","","","","","623","<button class=""jspsych-btn""><img src=""stimuli/purple.png"" style=""width: 200px;height: 200px;""></button>","1","purple","red","[""purple"",""red"",""high nameability""]","right-left","[""red"",""purple""]","2","high nameability","20","right","response","1"
"html-audio-button-response","103","116545","0.0-79.0-1.0","CAN_120","120","","","","","","null","stimuli/bleep.m4a","null","purple","red","[""purple"",""red"",""high nameability""]","right-left","[""red"",""purple""]","2","high nameability","20","right","audio_feedback","1"
"html-button-response","104","117066","0.0-80.0","CAN_120","120","","","","","","null","<button class=""jspsych-btn""><img src=""stimuli/white_square.png"" style=""width: 200px;height: 200px;""></button>","null","purple","red","[""purple"",""red"",""high nameability""]","right-left","[""red"",""purple""]","2","high nameability","20","right","iti",""
"pavlovia","105","117145","0.0-81.0","CAN_120","120","","","","","","","","","","","","","","","","","","",""
"pavlovia","106","117159","0.0-82.0","CAN_120","120","","","","","","","","","","","","","","","","","","",""
"html-audio-button-response","107","118662","0.0-83.0","CAN_120","120","","","","","","1592","stimuli/tada.m4a","0","","","","","","","","","","",""
"html-button-response","108","119423","0.0-84.0","CAN_120","120","","","","","","755","","0","","","","","","","","","","",""
"html-button-response","109","120024","0.0-85.0","CAN_120","120","","","","","","591","","0","blue","yellow","[""blue"",""yellow"",""high nameability""]","left-right","[""blue"",""yellow"",""high nameability""]","3","high nameability","21","left","trigger",""
"html-button-response","110","121343","0.0-86.0-0.0","CAN_120","120","","","","","","1304","<button class=""jspsych-btn""><img src=""stimuli/blue.png"" style=""width: 200px;height: 200px;""></button>","0","blue","yellow","[""blue"",""yellow"",""high nameability""]","left-right","[""blue"",""yellow"",""high nameability""]","3","high nameability","21","left","response","1"
"html-audio-button-response","111","121558","0.0-86.0-1.0","CAN_120","120","","","","","","null","stimuli/bleep.m4a","null","blue","yellow","[""blue"",""yellow"",""high nameability""]","left-right","[""blue"",""yellow"",""high nameability""]","3","high nameability","21","left","audio_feedback","1"
"html-button-response","112","122087","0.0-87.0","CAN_120","120","","","","","","null","<button class=""jspsych-btn""><img src=""stimuli/white_square.png"" style=""width: 200px;height: 200px;""></button>","null","blue","yellow","[""blue"",""yellow"",""high nameability""]","left-right","[""blue"",""yellow"",""high nameability""]","3","high nameability","21","left","iti",""
"html-button-response","113","122644","0.0-88.0","CAN_120","120","","","","","","533","","0","orange","blue","[""orange"",""blue"",""high nameability""]","left-right","[""orange"",""blue"",""high nameability""]","3","high nameability","22","left","trigger",""
"html-button-response","114","123293","0.0-89.0-0.0","CAN_120","120","","","","","","635","<button class=""jspsych-btn""><img src=""stimuli/orange.png"" style=""width: 200px;height: 200px;""></button>","0","orange","blue","[""orange"",""blue"",""high nameability""]","left-right","[""orange"",""blue"",""high nameability""]","3","high nameability","22","left","response","1"
"html-audio-button-response","115","123499","0.0-89.0-1.0","CAN_120","120","","","","","","null","stimuli/bleep.m4a","null","orange","blue","[""orange"",""blue"",""high nameability""]","left-right","[""orange"",""blue"",""high nameability""]","3","high nameability","22","left","audio_feedback","1"
"html-button-response","116","124011","0.0-90.0","CAN_120","120","","","","","","null","<button class=""jspsych-btn""><img src=""stimuli/white_square.png"" style=""width: 200px;height: 200px;""></button>","null","orange","blue","[""orange"",""blue"",""high nameability""]","left-right","[""orange"",""blue"",""high nameability""]","3","high nameability","22","left","iti",""
"html-button-response","117","124520","0.0-91.0","CAN_120","120","","","","","","488","","0","neonyellow","lightred","[""neonyellow"",""lightred"",""low nameability""]","left-right","[""neonyellow"",""lightred"",""low nameability""]","3","low nameability","23","left","trigger",""
"html-button-response","118","125092","0.0-92.0-0.0","CAN_120","120","","","","","","551","<button class=""jspsych-btn""><img src=""stimuli/neonyellow.png"" style=""width: 200px;height: 200px;""></button>","0","neonyellow","lightred","[""neonyellow"",""lightred"",""low nameability""]","left-right","[""neonyellow"",""lightred"",""low nameability""]","3","low nameability","23","left","response","1"
"html-audio-button-response","119","125305","0.0-92.0-1.0","CAN_120","120","","","","","","null","stimuli/bleep.m4a","null","neonyellow","lightred","[""neonyellow"",""lightred"",""low nameability""]","left-right","[""neonyellow"",""lightred"",""low nameability""]","3","low nameability","23","left","audio_feedback","1"
"html-button-response","120","125840","0.0-93.0","CAN_120","120","","","","","","null","<button class=""jspsych-btn""><img src=""stimuli/white_square.png"" style=""width: 200px;height: 200px;""></button>","null","neonyellow","lightred","[""neonyellow"",""lightred"",""low nameability""]","left-right","[""neonyellow"",""lightred"",""low nameability""]","3","low nameability","23","left","iti",""
"html-button-response","121","126382","0.0-94.0","CAN_120","120","","","","","","519","","0","orange","red","[""orange"",""red"",""high nameability""]","left-right","[""orange"",""red"",""high nameability""]","3","high nameability","24","left","trigger",""
"html-button-response","122","127037","0.0-95.0-0.0","CAN_120","120","","","","","","644","<button class=""jspsych-btn""><img src=""stimuli/orange.png"" style=""width: 200px;height: 200px;""></button>","0","orange","red","[""orange"",""red"",""high nameability""]","left-right","[""orange"",""red"",""high nameability""]","3","high nameability","24","left","response","1"
"html-audio-button-response","123","127250","0.0-95.0-1.0","CAN_120","120","","","","","","null","stimuli/bleep.m4a","null","orange","red","[""orange"",""red"",""high nameability""]","left-right","[""orange"",""red"",""high nameability""]","3","high nameability","24","left","audio_feedback","1"
"html-button-response","124","127775","0.0-96.0","CAN_120","120","","","","","","null","<button class=""jspsych-btn""><img src=""stimuli/white_square.png"" style=""width: 200px;height: 200px;""></button>","null","orange","red","[""orange"",""red"",""high nameability""]","left-right","[""orange"",""red"",""high nameability""]","3","high nameability","24","left","iti",""
"html-button-response","125","128277","0.0-97.0","CAN_120","120","","","","","","482","","0","blue","brown","[""blue"",""brown"",""high nameability""]","right-left","[""brown"",""blue""]","3","high nameability","25","right","trigger",""
"html-button-response","126","128900","0.0-98.0-0.0","CAN_120","120","","","","","","612","<button class=""jspsych-btn""><img src=""stimuli/blue.png"" style=""width: 200px;height: 200px;""></button>","1","blue","brown","[""blue"",""brown"",""high nameability""]","right-left","[""brown"",""blue""]","3","high nameability","25","right","response","1"
"html-audio-button-response","127","129105","0.0-98.0-1.0","CAN_120","120","","","","","","null","stimuli/bleep.m4a","null","blue","brown","[""blue"",""brown"",""high nameability""]","right-left","[""brown"",""blue""]","3","high nameability","25","right","audio_feedback","1"
"html-button-response","128","129621","0.0-99.0","CAN_120","120","","","","","","null","<button class=""jspsych-btn""><img src=""stimuli/white_square.png"" style=""width: 200px;height: 200px;""></button>","null","blue","brown","[""blue"",""brown"",""high nameability""]","right-left","[""brown"",""blue""]","3","high nameability","25","right","iti",""
"html-button-response","129","130108","0.0-100.0","CAN_120","120","","","","","","469","","0","purple","yellow","[""purple"",""yellow"",""high nameability""]","right-left","[""yellow"",""purple""]","3","high nameability","26","right","trigger",""
"html-button-response","130","130665","0.0-101.0-0.0","CAN_120","120","","","","","","544","<button class=""jspsych-btn""><img src=""stimuli/purple.png"" style=""width: 200px;height: 200px;""></button>","1","purple","yellow","[""purple"",""yellow"",""high nameability""]","right-left","[""yellow"",""purple""]","3","high nameability","26","right","response","1"
"html-audio-button-response","131","130871","0.0-101.0-1.0","CAN_120","120","","","","","","null","stimuli/bleep.m4a","null","purple","yellow","[""purple"",""yellow"",""high nameability""]","right-left","[""yellow"",""purple""]","3","high nameability","26","right","audio_feedback","1"
"html-button-response","132","131396","0.0-102.0","CAN_120","120","","","","","","null","<button class=""jspsych-btn""><img src=""stimuli/white_square.png"" style=""width: 200px;height: 200px;""></button>","null","purple","yellow","[""purple"",""yellow"",""high nameability""]","right-left","[""yellow"",""purple""]","3","high nameability","26","right","iti",""
"html-button-response","133","131864","0.0-103.0","CAN_120","120","","","","","","450","","0","lightred","turquoise","[""lightred"",""turquoise"",""low nameability""]","right-left","[""turquoise"",""lightred""]","3","low nameability","27","right","trigger",""
"html-button-response","134","132480","0.0-104.0-0.0","CAN_120","120","","","","","","608","<button class=""jspsych-btn""><img src=""stimuli/lightred.png"" style=""width: 200px;height: 200px;""></button>","1","lightred","turquoise","[""lightred"",""turquoise"",""low nameability""]","right-left","[""turquoise"",""lightred""]","3","low nameability","27","right","response","1"
"html-audio-button-response","135","132686","0.0-104.0-1.0","CAN_120","120","","","","","","null","stimuli/bleep.m4a","null","lightred","turquoise","[""lightred"",""turquoise"",""low nameability""]","right-left","[""turquoise"",""lightred""]","3","low nameability","27","right","audio_feedback","1"
"html-button-response","136","133206","0.0-105.0","CAN_120","120","","","","","","null","<button class=""jspsych-btn""><img src=""stimuli/white_square.png"" style=""width: 200px;height: 200px;""></button>","null","lightred","turquoise","[""lightred"",""turquoise"",""low nameability""]","right-left","[""turquoise"",""lightred""]","3","low nameability","27","right","iti",""
"html-button-response","137","133770","0.0-106.0","CAN_120","120","","","","","","547","","0","yellow","brown","[""yellow"",""brown"",""high nameability""]","right-left","[""brown"",""yellow""]","3","high nameability","28","right","trigger",""
"html-button-response","138","134403","0.0-107.0-0.0","CAN_120","120","","","","","","625","<button class=""jspsych-btn""><img src=""stimuli/yellow.png"" style=""width: 200px;height: 200px;""></button>","1","yellow","brown","[""yellow"",""brown"",""high nameability""]","right-left","[""brown"",""yellow""]","3","high nameability","28","right","response","1"
"html-audio-button-response","139","134615","0.0-107.0-1.0","CAN_120","120","","","","","","null","stimuli/bleep.m4a","null","yellow","brown","[""yellow"",""brown"",""high nameability""]","right-left","[""brown"",""yellow""]","3","high nameability","28","right","audio_feedback","1"
"html-button-response","140","135135","0.0-108.0","CAN_120","120","","","","","","null","<button class=""jspsych-btn""><img src=""stimuli/white_square.png"" style=""width: 200px;height: 200px;""></button>","null","yellow","brown","[""yellow"",""brown"",""high nameability""]","right-left","[""brown"",""yellow""]","3","high nameability","28","right","iti",""
"html-button-response","141","135737","0.0-109.0","CAN_120","120","","","","","","586","","0","yellow","blue","[""yellow"",""blue"",""high nameability""]","left-right","[""yellow"",""blue"",""high nameability""]","3","high nameability","29","left","trigger",""
"html-button-response","142","136282","0.0-110.0-0.0","CAN_120","120","","","","","","536","<button class=""jspsych-btn""><img src=""stimuli/yellow.png"" style=""width: 200px;height: 200px;""></button>","0","yellow","blue","[""yellow"",""blue"",""high nameability""]","left-right","[""yellow"",""blue"",""high nameability""]","3","high nameability","29","left","response","1"
"html-audio-button-response","143","136486","0.0-110.0-1.0","CAN_120","120","","","","","","null","stimuli/bleep.m4a","null","yellow","blue","[""yellow"",""blue"",""high nameability""]","left-right","[""yellow"",""blue"",""high nameability""]","3","high nameability","29","left","audio_feedback","1"
"html-button-response","144","137008","0.0-111.0","CAN_120","120","","","","","","null","<button class=""jspsych-btn""><img src=""stimuli/white_square.png"" style=""width: 200px;height: 200px;""></button>","null","yellow","blue","[""yellow"",""blue"",""high nameability""]","left-right","[""yellow"",""blue"",""high nameability""]","3","high nameability","29","left","iti",""
"html-button-response","145","137577","0.0-112.0","CAN_120","120","","","","","","537","","0","neonyellow","darkgreenblue","[""neonyellow"",""darkgreenblue"",""low nameability""]","left-right","[""neonyellow"",""darkgreenblue"",""low nameability""]","3","low nameability","30","left","trigger",""
"html-button-response","146","138129","0.0-113.0-0.0","CAN_120","120","","","","","","544","<button class=""jspsych-btn""><img src=""stimuli/neonyellow.png"" style=""width: 200px;height: 200px;""></button>","0","neonyellow","darkgreenblue","[""neonyellow"",""darkgreenblue"",""low nameability""]","left-right","[""neonyellow"",""darkgreenblue"",""low nameability""]","3","low nameability","30","left","response","1"
"html-audio-button-response","147","138336","0.0-113.0-1.0","CAN_120","120","","","","","","null","stimuli/bleep.m4a","null","neonyellow","darkgreenblue","[""neonyellow"",""darkgreenblue"",""low nameability""]","left-right","[""neonyellow"",""darkgreenblue"",""low nameability""]","3","low nameability","30","left","audio_feedback","1"
"html-button-response","148","138853","0.0-114.0","CAN_120","120","","","","","","null","<button class=""jspsych-btn""><img src=""stimuli/white_square.png"" style=""width: 200px;height: 200px;""></button>","null","neonyellow","darkgreenblue","[""neonyellow"",""darkgreenblue"",""low nameability""]","left-right","[""neonyellow"",""darkgreenblue"",""low nameability""]","3","low nameability","30","left","iti",""
"pavlovia","149","138923","0.0-115.0","CAN_120","120","","","","","","","","","","","","","","","","","","",""
"pavlovia","150","138932","0.0-116.0","CAN_120","120","","","","","","","","","","","","","","","","","","",""
"html-audio-button-response","151","140621","0.0-117.0","CAN_120","120","","","","","","1760","stimuli/tada.m4a","0","","","","","","","","","","",""
"html-button-response","152","141568","0.0-118.0","CAN_120","120","","","","","","939","","0","","","","","","","","","","",""
"html-button-response","153","142184","0.0-119.0","CAN_120","120","","","","","","610","","0","pink","lightred","[""pink"",""lightred"",""low nameability""]","right-left","[""lightred"",""pink""]","4","low nameability","31","right","trigger",""
"html-button-response","154","142882","0.0-120.0-0.0","CAN_120","120","","","","","","691","<button class=""jspsych-btn""><img src=""stimuli/pink.png"" style=""width: 200px;height: 200px;""></button>","1","pink","lightred","[""pink"",""lightred"",""low nameability""]","right-left","[""lightred"",""pink""]","4","low nameability","31","right","response","1"
"html-audio-button-response","155","143085","0.0-120.0-1.0","CAN_120","120","","","","","","null","stimuli/bleep.m4a","null","pink","lightred","[""pink"",""lightred"",""low nameability""]","right-left","[""lightred"",""pink""]","4","low nameability","31","right","audio_feedback","1"
"html-button-response","156","143609","0.0-121.0","CAN_120","120","","","","","","null","<button class=""jspsych-btn""><img src=""stimuli/white_square.png"" style=""width: 200px;height: 200px;""></button>","null","pink","lightred","[""pink"",""lightred"",""low nameability""]","right-left","[""lightred"",""pink""]","4","low nameability","31","right","iti",""
"html-button-response","157","144039","0.0-122.0","CAN_120","120","","","","","","409","","0","orange","purple","[""orange"",""purple"",""high nameability""]","left-right","[""orange"",""purple"",""high nameability""]","4","high nameability","32","left","trigger",""
"html-button-response","158","144580","0.0-123.0-0.0","CAN_120","120","","","","","","534","<button class=""jspsych-btn""><img src=""stimuli/orange.png"" style=""width: 200px;height: 200px;""></button>","0","orange","purple","[""orange"",""purple"",""high nameability""]","left-right","[""orange"",""purple"",""high nameability""]","4","high nameability","32","left","response","1"
"html-audio-button-response","159","144790","0.0-123.0-1.0","CAN_120","120","","","","","","null","stimuli/bleep.m4a","null","orange","purple","[""orange"",""purple"",""high nameability""]","left-right","[""orange"",""purple"",""high nameability""]","4","high nameability","32","left","audio_feedback","1"
"html-button-response","160","145315","0.0-124.0","CAN_120","120","","","","","","null","<button class=""jspsych-btn""><img src=""stimuli/white_square.png"" style=""width: 200px;height: 200px;""></button>","null","orange","purple","[""orange"",""purple"",""high nameability""]","left-right","[""orange"",""purple"",""high nameability""]","4","high nameability","32","left","iti",""
"html-button-response","161","145810","0.0-125.0","CAN_120","120","","","","","","481","","0","lightred","neonyellow","[""lightred"",""neonyellow"",""low nameability""]","right-left","[""neonyellow"",""lightred""]","4","low nameability","33","right","trigger",""
"html-button-response","162","146506","0.0-126.0-0.0","CAN_120","120","","","","","","685","<button class=""jspsych-btn""><img src=""stimuli/lightred.png"" style=""width: 200px;height: 200px;""></button>","1","lightred","neonyellow","[""lightred"",""neonyellow"",""low nameability""]","right-left","[""neonyellow"",""lightred""]","4","low nameability","33","right","response","1"
"html-audio-button-response","163","146711","0.0-126.0-1.0","CAN_120","120","","","","","","null","stimuli/bleep.m4a","null","lightred","neonyellow","[""lightred"",""neonyellow"",""low nameability""]","right-left","[""neonyellow"",""lightred""]","4","low nameability","33","right","audio_feedback","1"
"html-button-response","164","147232","0.0-127.0","CAN_120","120","","","","","","null","<button class=""jspsych-btn""><img src=""stimuli/white_square.png"" style=""width: 200px;height: 200px;""></button>","null","lightred","neonyellow","[""lightred"",""neonyellow"",""low nameability""]","right-left","[""neonyellow"",""lightred""]","4","low nameability","33","right","iti",""
"html-button-response","165","147758","0.0-128.0","CAN_120","120","","","","","","505","","0","lightred","pink","[""lightred"",""pink"",""low nameability""]","right-left","[""pink"",""lightred""]","4","low nameability","34","right","trigger",""
"html-button-response","166","148384","0.0-129.0-0.0","CAN_120","120","","","","","","618","<button class=""jspsych-btn""><img src=""stimuli/lightred.png"" style=""width: 200px;height: 200px;""></button>","1","lightred","pink","[""lightred"",""pink"",""low nameability""]","right-left","[""pink"",""lightred""]","4","low nameability","34","right","response","1"
"html-audio-button-response","167","148590","0.0-129.0-1.0","CAN_120","120","","","","","","null","stimuli/bleep.m4a","null","lightred","pink","[""lightred"",""pink"",""low nameability""]","right-left","[""pink"",""lightred""]","4","low nameability","34","right","audio_feedback","1"
"html-button-response","168","149109","0.0-130.0","CAN_120","120","","","","","","null","<button class=""jspsych-btn""><img src=""stimuli/white_square.png"" style=""width: 200px;height: 200px;""></button>","null","lightred","pink","[""lightred"",""pink"",""low nameability""]","right-left","[""pink"",""lightred""]","4","low nameability","34","right","iti",""
"html-button-response","169","149577","0.0-131.0","CAN_120","120","","","","","","443","","0","blue","red","[""blue"",""red"",""high nameability""]","left-right","[""blue"",""red"",""high nameability""]","4","high nameability","35","left","trigger",""
"html-button-response","170","150152","0.0-132.0-0.0","CAN_120","120","","","","","","566","<button class=""jspsych-btn""><img src=""stimuli/blue.png"" style=""width: 200px;height: 200px;""></button>","0","blue","red","[""blue"",""red"",""high nameability""]","left-right","[""blue"",""red"",""high nameability""]","4","high nameability","35","left","response","1"
"html-audio-button-response","171","150358","0.0-132.0-1.0","CAN_120","120","","","","","","null","stimuli/bleep.m4a","null","blue","red","[""blue"",""red"",""high nameability""]","left-right","[""blue"",""red"",""high nameability""]","4","high nameability","35","left","audio_feedback","1"
"html-button-response","172","150876","0.0-133.0","CAN_120","120","","","","","","null","<button class=""jspsych-btn""><img src=""stimuli/white_square.png"" style=""width: 200px;height: 200px;""></button>","null","blue","red","[""blue"",""red"",""high nameability""]","left-right","[""blue"",""red"",""high nameability""]","4","high nameability","35","left","iti",""
"html-button-response","173","151393","0.0-134.0","CAN_120","120","","","","","","493","","0","pink","darkgreenblue","[""pink"",""darkgreenblue"",""low nameability""]","right-left","[""darkgreenblue"",""pink""]","4","low nameability","36","right","trigger",""
"html-button-response","174","151990","0.0-135.0-0.0","CAN_120","120","","","","","","588","<button class=""jspsych-btn""><img src=""stimuli/pink.png"" style=""width: 200px;height: 200px;""></button>","1","pink","darkgreenblue","[""pink"",""darkgreenblue"",""low nameability""]","right-left","[""darkgreenblue"",""pink""]","4","low nameability","36","right","response","1"
"html-audio-button-response","175","152195","0.0-135.0-1.0","CAN_120","120","","","","","","null","stimuli/bleep.m4a","null","pink","darkgreenblue","[""pink"",""darkgreenblue"",""low nameability""]","right-left","[""darkgreenblue"",""pink""]","4","low nameability","36","right","audio_feedback","1"
"html-button-response","176","152713","0.0-136.0","CAN_120","120","","","","","","null","<button class=""jspsych-btn""><img src=""stimuli/white_square.png"" style=""width: 200px;height: 200px;""></button>","null","pink","darkgreenblue","[""pink"",""darkgreenblue"",""low nameability""]","right-left","[""darkgreenblue"",""pink""]","4","low nameability","36","right","iti",""
"html-button-response","177","153171","0.0-137.0","CAN_120","120","","","","","","439","","0","mustard","lightred","[""mustard"",""lightred"",""low nameability""]","right-left","[""lightred"",""mustard""]","4","low nameability","37","right","trigger",""
"html-button-response","178","153723","0.0-138.0-0.0","CAN_120","120","","","","","","543","<button class=""jspsych-btn""><img src=""stimuli/mustard.png"" style=""width: 200px;height: 200px;""></button>","1","mustard","lightred","[""mustard"",""lightred"",""low nameability""]","right-left","[""lightred"",""mustard""]","4","low nameability","37","right","response","1"
"html-audio-button-response","179","153927","0.0-138.0-1.0","CAN_120","120","","","","","","null","stimuli/bleep.m4a","null","mustard","lightred","[""mustard"",""lightred"",""low nameability""]","right-left","[""lightred"",""mustard""]","4","low nameability","37","right","audio_feedback","1"
"html-button-response","180","154445","0.0-139.0","CAN_120","120","","","","","","null","<button class=""jspsych-btn""><img src=""stimuli/white_square.png"" style=""width: 200px;height: 200px;""></button>","null","mustard","lightred","[""mustard"",""lightred"",""low nameability""]","right-left","[""lightred"",""mustard""]","4","low nameability","37","right","iti",""
"html-button-response","181","154906","0.0-140.0","CAN_120","120","","","","","","444","","0","mustard","neonyellow","[""mustard"",""neonyellow"",""low nameability""]","left-right","[""mustard"",""neonyellow"",""low nameability""]","4","low nameability","38","left","trigger",""
"html-button-response","182","155556","0.0-141.0-0.0","CAN_120","120","","","","","","640","<button class=""jspsych-btn""><img src=""stimuli/mustard.png"" style=""width: 200px;height: 200px;""></button>","0","mustard","neonyellow","[""mustard"",""neonyellow"",""low nameability""]","left-right","[""mustard"",""neonyellow"",""low nameability""]","4","low nameability","38","left","response","1"
"html-audio-button-response","183","155761","0.0-141.0-1.0","CAN_120","120","","","","","","null","stimuli/bleep.m4a","null","mustard","neonyellow","[""mustard"",""neonyellow"",""low nameability""]","left-right","[""mustard"",""neonyellow"",""low nameability""]","4","low nameability","38","left","audio_feedback","1"
"html-button-response","184","156273","0.0-142.0","CAN_120","120","","","","","","null","<button class=""jspsych-btn""><img src=""stimuli/white_square.png"" style=""width: 200px;height: 200px;""></button>","null","mustard","neonyellow","[""mustard"",""neonyellow"",""low nameability""]","left-right","[""mustard"",""neonyellow"",""low nameability""]","4","low nameability","38","left","iti",""
"html-button-response","185","156710","0.0-143.0","CAN_120","120","","","","","","419","","0","turquoise","neonyellow","[""turquoise"",""neonyellow"",""low nameability""]","left-right","[""turquoise"",""neonyellow"",""low nameability""]","4","low nameability","39","left","trigger",""
"html-button-response","186","157311","0.0-144.0-0.0","CAN_120","120","","","","","","592","<button class=""jspsych-btn""><img src=""stimuli/turquoise.png"" style=""width: 200px;height: 200px;""></button>","0","turquoise","neonyellow","[""turquoise"",""neonyellow"",""low nameability""]","left-right","[""turquoise"",""neonyellow"",""low nameability""]","4","low nameability","39","left","response","1"
"html-audio-button-response","187","157519","0.0-144.0-1.0","CAN_120","120","","","","","","null","stimuli/bleep.m4a","null","turquoise","neonyellow","[""turquoise"",""neonyellow"",""low nameability""]","left-right","[""turquoise"",""neonyellow"",""low nameability""]","4","low nameability","39","left","audio_feedback","1"
"html-button-response","188","158038","0.0-145.0","CAN_120","120","","","","","","null","<button class=""jspsych-btn""><img src=""stimuli/white_square.png"" style=""width: 200px;height: 200px;""></button>","null","turquoise","neonyellow","[""turquoise"",""neonyellow"",""low nameability""]","left-right","[""turquoise"",""neonyellow"",""low nameability""]","4","low nameability","39","left","iti",""
"html-button-response","189","158492","0.0-146.0","CAN_120","120","","","","","","438","","0","pink","neonyellow","[""pink"",""neonyellow"",""low nameability""]","right-left","[""neonyellow"",""pink""]","4","low nameability","40","right","trigger",""
"html-button-response","190","159079","0.0-147.0-0.0","CAN_120","120","","","","","","579","<button class=""jspsych-btn""><img src=""stimuli/pink.png"" style=""width: 200px;height: 200px;""></button>","1","pink","neonyellow","[""pink"",""neonyellow"",""low nameability""]","right-left","[""neonyellow"",""pink""]","4","low nameability","40","right","response","1"
"html-audio-button-response","191","159285","0.0-147.0-1.0","CAN_120","120","","","","","","null","stimuli/bleep.m4a","null","pink","neonyellow","[""pink"",""neonyellow"",""low nameability""]","right-left","[""neonyellow"",""pink""]","4","low nameability","40","right","audio_feedback","1"
"html-button-response","192","159807","0.0-148.0","CAN_120","120","","","","","","null","<button class=""jspsych-btn""><img src=""stimuli/white_square.png"" style=""width: 200px;height: 200px;""></button>","null","pink","neonyellow","[""pink"",""neonyellow"",""low nameability""]","right-left","[""neonyellow"",""pink""]","4","low nameability","40","right","iti",""
"pavlovia","193","159888","0.0-149.0","CAN_120","120","","","","","","","","","","","","","","","","","","",""
"pavlovia","194","159897","0.0-150.0","CAN_120","120","","","","","","","","","","","","","","","","","","",""
"html-audio-button-response","195","162916","0.0-151.0","CAN_120","120","","","","","","3109","stimuli/tada.m4a","0","","","","","","","","","","",""
"html-button-response","196","163409","0.0-152.0","CAN_120","120","","","","","","488","","0","","","","","","","","","","",""
"html-button-response","197","163893","0.0-153.0","CAN_120","120","","","","","","477","","0","brown","blue","[""brown"",""blue"",""high nameability""]","left-right","[""brown"",""blue"",""high nameability""]","5","high nameability","41","left","trigger",""
"html-button-response","198","164450","0.0-154.0-0.0","CAN_120","120","","","","","","550","<button class=""jspsych-btn""><img src=""stimuli/brown.png"" style=""width: 200px;height: 200px;""></button>","0","brown","blue","[""brown"",""blue"",""high nameability""]","left-right","[""brown"",""blue"",""high nameability""]","5","high nameability","41","left","response","1"
"html-audio-button-response","199","164649","0.0-154.0-1.0","CAN_120","120","","","","","","null","stimuli/bleep.m4a","null","brown","blue","[""brown"",""blue"",""high nameability""]","left-right","[""brown"",""blue"",""high nameability""]","5","high nameability","41","left","audio_feedback","1"
"html-button-response","200","165168","0.0-155.0","CAN_120","120","","","","","","null","<button class=""jspsych-btn""><img src=""stimuli/white_square.png"" style=""width: 200px;height: 200px;""></button>","null","brown","blue","[""brown"",""blue"",""high nameability""]","left-right","[""brown"",""blue"",""high nameability""]","5","high nameability","41","left","iti",""
"html-button-response","201","165639","0.0-156.0","CAN_120","120","","","","","","446","","0","neonyellow","pink","[""neonyellow"",""pink"",""low nameability""]","right-left","[""pink"",""neonyellow""]","5","low nameability","42","right","trigger",""
"html-button-response","202","166219","0.0-157.0-0.0","CAN_120","120","","","","","","574","<button class=""jspsych-btn""><img src=""stimuli/neonyellow.png"" style=""width: 200px;height: 200px;""></button>","1","neonyellow","pink","[""neonyellow"",""pink"",""low nameability""]","right-left","[""pink"",""neonyellow""]","5","low nameability","42","right","response","1"
"html-audio-button-response","203","166427","0.0-157.0-1.0","CAN_120","120","","","","","","null","stimuli/bleep.m4a","null","neonyellow","pink","[""neonyellow"",""pink"",""low nameability""]","right-left","[""pink"",""neonyellow""]","5","low nameability","42","right","audio_feedback","1"
"html-button-response","204","166947","0.0-158.0","CAN_120","120","","","","","","null","<button class=""jspsych-btn""><img src=""stimuli/white_square.png"" style=""width: 200px;height: 200px;""></button>","null","neonyellow","pink","[""neonyellow"",""pink"",""low nameability""]","right-left","[""pink"",""neonyellow""]","5","low nameability","42","right","iti",""
"html-button-response","205","167452","0.0-159.0","CAN_120","120","","","","","","487","","0","purple","orange","[""purple"",""orange"",""high nameability""]","left-right","[""purple"",""orange"",""high nameability""]","5","high nameability","43","left","trigger",""
"html-button-response","206","168022","0.0-160.0-0.0","CAN_120","120","","","","","","563","<button class=""jspsych-btn""><img src=""stimuli/purple.png"" style=""width: 200px;height: 200px;""></button>","0","purple","orange","[""purple"",""orange"",""high nameability""]","left-right","[""purple"",""orange"",""high nameability""]","5","high nameability","43","left","response","1"
"html-audio-button-response","207","168229","0.0-160.0-1.0","CAN_120","120","","","","","","null","stimuli/bleep.m4a","null","purple","orange","[""purple"",""orange"",""high nameability""]","left-right","[""purple"",""orange"",""high nameability""]","5","high nameability","43","left","audio_feedback","1"
"html-button-response","208","168750","0.0-161.0","CAN_120","120","","","","","","null","<button class=""jspsych-btn""><img src=""stimuli/white_square.png"" style=""width: 200px;height: 200px;""></button>","null","purple","orange","[""purple"",""orange"",""high nameability""]","left-right","[""purple"",""orange"",""high nameability""]","5","high nameability","43","left","iti",""
"html-button-response","209","169211","0.0-162.0","CAN_120","120","","","","","","444","","0","mustard","darkgreenblue","[""mustard"",""darkgreenblue"",""low nameability""]","right-left","[""darkgreenblue"",""mustard""]","5","low nameability","44","right","trigger",""
"html-button-response","210","169718","0.0-163.0-0.0","CAN_120","120","","","","","","499","<button class=""jspsych-btn""><img src=""stimuli/mustard.png"" style=""width: 200px;height: 200px;""></button>","1","mustard","darkgreenblue","[""mustard"",""darkgreenblue"",""low nameability""]","right-left","[""darkgreenblue"",""mustard""]","5","low nameability","44","right","response","1"
"html-audio-button-response","211","169922","0.0-163.0-1.0","CAN_120","120","","","","","","null","stimuli/bleep.m4a","null","mustard","darkgreenblue","[""mustard"",""darkgreenblue"",""low nameability""]","right-left","[""darkgreenblue"",""mustard""]","5","low nameability","44","right","audio_feedback","1"
"html-button-response","212","170438","0.0-164.0","CAN_120","120","","","","","","null","<button class=""jspsych-btn""><img src=""stimuli/white_square.png"" style=""width: 200px;height: 200px;""></button>","null","mustard","darkgreenblue","[""mustard"",""darkgreenblue"",""low nameability""]","right-left","[""darkgreenblue"",""mustard""]","5","low nameability","44","right","iti",""
"html-button-response","213","170900","0.0-165.0","CAN_120","120","","","","","","441","","0","orange","yellow","[""orange"",""yellow"",""high nameability""]","left-right","[""orange"",""yellow"",""high nameability""]","5","high nameability","45","left","trigger",""
"html-button-response","214","171513","0.0-166.0-0.0","CAN_120","120","","","","","","606","<button class=""jspsych-btn""><img src=""stimuli/orange.png"" style=""width: 200px;height: 200px;""></button>","0","orange","yellow","[""orange"",""yellow"",""high nameability""]","left-right","[""orange"",""yellow"",""high nameability""]","5","high nameability","45","left","response","1"
"html-audio-button-response","215","171717","0.0-166.0-1.0","CAN_120","120","","","","","","null","stimuli/bleep.m4a","null","orange","yellow","[""orange"",""yellow"",""high nameability""]","left-right","[""orange"",""yellow"",""high nameability""]","5","high nameability","45","left","audio_feedback","1"
"html-button-response","216","172236","0.0-167.0","CAN_120","120","","","","","","null","<button class=""jspsych-btn""><img src=""stimuli/white_square.png"" style=""width: 200px;height: 200px;""></button>","null","orange","yellow","[""orange"",""yellow"",""high nameability""]","left-right","[""orange"",""yellow"",""high nameability""]","5","high nameability","45","left","iti",""
"html-button-response","217","173454","0.0-168.0","CAN_120","120","","","","","","1201","","0","brown","orange","[""brown"",""orange"",""high nameability""]","right-left","[""orange"",""brown""]","5","high nameability","46","right","trigger",""
"html-button-response","218","174127","0.0-169.0-0.0","CAN_120","120","","","","","","665","<button class=""jspsych-btn""><img src=""stimuli/brown.png"" style=""width: 200px;height: 200px;""></button>","1","brown","orange","[""brown"",""orange"",""high nameability""]","right-left","[""orange"",""brown""]","5","high nameability","46","right","response","1"
"html-audio-button-response","219","174334","0.0-169.0-1.0","CAN_120","120","","","","","","null","stimuli/bleep.m4a","null","brown","orange","[""brown"",""orange"",""high nameability""]","right-left","[""orange"",""brown""]","5","high nameability","46","right","audio_feedback","1"
"html-button-response","220","174848","0.0-170.0","CAN_120","120","","","","","","null","<button class=""jspsych-btn""><img src=""stimuli/white_square.png"" style=""width: 200px;height: 200px;""></button>","null","brown","orange","[""brown"",""orange"",""high nameability""]","right-left","[""orange"",""brown""]","5","high nameability","46","right","iti",""
"html-button-response","221","175412","0.0-171.0","CAN_120","120","","","","","","541","","0","darkgreenblue","turquoise","[""darkgreenblue"",""turquoise"",""low nameability""]","right-left","[""turquoise"",""darkgreenblue""]","5","low nameability","47","right","trigger",""
"html-button-response","222","175994","0.0-172.0-0.0","CAN_120","120","","","","","","572","<button class=""jspsych-btn""><img src=""stimuli/darkgreenblue.png"" style=""width: 200px;height: 200px;""></button>","1","darkgreenblue","turquoise","[""darkgreenblue"",""turquoise"",""low nameability""]","right-left","[""turquoise"",""darkgreenblue""]","5","low nameability","47","right","response","1"
"html-audio-button-response","223","176202","0.0-172.0-1.0","CAN_120","120","","","","","","null","stimuli/bleep.m4a","null","darkgreenblue","turquoise","[""darkgreenblue"",""turquoise"",""low nameability""]","right-left","[""turquoise"",""darkgreenblue""]","5","low nameability","47","right","audio_feedback","1"
"html-button-response","224","176720","0.0-173.0","CAN_120","120","","","","","","null","<button class=""jspsych-btn""><img src=""stimuli/white_square.png"" style=""width: 200px;height: 200px;""></button>","null","darkgreenblue","turquoise","[""darkgreenblue"",""turquoise"",""low nameability""]","right-left","[""turquoise"",""darkgreenblue""]","5","low nameability","47","right","iti",""
"html-button-response","225","177239","0.0-174.0","CAN_120","120","","","","","","504","","0","neonyellow","turquoise","[""neonyellow"",""turquoise"",""low nameability""]","right-left","[""turquoise"",""neonyellow""]","5","low nameability","48","right","trigger",""
"html-button-response","226","177775","0.0-175.0-0.0","CAN_120","120","","","","","","527","<button class=""jspsych-btn""><img src=""stimuli/neonyellow.png"" style=""width: 200px;height: 200px;""></button>","1","neonyellow","turquoise","[""neonyellow"",""turquoise"",""low nameability""]","right-left","[""turquoise"",""neonyellow""]","5","low nameability","48","right","response","1"
"html-audio-button-response","227","177976","0.0-175.0-1.0","CAN_120","120","","","","","","null","stimuli/bleep.m4a","null","neonyellow","turquoise","[""neonyellow"",""turquoise"",""low nameability""]","right-left","[""turquoise"",""neonyellow""]","5","low nameability","48","right","audio_feedback","1"
"html-button-response","228","178493","0.0-176.0","CAN_120","120","","","","","","null","<button class=""jspsych-btn""><img src=""stimuli/white_square.png"" style=""width: 200px;height: 200px;""></button>","null","neonyellow","turquoise","[""neonyellow"",""turquoise"",""low nameability""]","right-left","[""turquoise"",""neonyellow""]","5","low nameability","48","right","iti",""
"html-button-response","229","178986","0.0-177.0","CAN_120","120","","","","","","481","","0","darkgreenblue","neonyellow","[""darkgreenblue"",""neonyellow"",""low nameability""]","right-left","[""neonyellow"",""darkgreenblue""]","5","low nameability","49","right","trigger",""
"html-button-response","230","179513","0.0-178.0-0.0","CAN_120","120","","","","","","516","<button class=""jspsych-btn""><img src=""stimuli/darkgreenblue.png"" style=""width: 200px;height: 200px;""></button>","1","darkgreenblue","neonyellow","[""darkgreenblue"",""neonyellow"",""low nameability""]","right-left","[""neonyellow"",""darkgreenblue""]","5","low nameability","49","right","response","1"
"html-audio-button-response","231","179717","0.0-178.0-1.0","CAN_120","120","","","","","","null","stimuli/bleep.m4a","null","darkgreenblue","neonyellow","[""darkgreenblue"",""neonyellow"",""low nameability""]","right-left","[""neonyellow"",""darkgreenblue""]","5","low nameability","49","right","audio_feedback","1"
"html-button-response","232","180260","0.0-179.0","CAN_120","120","","","","","","null","<button class=""jspsych-btn""><img src=""stimuli/white_square.png"" style=""width: 200px;height: 200px;""></button>","null","darkgreenblue","neonyellow","[""darkgreenblue"",""neonyellow"",""low nameability""]","right-left","[""neonyellow"",""darkgreenblue""]","5","low nameability","49","right","iti",""
"html-button-response","233","180778","0.0-180.0","CAN_120","120","","","","","","467","","0","pink","mustard","[""pink"",""mustard"",""low nameability""]","right-left","[""mustard"",""pink""]","5","low nameability","50","right","trigger",""
"html-button-response","234","181522","0.0-181.0-0.0","CAN_120","120","","","","","","724","<button class=""jspsych-btn""><img src=""stimuli/pink.png"" style=""width: 200px;height: 200px;""></button>","1","pink","mustard","[""pink"",""mustard"",""low nameability""]","right-left","[""mustard"",""pink""]","5","low nameability","50","right","response","1"
"html-audio-button-response","235","181738","0.0-181.0-1.0","CAN_120","120","","","","","","null","stimuli/bleep.m4a","null","pink","mustard","[""pink"",""mustard"",""low nameability""]","right-left","[""mustard"",""pink""]","5","low nameability","50","right","audio_feedback","1"
"html-button-response","236","182267","0.0-182.0","CAN_120","120","","","","","","null","<button class=""jspsych-btn""><img src=""stimuli/white_square.png"" style=""width: 200px;height: 200px;""></button>","null","pink","mustard","[""pink"",""mustard"",""low nameability""]","right-left","[""mustard"",""pink""]","5","low nameability","50","right","iti",""
"pavlovia","237","182405","0.0-183.0","CAN_120","120","","","","","","","","","","","","","","","","","","",""
"pavlovia","238","182421","0.0-184.0","CAN_120","120","","","","","","","","","","","","","","","","","","",""
"html-audio-button-response","239","184254","0.0-185.0","CAN_120","120","","","","","","1992","stimuli/tada.m4a","0","","","","","","","","","","",""
"html-button-response","240","184904","0.0-186.0","CAN_120","120","","","","","","639","","0","","","","","","","","","","",""
"html-button-response","241","185354","0.0-187.0","CAN_120","120","","","","","","428","","0","red","orange","[""red"",""orange"",""high nameability""]","left-right","[""red"",""orange"",""high nameability""]","6","high nameability","51","left","trigger",""
"html-button-response","242","185934","0.0-188.0-0.0","CAN_120","120","","","","","","560","<button class=""jspsych-btn""><img src=""stimuli/red.png"" style=""width: 200px;height: 200px;""></button>","0","red","orange","[""red"",""orange"",""high nameability""]","left-right","[""red"",""orange"",""high nameability""]","6","high nameability","51","left","response","1"
"html-audio-button-response","243","186144","0.0-188.0-1.0","CAN_120","120","","","","","","null","stimuli/bleep.m4a","null","red","orange","[""red"",""orange"",""high nameability""]","left-right","[""red"",""orange"",""high nameability""]","6","high nameability","51","left","audio_feedback","1"
"html-button-response","244","186673","0.0-189.0","CAN_120","120","","","","","","null","<button class=""jspsych-btn""><img src=""stimuli/white_square.png"" style=""width: 200px;height: 200px;""></button>","null","red","orange","[""red"",""orange"",""high nameability""]","left-right","[""red"",""orange"",""high nameability""]","6","high nameability","51","left","iti",""
"html-button-response","245","187083","0.0-190.0","CAN_120","120","","","","","","391","","0","brown","red","[""brown"",""red"",""high nameability""]","left-right","[""brown"",""red"",""high nameability""]","6","high nameability","52","left","trigger",""
"html-button-response","246","187606","0.0-191.0-0.0","CAN_120","120","","","","","","514","<button class=""jspsych-btn""><img src=""stimuli/brown.png"" style=""width: 200px;height: 200px;""></button>","0","brown","red","[""brown"",""red"",""high nameability""]","left-right","[""brown"",""red"",""high nameability""]","6","high nameability","52","left","response","1"
"html-audio-button-response","247","187823","0.0-191.0-1.0","CAN_120","120","","","","","","null","stimuli/bleep.m4a","null","brown","red","[""brown"",""red"",""high nameability""]","left-right","[""brown"",""red"",""high nameability""]","6","high nameability","52","left","audio_feedback","1"
"html-button-response","248","188344","0.0-192.0","CAN_120","120","","","","","","null","<button class=""jspsych-btn""><img src=""stimuli/white_square.png"" style=""width: 200px;height: 200px;""></button>","null","brown","red","[""brown"",""red"",""high nameability""]","left-right","[""brown"",""red"",""high nameability""]","6","high nameability","52","left","iti",""
"html-button-response","249","188747","0.0-193.0","CAN_120","120","","","","","","384","","0","mustard","turquoise","[""mustard"",""turquoise"",""low nameability""]","left-right","[""mustard"",""turquoise"",""low nameability""]","6","low nameability","53","left","trigger",""
"html-button-response","250","189310","0.0-194.0-0.0","CAN_120","120","","","","","","553","<button class=""jspsych-btn""><img src=""stimuli/mustard.png"" style=""width: 200px;height: 200px;""></button>","0","mustard","turquoise","[""mustard"",""turquoise"",""low nameability""]","left-right","[""mustard"",""turquoise"",""low nameability""]","6","low nameability","53","left","response","1"
"html-audio-button-response","251","189517","0.0-194.0-1.0","CAN_120","120","","","","","","null","stimuli/bleep.m4a","null","mustard","turquoise","[""mustard"",""turquoise"",""low nameability""]","left-right","[""mustard"",""turquoise"",""low nameability""]","6","low nameability","53","left","audio_feedback","1"
"html-button-response","252","190037","0.0-195.0","CAN_120","120","","","","","","null","<button class=""jspsych-btn""><img src=""stimuli/white_square.png"" style=""width: 200px;height: 200px;""></button>","null","mustard","turquoise","[""mustard"",""turquoise"",""low nameability""]","left-right","[""mustard"",""turquoise"",""low nameability""]","6","low nameability","53","left","iti",""
"html-button-response","253","190454","0.0-196.0","CAN_120","120","","","","","","401","","0","orange","brown","[""orange"",""brown"",""high nameability""]","left-right","[""orange"",""brown"",""high nameability""]","6","high nameability","54","left","trigger",""
"html-button-response","254","190950","0.0-197.0-0.0","CAN_120","120","","","","","","488","<button class=""jspsych-btn""><img src=""stimuli/orange.png"" style=""width: 200px;height: 200px;""></button>","0","orange","brown","[""orange"",""brown"",""high nameability""]","left-right","[""orange"",""brown"",""high nameability""]","6","high nameability","54","left","response","1"
"html-audio-button-response","255","191156","0.0-197.0-1.0","CAN_120","120","","","","","","null","stimuli/bleep.m4a","null","orange","brown","[""orange"",""brown"",""high nameability""]","left-right","[""orange"",""brown"",""high nameability""]","6","high nameability","54","left","audio_feedback","1"
"html-button-response","256","191671","0.0-198.0","CAN_120","120","","","","","","null","<button class=""jspsych-btn""><img src=""stimuli/white_square.png"" style=""width: 200px;height: 200px;""></button>","null","orange","brown","[""orange"",""brown"",""high nameability""]","left-right","[""orange"",""brown"",""high nameability""]","6","high nameability","54","left","iti",""
"html-button-response","257","192105","0.0-199.0","CAN_120","120","","","","","","412","","0","yellow","purple","[""yellow"",""purple"",""high nameability""]","left-right","[""yellow"",""purple"",""high nameability""]","6","high nameability","55","left","trigger",""
"html-button-response","258","192697","0.0-200.0-0.0","CAN_120","120","","","","","","583","<button class=""jspsych-btn""><img src=""stimuli/yellow.png"" style=""width: 200px;height: 200px;""></button>","0","yellow","purple","[""yellow"",""purple"",""high nameability""]","left-right","[""yellow"",""purple"",""high nameability""]","6","high nameability","55","left","response","1"
"html-audio-button-response","259","192903","0.0-200.0-1.0","CAN_120","120","","","","","","null","stimuli/bleep.m4a","null","yellow","purple","[""yellow"",""purple"",""high nameability""]","left-right","[""yellow"",""purple"",""high nameability""]","6","high nameability","55","left","audio_feedback","1"
"html-button-response","260","193429","0.0-201.0","CAN_120","120","","","","","","null","<button class=""jspsych-btn""><img src=""stimuli/white_square.png"" style=""width: 200px;height: 200px;""></button>","null","yellow","purple","[""yellow"",""purple"",""high nameability""]","left-right","[""yellow"",""purple"",""high nameability""]","6","high nameability","55","left","iti",""
"html-button-response","261","193949","0.0-202.0","CAN_120","120","","","","","","496","","0","blue","orange","[""blue"",""orange"",""high nameability""]","right-left","[""orange"",""blue""]","6","high nameability","56","right","trigger",""
"html-button-response","262","194572","0.0-203.0-0.0","CAN_120","120","","","","","","613","<button class=""jspsych-btn""><img src=""stimuli/blue.png"" style=""width: 200px;height: 200px;""></button>","1","blue","orange","[""blue"",""orange"",""high nameability""]","right-left","[""orange"",""blue""]","6","high nameability","56","right","response","1"
"html-audio-button-response","263","194778","0.0-203.0-1.0","CAN_120","120","","","","","","null","stimuli/bleep.m4a","null","blue","orange","[""blue"",""orange"",""high nameability""]","right-left","[""orange"",""blue""]","6","high nameability","56","right","audio_feedback","1"
"html-button-response","264","195298","0.0-204.0","CAN_120","120","","","","","","null","<button class=""jspsych-btn""><img src=""stimuli/white_square.png"" style=""width: 200px;height: 200px;""></button>","null","blue","orange","[""blue"",""orange"",""high nameability""]","right-left","[""orange"",""blue""]","6","high nameability","56","right","iti",""
"html-button-response","265","195789","0.0-205.0","CAN_120","120","","","","","","472","","0","turquoise","darkgreenblue","[""turquoise"",""darkgreenblue"",""low nameability""]","right-left","[""darkgreenblue"",""turquoise""]","6","low nameability","57","right","trigger",""
"html-button-response","266","196341","0.0-206.0-0.0","CAN_120","120","","","","","","543","<button class=""jspsych-btn""><img src=""stimuli/turquoise.png"" style=""width: 200px;height: 200px;""></button>","1","turquoise","darkgreenblue","[""turquoise"",""darkgreenblue"",""low nameability""]","right-left","[""darkgreenblue"",""turquoise""]","6","low nameability","57","right","response","1"
"html-audio-button-response","267","196546","0.0-206.0-1.0","CAN_120","120","","","","","","null","stimuli/bleep.m4a","null","turquoise","darkgreenblue","[""turquoise"",""darkgreenblue"",""low nameability""]","right-left","[""darkgreenblue"",""turquoise""]","6","low nameability","57","right","audio_feedback","1"
"html-button-response","268","197070","0.0-207.0","CAN_120","120","","","","","","null","<button class=""jspsych-btn""><img src=""stimuli/white_square.png"" style=""width: 200px;height: 200px;""></button>","null","turquoise","darkgreenblue","[""turquoise"",""darkgreenblue"",""low nameability""]","right-left","[""darkgreenblue"",""turquoise""]","6","low nameability","57","right","iti",""
"html-button-response","269","197224","0.0-208.0","CAN_120","120","","","","","","137","","0","turquoise","lightred","[""turquoise"",""lightred"",""low nameability""]","right-left","[""lightred"",""turquoise""]","6","low nameability","58","right","trigger",""
"html-button-response","270","197874","0.0-209.0-0.0","CAN_120","120","","","","","","640","<button class=""jspsych-btn""><img src=""stimuli/turquoise.png"" style=""width: 200px;height: 200px;""></button>","1","turquoise","lightred","[""turquoise"",""lightred"",""low nameability""]","right-left","[""lightred"",""turquoise""]","6","low nameability","58","right","response","1"
"html-audio-button-response","271","198078","0.0-209.0-1.0","CAN_120","120","","","","","","null","stimuli/bleep.m4a","null","turquoise","lightred","[""turquoise"",""lightred"",""low nameability""]","right-left","[""lightred"",""turquoise""]","6","low nameability","58","right","audio_feedback","1"
"html-button-response","272","198598","0.0-210.0","CAN_120","120","","","","","","null","<button class=""jspsych-btn""><img src=""stimuli/white_square.png"" style=""width: 200px;height: 200px;""></button>","null","turquoise","lightred","[""turquoise"",""lightred"",""low nameability""]","right-left","[""lightred"",""turquoise""]","6","low nameability","58","right","iti",""
"html-button-response","273","199018","0.0-211.0","CAN_120","120","","","","","","401","","0","purple","brown","[""purple"",""brown"",""high nameability""]","left-right","[""purple"",""brown"",""high nameability""]","6","high nameability","59","left","trigger",""
"html-button-response","274","199580","0.0-212.0-0.0","CAN_120","120","","","","","","552","<button class=""jspsych-btn""><img src=""stimuli/purple.png"" style=""width: 200px;height: 200px;""></button>","0","purple","brown","[""purple"",""brown"",""high nameability""]","left-right","[""purple"",""brown"",""high nameability""]","6","high nameability","59","left","response","1"
"html-audio-button-response","275","199786","0.0-212.0-1.0","CAN_120","120","","","","","","null","stimuli/bleep.m4a","null","purple","brown","[""purple"",""brown"",""high nameability""]","left-right","[""purple"",""brown"",""high nameability""]","6","high nameability","59","left","audio_feedback","1"
"html-button-response","276","200305","0.0-213.0","CAN_120","120","","","","","","null","<button class=""jspsych-btn""><img src=""stimuli/white_square.png"" style=""width: 200px;height: 200px;""></button>","null","purple","brown","[""purple"",""brown"",""high nameability""]","left-right","[""purple"",""brown"",""high nameability""]","6","high nameability","59","left","iti",""
"html-button-response","277","200712","0.0-214.0","CAN_120","120","","","","","","390","","0","blue","purple","[""blue"",""purple"",""high nameability""]","right-left","[""purple"",""blue""]","6","high nameability","60","right","trigger",""
"html-button-response","278","201242","0.0-215.0-0.0","CAN_120","120","","","","","","516","<button class=""jspsych-btn""><img src=""stimuli/blue.png"" style=""width: 200px;height: 200px;""></button>","1","blue","purple","[""blue"",""purple"",""high nameability""]","right-left","[""purple"",""blue""]","6","high nameability","60","right","response","1"
"html-audio-button-response","279","201447","0.0-215.0-1.0","CAN_120","120","","","","","","null","stimuli/bleep.m4a","null","blue","purple","[""blue"",""purple"",""high nameability""]","right-left","[""purple"",""blue""]","6","high nameability","60","right","audio_feedback","1"
"html-button-response","280","201974","0.0-216.0","CAN_120","120","","","","","","null","<button class=""jspsych-btn""><img src=""stimuli/white_square.png"" style=""width: 200px;height: 200px;""></button>","null","blue","purple","[""blue"",""purple"",""high nameability""]","right-left","[""purple"",""blue""]","6","high nameability","60","right","iti",""
