"trial_type","trial_index","time_elapsed","internal_node_id","subject_id","seed","success","timeout","failed_images","failed_audio","failed_video","rt","stimulus","response","target","foil","choices","combination_order","choices_in_order","round","condition","trial_counter","target_location","trial_kind","correct"
"pavlovia","0","28","0.0-0.0","CAN_118","118","","","","","","","","","","","","","","","","","","",""
"preload","1","746","0.0-1.0","CAN_118","118","true","false","[]","[]","[]","","","","","","","","","","","","","",""
"fullscreen","2","5048","0.0-2.0","CAN_118","118","true","","","","","","","","","","","","","","","","","",""
"html-button-response","3","15662","0.0-3.0","CAN_118","118","","","","","","10589","","0","","","","","","","","","","",""
"html-button-response","4","18416","0.0-4.0","CAN_118","118","","","","","","2740","","0","star","square","[""square"",""star""]","left-right","[""square"",""star""]","1","practice","1","right","trigger",""
"html-button-response","5","19655","0.0-5.0-0.0","CAN_118","118","","","","","","1228","<button class=""jspsych-btn""><img src=""stimuli/star.png"" style=""width: 200px;height: 200px;""></button>","1","star","square","[""square"",""star""]","left-right","[""square"",""star""]","1","practice","1","right","response","1"
"html-audio-button-response","6","19865","0.0-5.0-1.0","CAN_118","118","","","","","","null","stimuli/bleep.m4a","null","star","square","[""square"",""star""]","left-right","[""square"",""star""]","1","practice","1","right","audio_feedback","1"
"html-button-response","7","20391","0.0-6.0","CAN_118","118","","","","","","null","<button class=""jspsych-btn""><img src=""stimuli/white_square.png"" style=""width: 200px;height: 200px;""></button>","null","star","square","[""square"",""star""]","left-right","[""square"",""star""]","1","practice","1","right","iti",""
"html-button-response","8","21329","0.0-7.0","CAN_118","118","","","","","","918","","0","triangle","pentagram","[""triangle"",""pentagram""]","left-right","[""triangle"",""pentagram""]","1","practice","1","left","trigger",""
"html-button-response","9","22211","0.0-8.0-0.0","CAN_118","118","","","","","","868","<button class=""jspsych-btn""><img src=""stimuli/triangle.png"" style=""width: 200px;height: 200px;""></button>","0","triangle","pentagram","[""triangle"",""pentagram""]","left-right","[""triangle"",""pentagram""]","1","practice","1","left","response","1"
"html-audio-button-response","10","22419","0.0-8.0-1.0","CAN_118","118","","","","","","null","stimuli/bleep.m4a","null","triangle","pentagram","[""triangle"",""pentagram""]","left-right","[""triangle"",""pentagram""]","1","practice","1","left","audio_feedback","1"
"html-button-response","11","22943","0.0-9.0","CAN_118","118","","","","","","null","<button class=""jspsych-btn""><img src=""stimuli/white_square.png"" style=""width: 200px;height: 200px;""></button>","null","triangle","pentagram","[""triangle"",""pentagram""]","left-right","[""triangle"",""pentagram""]","1","practice","1","left","iti",""
"html-button-response","12","23718","0.0-10.0","CAN_118","118","","","","","","764","","0","diamond","rectangle","[""rectangle"",""diamond""]","left-right","[""rectangle"",""diamond""]","1","practice","1","right","trigger",""
"html-button-response","13","24504","0.0-11.0-0.0","CAN_118","118","","","","","","777","<button class=""jspsych-btn""><img src=""stimuli/diamond.png"" style=""width: 200px;height: 200px;""></button>","1","diamond","rectangle","[""rectangle"",""diamond""]","left-right","[""rectangle"",""diamond""]","1","practice","1","right","response","1"
"html-audio-button-response","14","24710","0.0-11.0-1.0","CAN_118","118","","","","","","null","stimuli/bleep.m4a","null","diamond","rectangle","[""rectangle"",""diamond""]","left-right","[""rectangle"",""diamond""]","1","practice","1","right","audio_feedback","1"
"html-button-response","15","25232","0.0-12.0","CAN_118","118","","","","","","null","<button class=""jspsych-btn""><img src=""stimuli/white_square.png"" style=""width: 200px;height: 200px;""></button>","null","diamond","rectangle","[""rectangle"",""diamond""]","left-right","[""rectangle"",""diamond""]","1","practice","1","right","iti",""
"html-button-response","16","25933","0.0-13.0","CAN_118","118","","","","","","680","","0","pentagram","star","[""pentagram"",""star""]","left-right","[""pentagram"",""star""]","1","practice","1","left","trigger",""
"html-button-response","17","26728","0.0-14.0-0.0","CAN_118","118","","","","","","785","<button class=""jspsych-btn""><img src=""stimuli/pentagram.png"" style=""width: 200px;height: 200px;""></button>","0","pentagram","star","[""pentagram"",""star""]","left-right","[""pentagram"",""star""]","1","practice","1","left","response","1"
"html-audio-button-response","18","26941","0.0-14.0-1.0","CAN_118","118","","","","","","null","stimuli/bleep.m4a","null","pentagram","star","[""pentagram"",""star""]","left-right","[""pentagram"",""star""]","1","practice","1","left","audio_feedback","1"
"html-button-response","19","27463","0.0-15.0","CAN_118","118","","","","","","null","<button class=""jspsych-btn""><img src=""stimuli/white_square.png"" style=""width: 200px;height: 200px;""></button>","null","pentagram","star","[""pentagram"",""star""]","left-right","[""pentagram"",""star""]","1","practice","1","left","iti",""
"html-button-response","20","34082","0.0-16.0","CAN_118","118","","","","","","6606","","0","","","","","","","","","","",""
"html-button-response","21","35683","0.0-17.0","CAN_118","118","","","","","","1588","","0","brown","yellow","[""brown"",""yellow"",""high nameability""]","right-left","[""yellow"",""brown""]","1","high nameability","1","right","trigger",""
"html-button-response","22","36294","0.0-18.0-0.0","CAN_118","118","","","","","","598","<button class=""jspsych-btn""><img src=""stimuli/brown.png"" style=""width: 200px;height: 200px;""></button>","1","brown","yellow","[""brown"",""yellow"",""high nameability""]","right-left","[""yellow"",""brown""]","1","high nameability","1","right","response","1"
"html-audio-button-response","23","36503","0.0-18.0-1.0","CAN_118","118","","","","","","null","stimuli/bleep.m4a","null","brown","yellow","[""brown"",""yellow"",""high nameability""]","right-left","[""yellow"",""brown""]","1","high nameability","1","right","audio_feedback","1"
"html-button-response","24","37025","0.0-19.0","CAN_118","118","","","","","","null","<button class=""jspsych-btn""><img src=""stimuli/white_square.png"" style=""width: 200px;height: 200px;""></button>","null","brown","yellow","[""brown"",""yellow"",""high nameability""]","right-left","[""yellow"",""brown""]","1","high nameability","1","right","iti",""
"html-button-response","25","37677","0.0-20.0","CAN_118","118","","","","","","628","","0","blue","brown","[""blue"",""brown"",""high nameability""]","right-left","[""brown"",""blue""]","1","high nameability","2","right","trigger",""
"html-button-response","26","38254","0.0-21.0-0.0","CAN_118","118","","","","","","563","<button class=""jspsych-btn""><img src=""stimuli/blue.png"" style=""width: 200px;height: 200px;""></button>","1","blue","brown","[""blue"",""brown"",""high nameability""]","right-left","[""brown"",""blue""]","1","high nameability","2","right","response","1"
"html-audio-button-response","27","38464","0.0-21.0-1.0","CAN_118","118","","","","","","null","stimuli/bleep.m4a","null","blue","brown","[""blue"",""brown"",""high nameability""]","right-left","[""brown"",""blue""]","1","high nameability","2","right","audio_feedback","1"
"html-button-response","28","38983","0.0-22.0","CAN_118","118","","","","","","null","<button class=""jspsych-btn""><img src=""stimuli/white_square.png"" style=""width: 200px;height: 200px;""></button>","null","blue","brown","[""blue"",""brown"",""high nameability""]","right-left","[""brown"",""blue""]","1","high nameability","2","right","iti",""
"html-button-response","29","39576","0.0-23.0","CAN_118","118","","","","","","568","","0","blue","yellow","[""blue"",""yellow"",""high nameability""]","left-right","[""blue"",""yellow"",""high nameability""]","1","high nameability","3","left","trigger",""
"html-button-response","30","40227","0.0-24.0-0.0","CAN_118","118","","","","","","645","<button class=""jspsych-btn""><img src=""stimuli/blue.png"" style=""width: 200px;height: 200px;""></button>","0","blue","yellow","[""blue"",""yellow"",""high nameability""]","left-right","[""blue"",""yellow"",""high nameability""]","1","high nameability","3","left","response","1"
"html-audio-button-response","31","40439","0.0-24.0-1.0","CAN_118","118","","","","","","null","stimuli/bleep.m4a","null","blue","yellow","[""blue"",""yellow"",""high nameability""]","left-right","[""blue"",""yellow"",""high nameability""]","1","high nameability","3","left","audio_feedback","1"
"html-button-response","32","40963","0.0-25.0","CAN_118","118","","","","","","null","<button class=""jspsych-btn""><img src=""stimuli/white_square.png"" style=""width: 200px;height: 200px;""></button>","null","blue","yellow","[""blue"",""yellow"",""high nameability""]","left-right","[""blue"",""yellow"",""high nameability""]","1","high nameability","3","left","iti",""
"html-button-response","33","41541","0.0-26.0","CAN_118","118","","","","","","558","","0","turquoise","pink","[""turquoise"",""pink"",""low nameability""]","left-right","[""turquoise"",""pink"",""low nameability""]","1","low nameability","4","left","trigger",""
"html-button-response","34","42192","0.0-27.0-0.0","CAN_118","118","","","","","","641","<button class=""jspsych-btn""><img src=""stimuli/turquoise.png"" style=""width: 200px;height: 200px;""></button>","0","turquoise","pink","[""turquoise"",""pink"",""low nameability""]","left-right","[""turquoise"",""pink"",""low nameability""]","1","low nameability","4","left","response","1"
"html-audio-button-response","35","42395","0.0-27.0-1.0","CAN_118","118","","","","","","null","stimuli/bleep.m4a","null","turquoise","pink","[""turquoise"",""pink"",""low nameability""]","left-right","[""turquoise"",""pink"",""low nameability""]","1","low nameability","4","left","audio_feedback","1"
"html-button-response","36","42915","0.0-28.0","CAN_118","118","","","","","","null","<button class=""jspsych-btn""><img src=""stimuli/white_square.png"" style=""width: 200px;height: 200px;""></button>","null","turquoise","pink","[""turquoise"",""pink"",""low nameability""]","left-right","[""turquoise"",""pink"",""low nameability""]","1","low nameability","4","left","iti",""
"html-button-response","37","43497","0.0-29.0","CAN_118","118","","","","","","562","","0","blue","purple","[""blue"",""purple"",""high nameability""]","right-left","[""purple"",""blue""]","1","high nameability","5","right","trigger",""
"html-button-response","38","44079","0.0-30.0-0.0","CAN_118","118","","","","","","574","<button class=""jspsych-btn""><img src=""stimuli/blue.png"" style=""width: 200px;height: 200px;""></button>","1","blue","purple","[""blue"",""purple"",""high nameability""]","right-left","[""purple"",""blue""]","1","high nameability","5","right","response","1"
"html-audio-button-response","39","44283","0.0-30.0-1.0","CAN_118","118","","","","","","null","stimuli/bleep.m4a","null","blue","purple","[""blue"",""purple"",""high nameability""]","right-left","[""purple"",""blue""]","1","high nameability","5","right","audio_feedback","1"
"html-button-response","40","44814","0.0-31.0","CAN_118","118","","","","","","null","<button class=""jspsych-btn""><img src=""stimuli/white_square.png"" style=""width: 200px;height: 200px;""></button>","null","blue","purple","[""blue"",""purple"",""high nameability""]","right-left","[""purple"",""blue""]","1","high nameability","5","right","iti",""
"html-button-response","41","45448","0.0-32.0","CAN_118","118","","","","","","609","","0","pink","mustard","[""pink"",""mustard"",""low nameability""]","right-left","[""mustard"",""pink""]","1","low nameability","6","right","trigger",""
"html-button-response","42","46052","0.0-33.0-0.0","CAN_118","118","","","","","","596","<button class=""jspsych-btn""><img src=""stimuli/pink.png"" style=""width: 200px;height: 200px;""></button>","1","pink","mustard","[""pink"",""mustard"",""low nameability""]","right-left","[""mustard"",""pink""]","1","low nameability","6","right","response","1"
"html-audio-button-response","43","46256","0.0-33.0-1.0","CAN_118","118","","","","","","null","stimuli/bleep.m4a","null","pink","mustard","[""pink"",""mustard"",""low nameability""]","right-left","[""mustard"",""pink""]","1","low nameability","6","right","audio_feedback","1"
"html-button-response","44","46779","0.0-34.0","CAN_118","118","","","","","","null","<button class=""jspsych-btn""><img src=""stimuli/white_square.png"" style=""width: 200px;height: 200px;""></button>","null","pink","mustard","[""pink"",""mustard"",""low nameability""]","right-left","[""mustard"",""pink""]","1","low nameability","6","right","iti",""
"html-button-response","45","47437","0.0-35.0","CAN_118","118","","","","","","637","","0","turquoise","lightred","[""turquoise"",""lightred"",""low nameability""]","right-left","[""lightred"",""turquoise""]","1","low nameability","7","right","trigger",""
"html-button-response","46","48003","0.0-36.0-0.0","CAN_118","118","","","","","","558","<button class=""jspsych-btn""><img src=""stimuli/turquoise.png"" style=""width: 200px;height: 200px;""></button>","1","turquoise","lightred","[""turquoise"",""lightred"",""low nameability""]","right-left","[""lightred"",""turquoise""]","1","low nameability","7","right","response","1"
"html-audio-button-response","47","48223","0.0-36.0-1.0","CAN_118","118","","","","","","null","stimuli/bleep.m4a","null","turquoise","lightred","[""turquoise"",""lightred"",""low nameability""]","right-left","[""lightred"",""turquoise""]","1","low nameability","7","right","audio_feedback","1"
"html-button-response","48","48755","0.0-37.0","CAN_118","118","","","","","","null","<button class=""jspsych-btn""><img src=""stimuli/white_square.png"" style=""width: 200px;height: 200px;""></button>","null","turquoise","lightred","[""turquoise"",""lightred"",""low nameability""]","right-left","[""lightred"",""turquoise""]","1","low nameability","7","right","iti",""
"html-button-response","49","49479","0.0-38.0","CAN_118","118","","","","","","695","","0","yellow","blue","[""yellow"",""blue"",""high nameability""]","left-right","[""yellow"",""blue"",""high nameability""]","1","high nameability","8","left","trigger",""
"html-button-response","50","50180","0.0-39.0-0.0","CAN_118","118","","","","","","687","<button class=""jspsych-btn""><img src=""stimuli/yellow.png"" style=""width: 200px;height: 200px;""></button>","0","yellow","blue","[""yellow"",""blue"",""high nameability""]","left-right","[""yellow"",""blue"",""high nameability""]","1","high nameability","8","left","response","1"
"html-audio-button-response","51","50389","0.0-39.0-1.0","CAN_118","118","","","","","","null","stimuli/bleep.m4a","null","yellow","blue","[""yellow"",""blue"",""high nameability""]","left-right","[""yellow"",""blue"",""high nameability""]","1","high nameability","8","left","audio_feedback","1"
"html-button-response","52","50918","0.0-40.0","CAN_118","118","","","","","","null","<button class=""jspsych-btn""><img src=""stimuli/white_square.png"" style=""width: 200px;height: 200px;""></button>","null","yellow","blue","[""yellow"",""blue"",""high nameability""]","left-right","[""yellow"",""blue"",""high nameability""]","1","high nameability","8","left","iti",""
"html-button-response","53","51652","0.0-41.0","CAN_118","118","","","","","","705","","0","red","blue","[""red"",""blue"",""high nameability""]","right-left","[""blue"",""red""]","1","high nameability","9","right","trigger",""
"html-button-response","54","52297","0.0-42.0-0.0","CAN_118","118","","","","","","637","<button class=""jspsych-btn""><img src=""stimuli/red.png"" style=""width: 200px;height: 200px;""></button>","1","red","blue","[""red"",""blue"",""high nameability""]","right-left","[""blue"",""red""]","1","high nameability","9","right","response","1"
"html-audio-button-response","55","52506","0.0-42.0-1.0","CAN_118","118","","","","","","null","stimuli/bleep.m4a","null","red","blue","[""red"",""blue"",""high nameability""]","right-left","[""blue"",""red""]","1","high nameability","9","right","audio_feedback","1"
"html-button-response","56","53028","0.0-43.0","CAN_118","118","","","","","","null","<button class=""jspsych-btn""><img src=""stimuli/white_square.png"" style=""width: 200px;height: 200px;""></button>","null","red","blue","[""red"",""blue"",""high nameability""]","right-left","[""blue"",""red""]","1","high nameability","9","right","iti",""
"html-button-response","57","53681","0.0-44.0","CAN_118","118","","","","","","631","","0","blue","orange","[""blue"",""orange"",""high nameability""]","right-left","[""orange"",""blue""]","1","high nameability","10","right","trigger",""
"html-button-response","58","54378","0.0-45.0-0.0","CAN_118","118","","","","","","687","<button class=""jspsych-btn""><img src=""stimuli/blue.png"" style=""width: 200px;height: 200px;""></button>","1","blue","orange","[""blue"",""orange"",""high nameability""]","right-left","[""orange"",""blue""]","1","high nameability","10","right","response","1"
"html-audio-button-response","59","54586","0.0-45.0-1.0","CAN_118","118","","","","","","null","stimuli/bleep.m4a","null","blue","orange","[""blue"",""orange"",""high nameability""]","right-left","[""orange"",""blue""]","1","high nameability","10","right","audio_feedback","1"
"html-button-response","60","55107","0.0-46.0","CAN_118","118","","","","","","null","<button class=""jspsych-btn""><img src=""stimuli/white_square.png"" style=""width: 200px;height: 200px;""></button>","null","blue","orange","[""blue"",""orange"",""high nameability""]","right-left","[""orange"",""blue""]","1","high nameability","10","right","iti",""
"pavlovia","61","55209","0.0-47.0","CAN_118","118","","","","","","","","","","","","","","","","","","",""
"pavlovia","62","55223","0.0-48.0","CAN_118","118","","","","","","","","","","","","","","","","","","",""
"html-audio-button-response","63","56893","0.0-49.0","CAN_118","118","","","","","","1787","stimuli/tada.m4a","0","","","","","","","","","","",""
"html-button-response","64","57408","0.0-50.0","CAN_118","118","","","","","","509","","0","","","","","","","","","","",""
"html-button-response","65","58616","0.0-51.0","CAN_118","118","","","","","","1198","","0","darkgreenblue","mustard","[""darkgreenblue"",""mustard"",""low nameability""]","left-right","[""darkgreenblue"",""mustard"",""low nameability""]","2","low nameability","11","left","trigger",""
"html-button-response","66","59302","0.0-52.0-0.0","CAN_118","118","","","","","","673","<button class=""jspsych-btn""><img src=""stimuli/darkgreenblue.png"" style=""width: 200px;height: 200px;""></button>","0","darkgreenblue","mustard","[""darkgreenblue"",""mustard"",""low nameability""]","left-right","[""darkgreenblue"",""mustard"",""low nameability""]","2","low nameability","11","left","response","1"
"html-audio-button-response","67","59507","0.0-52.0-1.0","CAN_118","118","","","","","","null","stimuli/bleep.m4a","null","darkgreenblue","mustard","[""darkgreenblue"",""mustard"",""low nameability""]","left-right","[""darkgreenblue"",""mustard"",""low nameability""]","2","low nameability","11","left","audio_feedback","1"
"html-button-response","68","60026","0.0-53.0","CAN_118","118","","","","","","null","<button class=""jspsych-btn""><img src=""stimuli/white_square.png"" style=""width: 200px;height: 200px;""></button>","null","darkgreenblue","mustard","[""darkgreenblue"",""mustard"",""low nameability""]","left-right","[""darkgreenblue"",""mustard"",""low nameability""]","2","low nameability","11","left","iti",""
"html-button-response","69","60722","0.0-54.0","CAN_118","118","","","","","","677","","0","neonyellow","darkgreenblue","[""neonyellow"",""darkgreenblue"",""low nameability""]","left-right","[""neonyellow"",""darkgreenblue"",""low nameability""]","2","low nameability","12","left","trigger",""
"html-button-response","70","61398","0.0-55.0-0.0","CAN_118","118","","","","","","667","<button class=""jspsych-btn""><img src=""stimuli/neonyellow.png"" style=""width: 200px;height: 200px;""></button>","0","neonyellow","darkgreenblue","[""neonyellow"",""darkgreenblue"",""low nameability""]","left-right","[""neonyellow"",""darkgreenblue"",""low nameability""]","2","low nameability","12","left","response","1"
"html-audio-button-response","71","61602","0.0-55.0-1.0","CAN_118","118","","","","","","null","stimuli/bleep.m4a","null","neonyellow","darkgreenblue","[""neonyellow"",""darkgreenblue"",""low nameability""]","left-right","[""neonyellow"",""darkgreenblue"",""low nameability""]","2","low nameability","12","left","audio_feedback","1"
"html-button-response","72","62122","0.0-56.0","CAN_118","118","","","","","","null","<button class=""jspsych-btn""><img src=""stimuli/white_square.png"" style=""width: 200px;height: 200px;""></button>","null","neonyellow","darkgreenblue","[""neonyellow"",""darkgreenblue"",""low nameability""]","left-right","[""neonyellow"",""darkgreenblue"",""low nameability""]","2","low nameability","12","left","iti",""
"html-button-response","73","62902","0.0-57.0","CAN_118","118","","","","","","759","","0","mustard","lightred","[""mustard"",""lightred"",""low nameability""]","right-left","[""lightred"",""mustard""]","2","low nameability","13","right","trigger",""
"html-button-response","74","63501","0.0-58.0-0.0","CAN_118","118","","","","","","590","<button class=""jspsych-btn""><img src=""stimuli/mustard.png"" style=""width: 200px;height: 200px;""></button>","1","mustard","lightred","[""mustard"",""lightred"",""low nameability""]","right-left","[""lightred"",""mustard""]","2","low nameability","13","right","response","1"
"html-audio-button-response","75","63707","0.0-58.0-1.0","CAN_118","118","","","","","","null","stimuli/bleep.m4a","null","mustard","lightred","[""mustard"",""lightred"",""low nameability""]","right-left","[""lightred"",""mustard""]","2","low nameability","13","right","audio_feedback","1"
"html-button-response","76","64231","0.0-59.0","CAN_118","118","","","","","","null","<button class=""jspsych-btn""><img src=""stimuli/white_square.png"" style=""width: 200px;height: 200px;""></button>","null","mustard","lightred","[""mustard"",""lightred"",""low nameability""]","right-left","[""lightred"",""mustard""]","2","low nameability","13","right","iti",""
"html-button-response","77","64964","0.0-60.0","CAN_118","118","","","","","","707","","0","neonyellow","turquoise","[""neonyellow"",""turquoise"",""low nameability""]","left-right","[""neonyellow"",""turquoise"",""low nameability""]","2","low nameability","14","left","trigger",""
"html-button-response","78","65620","0.0-61.0-0.0","CAN_118","118","","","","","","644","<button class=""jspsych-btn""><img src=""stimuli/neonyellow.png"" style=""width: 200px;height: 200px;""></button>","0","neonyellow","turquoise","[""neonyellow"",""turquoise"",""low nameability""]","left-right","[""neonyellow"",""turquoise"",""low nameability""]","2","low nameability","14","left","response","1"
"html-audio-button-response","79","65831","0.0-61.0-1.0","CAN_118","118","","","","","","null","stimuli/bleep.m4a","null","neonyellow","turquoise","[""neonyellow"",""turquoise"",""low nameability""]","left-right","[""neonyellow"",""turquoise"",""low nameability""]","2","low nameability","14","left","audio_feedback","1"
"html-button-response","80","66351","0.0-62.0","CAN_118","118","","","","","","null","<button class=""jspsych-btn""><img src=""stimuli/white_square.png"" style=""width: 200px;height: 200px;""></button>","null","neonyellow","turquoise","[""neonyellow"",""turquoise"",""low nameability""]","left-right","[""neonyellow"",""turquoise"",""low nameability""]","2","low nameability","14","left","iti",""
"html-button-response","81","66975","0.0-63.0","CAN_118","118","","","","","","604","","0","orange","blue","[""orange"",""blue"",""high nameability""]","left-right","[""orange"",""blue"",""high nameability""]","2","high nameability","15","left","trigger",""
"html-button-response","82","67642","0.0-64.0-0.0","CAN_118","118","","","","","","658","<button class=""jspsych-btn""><img src=""stimuli/orange.png"" style=""width: 200px;height: 200px;""></button>","0","orange","blue","[""orange"",""blue"",""high nameability""]","left-right","[""orange"",""blue"",""high nameability""]","2","high nameability","15","left","response","1"
"html-audio-button-response","83","67848","0.0-64.0-1.0","CAN_118","118","","","","","","null","stimuli/bleep.m4a","null","orange","blue","[""orange"",""blue"",""high nameability""]","left-right","[""orange"",""blue"",""high nameability""]","2","high nameability","15","left","audio_feedback","1"
"html-button-response","84","68370","0.0-65.0","CAN_118","118","","","","","","null","<button class=""jspsych-btn""><img src=""stimuli/white_square.png"" style=""width: 200px;height: 200px;""></button>","null","orange","blue","[""orange"",""blue"",""high nameability""]","left-right","[""orange"",""blue"",""high nameability""]","2","high nameability","15","left","iti",""
"html-button-response","85","69038","0.0-66.0","CAN_118","118","","","","","","646","","0","red","orange","[""red"",""orange"",""high nameability""]","right-left","[""orange"",""red""]","2","high nameability","16","right","trigger",""
"html-button-response","86","69697","0.0-67.0-0.0","CAN_118","118","","","","","","652","<button class=""jspsych-btn""><img src=""stimuli/red.png"" style=""width: 200px;height: 200px;""></button>","1","red","orange","[""red"",""orange"",""high nameability""]","right-left","[""orange"",""red""]","2","high nameability","16","right","response","1"
"html-audio-button-response","87","69903","0.0-67.0-1.0","CAN_118","118","","","","","","null","stimuli/bleep.m4a","null","red","orange","[""red"",""orange"",""high nameability""]","right-left","[""orange"",""red""]","2","high nameability","16","right","audio_feedback","1"
"html-button-response","88","70421","0.0-68.0","CAN_118","118","","","","","","null","<button class=""jspsych-btn""><img src=""stimuli/white_square.png"" style=""width: 200px;height: 200px;""></button>","null","red","orange","[""red"",""orange"",""high nameability""]","right-left","[""orange"",""red""]","2","high nameability","16","right","iti",""
"html-button-response","89","71778","0.0-69.0","CAN_118","118","","","","","","1334","","0","red","brown","[""red"",""brown"",""high nameability""]","right-left","[""brown"",""red""]","2","high nameability","17","right","trigger",""
"html-button-response","90","72333","0.0-70.0-0.0","CAN_118","118","","","","","","546","<button class=""jspsych-btn""><img src=""stimuli/red.png"" style=""width: 200px;height: 200px;""></button>","1","red","brown","[""red"",""brown"",""high nameability""]","right-left","[""brown"",""red""]","2","high nameability","17","right","response","1"
"html-audio-button-response","91","72538","0.0-70.0-1.0","CAN_118","118","","","","","","null","stimuli/bleep.m4a","null","red","brown","[""red"",""brown"",""high nameability""]","right-left","[""brown"",""red""]","2","high nameability","17","right","audio_feedback","1"
"html-button-response","92","73062","0.0-71.0","CAN_118","118","","","","","","null","<button class=""jspsych-btn""><img src=""stimuli/white_square.png"" style=""width: 200px;height: 200px;""></button>","null","red","brown","[""red"",""brown"",""high nameability""]","right-left","[""brown"",""red""]","2","high nameability","17","right","iti",""
"html-button-response","93","73737","0.0-72.0","CAN_118","118","","","","","","649","","0","purple","brown","[""purple"",""brown"",""high nameability""]","right-left","[""brown"",""purple""]","2","high nameability","18","right","trigger",""
"html-button-response","94","74302","0.0-73.0-0.0","CAN_118","118","","","","","","557","<button class=""jspsych-btn""><img src=""stimuli/purple.png"" style=""width: 200px;height: 200px;""></button>","1","purple","brown","[""purple"",""brown"",""high nameability""]","right-left","[""brown"",""purple""]","2","high nameability","18","right","response","1"
"html-audio-button-response","95","74511","0.0-73.0-1.0","CAN_118","118","","","","","","null","stimuli/bleep.m4a","null","purple","brown","[""purple"",""brown"",""high nameability""]","right-left","[""brown"",""purple""]","2","high nameability","18","right","audio_feedback","1"
"html-button-response","96","75028","0.0-74.0","CAN_118","118","","","","","","null","<button class=""jspsych-btn""><img src=""stimuli/white_square.png"" style=""width: 200px;height: 200px;""></button>","null","purple","brown","[""purple"",""brown"",""high nameability""]","right-left","[""brown"",""purple""]","2","high nameability","18","right","iti",""
"html-button-response","97","75589","0.0-75.0","CAN_118","118","","","","","","541","","0","brown","purple","[""brown"",""purple"",""high nameability""]","left-right","[""brown"",""purple"",""high nameability""]","2","high nameability","19","left","trigger",""
"html-button-response","98","76300","0.0-76.0-0.0","CAN_118","118","","","","","","701","<button class=""jspsych-btn""><img src=""stimuli/brown.png"" style=""width: 200px;height: 200px;""></button>","0","brown","purple","[""brown"",""purple"",""high nameability""]","left-right","[""brown"",""purple"",""high nameability""]","2","high nameability","19","left","response","1"
"html-audio-button-response","99","76502","0.0-76.0-1.0","CAN_118","118","","","","","","null","stimuli/bleep.m4a","null","brown","purple","[""brown"",""purple"",""high nameability""]","left-right","[""brown"",""purple"",""high nameability""]","2","high nameability","19","left","audio_feedback","1"
"html-button-response","100","77019","0.0-77.0","CAN_118","118","","","","","","null","<button class=""jspsych-btn""><img src=""stimuli/white_square.png"" style=""width: 200px;height: 200px;""></button>","null","brown","purple","[""brown"",""purple"",""high nameability""]","left-right","[""brown"",""purple"",""high nameability""]","2","high nameability","19","left","iti",""
"html-button-response","101","77583","0.0-78.0","CAN_118","118","","","","","","542","","0","turquoise","darkgreenblue","[""turquoise"",""darkgreenblue"",""low nameability""]","left-right","[""turquoise"",""darkgreenblue"",""low nameability""]","2","low nameability","20","left","trigger",""
"html-button-response","102","78247","0.0-79.0-0.0","CAN_118","118","","","","","","655","<button class=""jspsych-btn""><img src=""stimuli/turquoise.png"" style=""width: 200px;height: 200px;""></button>","0","turquoise","darkgreenblue","[""turquoise"",""darkgreenblue"",""low nameability""]","left-right","[""turquoise"",""darkgreenblue"",""low nameability""]","2","low nameability","20","left","response","1"
"html-audio-button-response","103","78451","0.0-79.0-1.0","CAN_118","118","","","","","","null","stimuli/bleep.m4a","null","turquoise","darkgreenblue","[""turquoise"",""darkgreenblue"",""low nameability""]","left-right","[""turquoise"",""darkgreenblue"",""low nameability""]","2","low nameability","20","left","audio_feedback","1"
"html-button-response","104","78971","0.0-80.0","CAN_118","118","","","","","","null","<button class=""jspsych-btn""><img src=""stimuli/white_square.png"" style=""width: 200px;height: 200px;""></button>","null","turquoise","darkgreenblue","[""turquoise"",""darkgreenblue"",""low nameability""]","left-right","[""turquoise"",""darkgreenblue"",""low nameability""]","2","low nameability","20","left","iti",""
"pavlovia","105","79029","0.0-81.0","CAN_118","118","","","","","","","","","","","","","","","","","","",""
"pavlovia","106","79045","0.0-82.0","CAN_118","118","","","","","","","","","","","","","","","","","","",""
"html-audio-button-response","107","80627","0.0-83.0","CAN_118","118","","","","","","1656","stimuli/tada.m4a","0","","","","","","","","","","",""
"html-button-response","108","81222","0.0-84.0","CAN_118","118","","","","","","589","","0","","","","","","","","","","",""
"html-button-response","109","82093","0.0-85.0","CAN_118","118","","","","","","860","","0","lightred","pink","[""lightred"",""pink"",""low nameability""]","right-left","[""pink"",""lightred""]","3","low nameability","21","right","trigger",""
"html-button-response","110","82720","0.0-86.0-0.0","CAN_118","118","","","","","","619","<button class=""jspsych-btn""><img src=""stimuli/lightred.png"" style=""width: 200px;height: 200px;""></button>","1","lightred","pink","[""lightred"",""pink"",""low nameability""]","right-left","[""pink"",""lightred""]","3","low nameability","21","right","response","1"
"html-audio-button-response","111","82928","0.0-86.0-1.0","CAN_118","118","","","","","","null","stimuli/bleep.m4a","null","lightred","pink","[""lightred"",""pink"",""low nameability""]","right-left","[""pink"",""lightred""]","3","low nameability","21","right","audio_feedback","1"
"html-button-response","112","83455","0.0-87.0","CAN_118","118","","","","","","null","<button class=""jspsych-btn""><img src=""stimuli/white_square.png"" style=""width: 200px;height: 200px;""></button>","null","lightred","pink","[""lightred"",""pink"",""low nameability""]","right-left","[""pink"",""lightred""]","3","low nameability","21","right","iti",""
"html-button-response","113","84073","0.0-88.0","CAN_118","118","","","","","","596","","0","lightred","neonyellow","[""lightred"",""neonyellow"",""low nameability""]","left-right","[""lightred"",""neonyellow"",""low nameability""]","3","low nameability","22","left","trigger",""
"html-button-response","114","84698","0.0-89.0-0.0","CAN_118","118","","","","","","618","<button class=""jspsych-btn""><img src=""stimuli/lightred.png"" style=""width: 200px;height: 200px;""></button>","0","lightred","neonyellow","[""lightred"",""neonyellow"",""low nameability""]","left-right","[""lightred"",""neonyellow"",""low nameability""]","3","low nameability","22","left","response","1"
"html-audio-button-response","115","84902","0.0-89.0-1.0","CAN_118","118","","","","","","null","stimuli/bleep.m4a","null","lightred","neonyellow","[""lightred"",""neonyellow"",""low nameability""]","left-right","[""lightred"",""neonyellow"",""low nameability""]","3","low nameability","22","left","audio_feedback","1"
"html-button-response","116","85418","0.0-90.0","CAN_118","118","","","","","","null","<button class=""jspsych-btn""><img src=""stimuli/white_square.png"" style=""width: 200px;height: 200px;""></button>","null","lightred","neonyellow","[""lightred"",""neonyellow"",""low nameability""]","left-right","[""lightred"",""neonyellow"",""low nameability""]","3","low nameability","22","left","iti",""
"html-button-response","117","86056","0.0-91.0","CAN_118","118","","","","","","618","","0","turquoise","neonyellow","[""turquoise"",""neonyellow"",""low nameability""]","left-right","[""turquoise"",""neonyellow"",""low nameability""]","3","low nameability","23","left","trigger",""
"html-button-response","118","86759","0.0-92.0-0.0","CAN_118","118","","","","","","694","<button class=""jspsych-btn""><img src=""stimuli/turquoise.png"" style=""width: 200px;height: 200px;""></button>","0","turquoise","neonyellow","[""turquoise"",""neonyellow"",""low nameability""]","left-right","[""turquoise"",""neonyellow"",""low nameability""]","3","low nameability","23","left","response","1"
"html-audio-button-response","119","86967","0.0-92.0-1.0","CAN_118","118","","","","","","null","stimuli/bleep.m4a","null","turquoise","neonyellow","[""turquoise"",""neonyellow"",""low nameability""]","left-right","[""turquoise"",""neonyellow"",""low nameability""]","3","low nameability","23","left","audio_feedback","1"
"html-button-response","120","87483","0.0-93.0","CAN_118","118","","","","","","null","<button class=""jspsych-btn""><img src=""stimuli/white_square.png"" style=""width: 200px;height: 200px;""></button>","null","turquoise","neonyellow","[""turquoise"",""neonyellow"",""low nameability""]","left-right","[""turquoise"",""neonyellow"",""low nameability""]","3","low nameability","23","left","iti",""
"html-button-response","121","88083","0.0-94.0","CAN_118","118","","","","","","579","","0","red","yellow","[""red"",""yellow"",""high nameability""]","left-right","[""red"",""yellow"",""high nameability""]","3","high nameability","24","left","trigger",""
"html-button-response","122","88717","0.0-95.0-0.0","CAN_118","118","","","","","","625","<button class=""jspsych-btn""><img src=""stimuli/red.png"" style=""width: 200px;height: 200px;""></button>","0","red","yellow","[""red"",""yellow"",""high nameability""]","left-right","[""red"",""yellow"",""high nameability""]","3","high nameability","24","left","response","1"
"html-audio-button-response","123","88923","0.0-95.0-1.0","CAN_118","118","","","","","","null","stimuli/bleep.m4a","null","red","yellow","[""red"",""yellow"",""high nameability""]","left-right","[""red"",""yellow"",""high nameability""]","3","high nameability","24","left","audio_feedback","1"
"html-button-response","124","89441","0.0-96.0","CAN_118","118","","","","","","null","<button class=""jspsych-btn""><img src=""stimuli/white_square.png"" style=""width: 200px;height: 200px;""></button>","null","red","yellow","[""red"",""yellow"",""high nameability""]","left-right","[""red"",""yellow"",""high nameability""]","3","high nameability","24","left","iti",""
"html-button-response","125","90084","0.0-97.0","CAN_118","118","","","","","","624","","0","mustard","neonyellow","[""mustard"",""neonyellow"",""low nameability""]","right-left","[""neonyellow"",""mustard""]","3","low nameability","25","right","trigger",""
"html-button-response","126","90769","0.0-98.0-0.0","CAN_118","118","","","","","","678","<button class=""jspsych-btn""><img src=""stimuli/mustard.png"" style=""width: 200px;height: 200px;""></button>","1","mustard","neonyellow","[""mustard"",""neonyellow"",""low nameability""]","right-left","[""neonyellow"",""mustard""]","3","low nameability","25","right","response","1"
"html-audio-button-response","127","90971","0.0-98.0-1.0","CAN_118","118","","","","","","null","stimuli/bleep.m4a","null","mustard","neonyellow","[""mustard"",""neonyellow"",""low nameability""]","right-left","[""neonyellow"",""mustard""]","3","low nameability","25","right","audio_feedback","1"
"html-button-response","128","91489","0.0-99.0","CAN_118","118","","","","","","null","<button class=""jspsych-btn""><img src=""stimuli/white_square.png"" style=""width: 200px;height: 200px;""></button>","null","mustard","neonyellow","[""mustard"",""neonyellow"",""low nameability""]","right-left","[""neonyellow"",""mustard""]","3","low nameability","25","right","iti",""
"html-button-response","129","92161","0.0-100.0","CAN_118","118","","","","","","654","","0","mustard","darkgreenblue","[""mustard"",""darkgreenblue"",""low nameability""]","left-right","[""mustard"",""darkgreenblue"",""low nameability""]","3","low nameability","26","left","trigger",""
"html-button-response","130","92866","0.0-101.0-0.0","CAN_118","118","","","","","","696","<button class=""jspsych-btn""><img src=""stimuli/mustard.png"" style=""width: 200px;height: 200px;""></button>","0","mustard","darkgreenblue","[""mustard"",""darkgreenblue"",""low nameability""]","left-right","[""mustard"",""darkgreenblue"",""low nameability""]","3","low nameability","26","left","response","1"
"html-audio-button-response","131","93069","0.0-101.0-1.0","CAN_118","118","","","","","","null","stimuli/bleep.m4a","null","mustard","darkgreenblue","[""mustard"",""darkgreenblue"",""low nameability""]","left-right","[""mustard"",""darkgreenblue"",""low nameability""]","3","low nameability","26","left","audio_feedback","1"
"html-button-response","132","93579","0.0-102.0","CAN_118","118","","","","","","null","<button class=""jspsych-btn""><img src=""stimuli/white_square.png"" style=""width: 200px;height: 200px;""></button>","null","mustard","darkgreenblue","[""mustard"",""darkgreenblue"",""low nameability""]","left-right","[""mustard"",""darkgreenblue"",""low nameability""]","3","low nameability","26","left","iti",""
"html-button-response","133","94168","0.0-103.0","CAN_118","118","","","","","","573","","0","brown","red","[""brown"",""red"",""high nameability""]","left-right","[""brown"",""red"",""high nameability""]","3","high nameability","27","left","trigger",""
"html-button-response","134","94941","0.0-104.0-0.0","CAN_118","118","","","","","","764","<button class=""jspsych-btn""><img src=""stimuli/brown.png"" style=""width: 200px;height: 200px;""></button>","0","brown","red","[""brown"",""red"",""high nameability""]","left-right","[""brown"",""red"",""high nameability""]","3","high nameability","27","left","response","1"
"html-audio-button-response","135","95146","0.0-104.0-1.0","CAN_118","118","","","","","","null","stimuli/bleep.m4a","null","brown","red","[""brown"",""red"",""high nameability""]","left-right","[""brown"",""red"",""high nameability""]","3","high nameability","27","left","audio_feedback","1"
"html-button-response","136","95668","0.0-105.0","CAN_118","118","","","","","","null","<button class=""jspsych-btn""><img src=""stimuli/white_square.png"" style=""width: 200px;height: 200px;""></button>","null","brown","red","[""brown"",""red"",""high nameability""]","left-right","[""brown"",""red"",""high nameability""]","3","high nameability","27","left","iti",""
"html-button-response","137","96313","0.0-106.0","CAN_118","118","","","","","","622","","0","lightred","mustard","[""lightred"",""mustard"",""low nameability""]","right-left","[""mustard"",""lightred""]","3","low nameability","28","right","trigger",""
"html-button-response","138","96913","0.0-107.0-0.0","CAN_118","118","","","","","","592","<button class=""jspsych-btn""><img src=""stimuli/lightred.png"" style=""width: 200px;height: 200px;""></button>","1","lightred","mustard","[""lightred"",""mustard"",""low nameability""]","right-left","[""mustard"",""lightred""]","3","low nameability","28","right","response","1"
"html-audio-button-response","139","97115","0.0-107.0-1.0","CAN_118","118","","","","","","null","stimuli/bleep.m4a","null","lightred","mustard","[""lightred"",""mustard"",""low nameability""]","right-left","[""mustard"",""lightred""]","3","low nameability","28","right","audio_feedback","1"
"html-button-response","140","97634","0.0-108.0","CAN_118","118","","","","","","null","<button class=""jspsych-btn""><img src=""stimuli/white_square.png"" style=""width: 200px;height: 200px;""></button>","null","lightred","mustard","[""lightred"",""mustard"",""low nameability""]","right-left","[""mustard"",""lightred""]","3","low nameability","28","right","iti",""
"html-button-response","141","98185","0.0-109.0","CAN_118","118","","","","","","534","","0","red","purple","[""red"",""purple"",""high nameability""]","right-left","[""purple"",""red""]","3","high nameability","29","right","trigger",""
"html-button-response","142","98808","0.0-110.0-0.0","CAN_118","118","","","","","","617","<button class=""jspsych-btn""><img src=""stimuli/red.png"" style=""width: 200px;height: 200px;""></button>","1","red","purple","[""red"",""purple"",""high nameability""]","right-left","[""purple"",""red""]","3","high nameability","29","right","response","1"
"html-audio-button-response","143","99010","0.0-110.0-1.0","CAN_118","118","","","","","","null","stimuli/bleep.m4a","null","red","purple","[""red"",""purple"",""high nameability""]","right-left","[""purple"",""red""]","3","high nameability","29","right","audio_feedback","1"
"html-button-response","144","99528","0.0-111.0","CAN_118","118","","","","","","null","<button class=""jspsych-btn""><img src=""stimuli/white_square.png"" style=""width: 200px;height: 200px;""></button>","null","red","purple","[""red"",""purple"",""high nameability""]","right-left","[""purple"",""red""]","3","high nameability","29","right","iti",""
"html-button-response","145","100098","0.0-112.0","CAN_118","118","","","","","","550","","0","purple","red","[""purple"",""red"",""high nameability""]","left-right","[""purple"",""red"",""high nameability""]","3","high nameability","30","left","trigger",""
"html-button-response","146","100767","0.0-113.0-0.0","CAN_118","118","","","","","","662","<button class=""jspsych-btn""><img src=""stimuli/purple.png"" style=""width: 200px;height: 200px;""></button>","0","purple","red","[""purple"",""red"",""high nameability""]","left-right","[""purple"",""red"",""high nameability""]","3","high nameability","30","left","response","1"
"html-audio-button-response","147","100971","0.0-113.0-1.0","CAN_118","118","","","","","","null","stimuli/bleep.m4a","null","purple","red","[""purple"",""red"",""high nameability""]","left-right","[""purple"",""red"",""high nameability""]","3","high nameability","30","left","audio_feedback","1"
"html-button-response","148","101493","0.0-114.0","CAN_118","118","","","","","","null","<button class=""jspsych-btn""><img src=""stimuli/white_square.png"" style=""width: 200px;height: 200px;""></button>","null","purple","red","[""purple"",""red"",""high nameability""]","left-right","[""purple"",""red"",""high nameability""]","3","high nameability","30","left","iti",""
"pavlovia","149","101577","0.0-115.0","CAN_118","118","","","","","","","","","","","","","","","","","","",""
"pavlovia","150","101584","0.0-116.0","CAN_118","118","","","","","","","","","","","","","","","","","","",""
"html-audio-button-response","151","103026","0.0-117.0","CAN_118","118","","","","","","1536","stimuli/tada.m4a","0","","","","","","","","","","",""
"html-button-response","152","103667","0.0-118.0","CAN_118","118","","","","","","634","","0","","","","","","","","","","",""
"html-button-response","153","104891","0.0-119.0","CAN_118","118","","","","","","1215","","0","orange","brown","[""orange"",""brown"",""high nameability""]","left-right","[""orange"",""brown"",""high nameability""]","4","high nameability","31","left","trigger",""
"html-button-response","154","105530","0.0-120.0-0.0","CAN_118","118","","","","","","632","<button class=""jspsych-btn""><img src=""stimuli/orange.png"" style=""width: 200px;height: 200px;""></button>","0","orange","brown","[""orange"",""brown"",""high nameability""]","left-right","[""orange"",""brown"",""high nameability""]","4","high nameability","31","left","response","1"
"html-audio-button-response","155","105735","0.0-120.0-1.0","CAN_118","118","","","","","","null","stimuli/bleep.m4a","null","orange","brown","[""orange"",""brown"",""high nameability""]","left-right","[""orange"",""brown"",""high nameability""]","4","high nameability","31","left","audio_feedback","1"
"html-button-response","156","106252","0.0-121.0","CAN_118","118","","","","","","null","<button class=""jspsych-btn""><img src=""stimuli/white_square.png"" style=""width: 200px;height: 200px;""></button>","null","orange","brown","[""orange"",""brown"",""high nameability""]","left-right","[""orange"",""brown"",""high nameability""]","4","high nameability","31","left","iti",""
"html-button-response","157","106788","0.0-122.0","CAN_118","118","","","","","","515","","0","lightred","turquoise","[""lightred"",""turquoise"",""low nameability""]","right-left","[""turquoise"",""lightred""]","4","low nameability","32","right","trigger",""
"html-button-response","158","107382","0.0-123.0-0.0","CAN_118","118","","","","","","584","<button class=""jspsych-btn""><img src=""stimuli/lightred.png"" style=""width: 200px;height: 200px;""></button>","1","lightred","turquoise","[""lightred"",""turquoise"",""low nameability""]","right-left","[""turquoise"",""lightred""]","4","low nameability","32","right","response","1"
"html-audio-button-response","159","107587","0.0-123.0-1.0","CAN_118","118","","","","","","null","stimuli/bleep.m4a","null","lightred","turquoise","[""lightred"",""turquoise"",""low nameability""]","right-left","[""turquoise"",""lightred""]","4","low nameability","32","right","audio_feedback","1"
"html-button-response","160","108132","0.0-124.0","CAN_118","118","","","","","","null","<button class=""jspsych-btn""><img src=""stimuli/white_square.png"" style=""width: 200px;height: 200px;""></button>","null","lightred","turquoise","[""lightred"",""turquoise"",""low nameability""]","right-left","[""turquoise"",""lightred""]","4","low nameability","32","right","iti",""
"html-button-response","161","108654","0.0-125.0","CAN_118","118","","","","","","504","","0","brown","orange","[""brown"",""orange"",""high nameability""]","left-right","[""brown"",""orange"",""high nameability""]","4","high nameability","33","left","trigger",""
"html-button-response","162","109359","0.0-126.0-0.0","CAN_118","118","","","","","","693","<button class=""jspsych-btn""><img src=""stimuli/brown.png"" style=""width: 200px;height: 200px;""></button>","0","brown","orange","[""brown"",""orange"",""high nameability""]","left-right","[""brown"",""orange"",""high nameability""]","4","high nameability","33","left","response","1"
"html-audio-button-response","163","109577","0.0-126.0-1.0","CAN_118","118","","","","","","null","stimuli/bleep.m4a","null","brown","orange","[""brown"",""orange"",""high nameability""]","left-right","[""brown"",""orange"",""high nameability""]","4","high nameability","33","left","audio_feedback","1"
"html-button-response","164","110119","0.0-127.0","CAN_118","118","","","","","","null","<button class=""jspsych-btn""><img src=""stimuli/white_square.png"" style=""width: 200px;height: 200px;""></button>","null","brown","orange","[""brown"",""orange"",""high nameability""]","left-right","[""brown"",""orange"",""high nameability""]","4","high nameability","33","left","iti",""
"html-button-response","165","110719","0.0-128.0","CAN_118","118","","","","","","571","","0","pink","turquoise","[""pink"",""turquoise"",""low nameability""]","right-left","[""turquoise"",""pink""]","4","low nameability","34","right","trigger",""
"html-button-response","166","111363","0.0-129.0-0.0","CAN_118","118","","","","","","631","<button class=""jspsych-btn""><img src=""stimuli/pink.png"" style=""width: 200px;height: 200px;""></button>","1","pink","turquoise","[""pink"",""turquoise"",""low nameability""]","right-left","[""turquoise"",""pink""]","4","low nameability","34","right","response","1"
"html-audio-button-response","167","111577","0.0-129.0-1.0","CAN_118","118","","","","","","null","stimuli/bleep.m4a","null","pink","turquoise","[""pink"",""turquoise"",""low nameability""]","right-left","[""turquoise"",""pink""]","4","low nameability","34","right","audio_feedback","1"
"html-button-response","168","112095","0.0-130.0","CAN_118","118","","","","","","null","<button class=""jspsych-btn""><img src=""stimuli/white_square.png"" style=""width: 200px;height: 200px;""></button>","null","pink","turquoise","[""pink"",""turquoise"",""low nameability""]","right-left","[""turquoise"",""pink""]","4","low nameability","34","right","iti",""
"html-button-response","169","112806","0.0-131.0","CAN_118","118","","","","","","677","","0","neonyellow","pink","[""neonyellow"",""pink"",""low nameability""]","right-left","[""pink"",""neonyellow""]","4","low nameability","35","right","trigger",""
"html-button-response","170","113358","0.0-132.0-0.0","CAN_118","118","","","","","","534","<button class=""jspsych-btn""><img src=""stimuli/neonyellow.png"" style=""width: 200px;height: 200px;""></button>","1","neonyellow","pink","[""neonyellow"",""pink"",""low nameability""]","right-left","[""pink"",""neonyellow""]","4","low nameability","35","right","response","1"
"html-audio-button-response","171","113575","0.0-132.0-1.0","CAN_118","118","","","","","","null","stimuli/bleep.m4a","null","neonyellow","pink","[""neonyellow"",""pink"",""low nameability""]","right-left","[""pink"",""neonyellow""]","4","low nameability","35","right","audio_feedback","1"
"html-button-response","172","114104","0.0-133.0","CAN_118","118","","","","","","null","<button class=""jspsych-btn""><img src=""stimuli/white_square.png"" style=""width: 200px;height: 200px;""></button>","null","neonyellow","pink","[""neonyellow"",""pink"",""low nameability""]","right-left","[""pink"",""neonyellow""]","4","low nameability","35","right","iti",""
"html-button-response","173","114667","0.0-134.0","CAN_118","118","","","","","","540","","0","mustard","turquoise","[""mustard"",""turquoise"",""low nameability""]","right-left","[""turquoise"",""mustard""]","4","low nameability","36","right","trigger",""
"html-button-response","174","115261","0.0-135.0-0.0","CAN_118","118","","","","","","579","<button class=""jspsych-btn""><img src=""stimuli/mustard.png"" style=""width: 200px;height: 200px;""></button>","1","mustard","turquoise","[""mustard"",""turquoise"",""low nameability""]","right-left","[""turquoise"",""mustard""]","4","low nameability","36","right","response","1"
"html-audio-button-response","175","115473","0.0-135.0-1.0","CAN_118","118","","","","","","null","stimuli/bleep.m4a","null","mustard","turquoise","[""mustard"",""turquoise"",""low nameability""]","right-left","[""turquoise"",""mustard""]","4","low nameability","36","right","audio_feedback","1"
"html-button-response","176","115992","0.0-136.0","CAN_118","118","","","","","","null","<button class=""jspsych-btn""><img src=""stimuli/white_square.png"" style=""width: 200px;height: 200px;""></button>","null","mustard","turquoise","[""mustard"",""turquoise"",""low nameability""]","right-left","[""turquoise"",""mustard""]","4","low nameability","36","right","iti",""
"html-button-response","177","116379","0.0-137.0","CAN_118","118","","","","","","362","","0","darkgreenblue","pink","[""darkgreenblue"",""pink"",""low nameability""]","right-left","[""pink"",""darkgreenblue""]","4","low nameability","37","right","trigger",""
"html-button-response","178","117046","0.0-138.0-0.0","CAN_118","118","","","","","","658","<button class=""jspsych-btn""><img src=""stimuli/darkgreenblue.png"" style=""width: 200px;height: 200px;""></button>","1","darkgreenblue","pink","[""darkgreenblue"",""pink"",""low nameability""]","right-left","[""pink"",""darkgreenblue""]","4","low nameability","37","right","response","1"
"html-audio-button-response","179","117253","0.0-138.0-1.0","CAN_118","118","","","","","","null","stimuli/bleep.m4a","null","darkgreenblue","pink","[""darkgreenblue"",""pink"",""low nameability""]","right-left","[""pink"",""darkgreenblue""]","4","low nameability","37","right","audio_feedback","1"
"html-button-response","180","117782","0.0-139.0","CAN_118","118","","","","","","null","<button class=""jspsych-btn""><img src=""stimuli/white_square.png"" style=""width: 200px;height: 200px;""></button>","null","darkgreenblue","pink","[""darkgreenblue"",""pink"",""low nameability""]","right-left","[""pink"",""darkgreenblue""]","4","low nameability","37","right","iti",""
"html-button-response","181","118323","0.0-140.0","CAN_118","118","","","","","","521","","0","yellow","brown","[""yellow"",""brown"",""high nameability""]","left-right","[""yellow"",""brown"",""high nameability""]","4","high nameability","38","left","trigger",""
"html-button-response","182","118965","0.0-141.0-0.0","CAN_118","118","","","","","","624","<button class=""jspsych-btn""><img src=""stimuli/yellow.png"" style=""width: 200px;height: 200px;""></button>","0","yellow","brown","[""yellow"",""brown"",""high nameability""]","left-right","[""yellow"",""brown"",""high nameability""]","4","high nameability","38","left","response","1"
"html-audio-button-response","183","119177","0.0-141.0-1.0","CAN_118","118","","","","","","null","stimuli/bleep.m4a","null","yellow","brown","[""yellow"",""brown"",""high nameability""]","left-right","[""yellow"",""brown"",""high nameability""]","4","high nameability","38","left","audio_feedback","1"
"html-button-response","184","119700","0.0-142.0","CAN_118","118","","","","","","null","<button class=""jspsych-btn""><img src=""stimuli/white_square.png"" style=""width: 200px;height: 200px;""></button>","null","yellow","brown","[""yellow"",""brown"",""high nameability""]","left-right","[""yellow"",""brown"",""high nameability""]","4","high nameability","38","left","iti",""
"html-button-response","185","120270","0.0-143.0","CAN_118","118","","","","","","547","","0","neonyellow","lightred","[""neonyellow"",""lightred"",""low nameability""]","right-left","[""lightred"",""neonyellow""]","4","low nameability","39","right","trigger",""
"html-button-response","186","120908","0.0-144.0-0.0","CAN_118","118","","","","","","628","<button class=""jspsych-btn""><img src=""stimuli/neonyellow.png"" style=""width: 200px;height: 200px;""></button>","1","neonyellow","lightred","[""neonyellow"",""lightred"",""low nameability""]","right-left","[""lightred"",""neonyellow""]","4","low nameability","39","right","response","1"
"html-audio-button-response","187","121114","0.0-144.0-1.0","CAN_118","118","","","","","","null","stimuli/bleep.m4a","null","neonyellow","lightred","[""neonyellow"",""lightred"",""low nameability""]","right-left","[""lightred"",""neonyellow""]","4","low nameability","39","right","audio_feedback","1"
"html-button-response","188","121639","0.0-145.0","CAN_118","118","","","","","","null","<button class=""jspsych-btn""><img src=""stimuli/white_square.png"" style=""width: 200px;height: 200px;""></button>","null","neonyellow","lightred","[""neonyellow"",""lightred"",""low nameability""]","right-left","[""lightred"",""neonyellow""]","4","low nameability","39","right","iti",""
"html-button-response","189","122281","0.0-146.0","CAN_118","118","","","","","","618","","0","mustard","pink","[""mustard"",""pink"",""low nameability""]","right-left","[""pink"",""mustard""]","4","low nameability","40","right","trigger",""
"html-button-response","190","122839","0.0-147.0-0.0","CAN_118","118","","","","","","548","<button class=""jspsych-btn""><img src=""stimuli/mustard.png"" style=""width: 200px;height: 200px;""></button>","1","mustard","pink","[""mustard"",""pink"",""low nameability""]","right-left","[""pink"",""mustard""]","4","low nameability","40","right","response","1"
"html-audio-button-response","191","123052","0.0-147.0-1.0","CAN_118","118","","","","","","null","stimuli/bleep.m4a","null","mustard","pink","[""mustard"",""pink"",""low nameability""]","right-left","[""pink"",""mustard""]","4","low nameability","40","right","audio_feedback","1"
"html-button-response","192","123584","0.0-148.0","CAN_118","118","","","","","","null","<button class=""jspsych-btn""><img src=""stimuli/white_square.png"" style=""width: 200px;height: 200px;""></button>","null","mustard","pink","[""mustard"",""pink"",""low nameability""]","right-left","[""pink"",""mustard""]","4","low nameability","40","right","iti",""
"pavlovia","193","123678","0.0-149.0","CAN_118","118","","","","","","","","","","","","","","","","","","",""
"pavlovia","194","123691","0.0-150.0","CAN_118","118","","","","","","","","","","","","","","","","","","",""
"html-audio-button-response","195","125871","0.0-151.0","CAN_118","118","","","","","","2283","stimuli/tada.m4a","0","","","","","","","","","","",""
"html-button-response","196","126485","0.0-152.0","CAN_118","118","","","","","","606","","0","","","","","","","","","","",""
"html-button-response","197","127709","0.0-153.0","CAN_118","118","","","","","","1217","","0","yellow","purple","[""yellow"",""purple"",""high nameability""]","right-left","[""purple"",""yellow""]","5","high nameability","41","right","trigger",""
"html-button-response","198","128269","0.0-154.0-0.0","CAN_118","118","","","","","","553","<button class=""jspsych-btn""><img src=""stimuli/yellow.png"" style=""width: 200px;height: 200px;""></button>","1","yellow","purple","[""yellow"",""purple"",""high nameability""]","right-left","[""purple"",""yellow""]","5","high nameability","41","right","response","1"
"html-audio-button-response","199","128474","0.0-154.0-1.0","CAN_118","118","","","","","","null","stimuli/bleep.m4a","null","yellow","purple","[""yellow"",""purple"",""high nameability""]","right-left","[""purple"",""yellow""]","5","high nameability","41","right","audio_feedback","1"
"html-button-response","200","129003","0.0-155.0","CAN_118","118","","","","","","null","<button class=""jspsych-btn""><img src=""stimuli/white_square.png"" style=""width: 200px;height: 200px;""></button>","null","yellow","purple","[""yellow"",""purple"",""high nameability""]","right-left","[""purple"",""yellow""]","5","high nameability","41","right","iti",""
"html-button-response","201","129576","0.0-156.0","CAN_118","118","","","","","","544","","0","neonyellow","mustard","[""neonyellow"",""mustard"",""low nameability""]","left-right","[""neonyellow"",""mustard"",""low nameability""]","5","low nameability","42","left","trigger",""
"html-button-response","202","130229","0.0-157.0-0.0","CAN_118","118","","","","","","644","<button class=""jspsych-btn""><img src=""stimuli/neonyellow.png"" style=""width: 200px;height: 200px;""></button>","0","neonyellow","mustard","[""neonyellow"",""mustard"",""low nameability""]","left-right","[""neonyellow"",""mustard"",""low nameability""]","5","low nameability","42","left","response","1"
"html-audio-button-response","203","130433","0.0-157.0-1.0","CAN_118","118","","","","","","null","stimuli/bleep.m4a","null","neonyellow","mustard","[""neonyellow"",""mustard"",""low nameability""]","left-right","[""neonyellow"",""mustard"",""low nameability""]","5","low nameability","42","left","audio_feedback","1"
"html-button-response","204","130945","0.0-158.0","CAN_118","118","","","","","","null","<button class=""jspsych-btn""><img src=""stimuli/white_square.png"" style=""width: 200px;height: 200px;""></button>","null","neonyellow","mustard","[""neonyellow"",""mustard"",""low nameability""]","left-right","[""neonyellow"",""mustard"",""low nameability""]","5","low nameability","42","left","iti",""
"html-button-response","205","131525","0.0-159.0","CAN_118","118","","","","","","563","","0","yellow","red","[""yellow"",""red"",""high nameability""]","left-right","[""yellow"",""red"",""high nameability""]","5","high nameability","43","left","trigger",""
"html-button-response","206","132116","0.0-160.0-0.0","CAN_118","118","","","","","","583","<button class=""jspsych-btn""><img src=""stimuli/yellow.png"" style=""width: 200px;height: 200px;""></button>","0","yellow","red","[""yellow"",""red"",""high nameability""]","left-right","[""yellow"",""red"",""high nameability""]","5","high nameability","43","left","response","1"
"html-audio-button-response","207","132323","0.0-160.0-1.0","CAN_118","118","","","","","","null","stimuli/bleep.m4a","null","yellow","red","[""yellow"",""red"",""high nameability""]","left-right","[""yellow"",""red"",""high nameability""]","5","high nameability","43","left","audio_feedback","1"
"html-button-response","208","132843","0.0-161.0","CAN_118","118","","","","","","null","<button class=""jspsych-btn""><img src=""stimuli/white_square.png"" style=""width: 200px;height: 200px;""></button>","null","yellow","red","[""yellow"",""red"",""high nameability""]","left-right","[""yellow"",""red"",""high nameability""]","5","high nameability","43","left","iti",""
"html-button-response","209","133485","0.0-162.0","CAN_118","118","","","","","","621","","0","orange","yellow","[""orange"",""yellow"",""high nameability""]","left-right","[""orange"",""yellow"",""high nameability""]","5","high nameability","44","left","trigger",""
"html-button-response","210","134209","0.0-163.0-0.0","CAN_118","118","","","","","","714","<button class=""jspsych-btn""><img src=""stimuli/orange.png"" style=""width: 200px;height: 200px;""></button>","0","orange","yellow","[""orange"",""yellow"",""high nameability""]","left-right","[""orange"",""yellow"",""high nameability""]","5","high nameability","44","left","response","1"
"html-audio-button-response","211","134415","0.0-163.0-1.0","CAN_118","118","","","","","","null","stimuli/bleep.m4a","null","orange","yellow","[""orange"",""yellow"",""high nameability""]","left-right","[""orange"",""yellow"",""high nameability""]","5","high nameability","44","left","audio_feedback","1"
"html-button-response","212","134936","0.0-164.0","CAN_118","118","","","","","","null","<button class=""jspsych-btn""><img src=""stimuli/white_square.png"" style=""width: 200px;height: 200px;""></button>","null","orange","yellow","[""orange"",""yellow"",""high nameability""]","left-right","[""orange"",""yellow"",""high nameability""]","5","high nameability","44","left","iti",""
"html-button-response","213","135602","0.0-165.0","CAN_118","118","","","","","","642","","0","blue","red","[""blue"",""red"",""high nameability""]","right-left","[""red"",""blue""]","5","high nameability","45","right","trigger",""
"html-button-response","214","136240","0.0-166.0-0.0","CAN_118","118","","","","","","630","<button class=""jspsych-btn""><img src=""stimuli/blue.png"" style=""width: 200px;height: 200px;""></button>","1","blue","red","[""blue"",""red"",""high nameability""]","right-left","[""red"",""blue""]","5","high nameability","45","right","response","1"
"html-audio-button-response","215","136447","0.0-166.0-1.0","CAN_118","118","","","","","","null","stimuli/bleep.m4a","null","blue","red","[""blue"",""red"",""high nameability""]","right-left","[""red"",""blue""]","5","high nameability","45","right","audio_feedback","1"
"html-button-response","216","136978","0.0-167.0","CAN_118","118","","","","","","null","<button class=""jspsych-btn""><img src=""stimuli/white_square.png"" style=""width: 200px;height: 200px;""></button>","null","blue","red","[""blue"",""red"",""high nameability""]","right-left","[""red"",""blue""]","5","high nameability","45","right","iti",""
"html-button-response","217","137550","0.0-168.0","CAN_118","118","","","","","","549","","0","yellow","orange","[""yellow"",""orange"",""high nameability""]","left-right","[""yellow"",""orange"",""high nameability""]","5","high nameability","46","left","trigger",""
"html-button-response","218","138189","0.0-169.0-0.0","CAN_118","118","","","","","","629","<button class=""jspsych-btn""><img src=""stimuli/yellow.png"" style=""width: 200px;height: 200px;""></button>","0","yellow","orange","[""yellow"",""orange"",""high nameability""]","left-right","[""yellow"",""orange"",""high nameability""]","5","high nameability","46","left","response","1"
"html-audio-button-response","219","138399","0.0-169.0-1.0","CAN_118","118","","","","","","null","stimuli/bleep.m4a","null","yellow","orange","[""yellow"",""orange"",""high nameability""]","left-right","[""yellow"",""orange"",""high nameability""]","5","high nameability","46","left","audio_feedback","1"
"html-button-response","220","138922","0.0-170.0","CAN_118","118","","","","","","null","<button class=""jspsych-btn""><img src=""stimuli/white_square.png"" style=""width: 200px;height: 200px;""></button>","null","yellow","orange","[""yellow"",""orange"",""high nameability""]","left-right","[""yellow"",""orange"",""high nameability""]","5","high nameability","46","left","iti",""
"html-button-response","221","139469","0.0-171.0","CAN_118","118","","","","","","521","","0","darkgreenblue","turquoise","[""darkgreenblue"",""turquoise"",""low nameability""]","left-right","[""darkgreenblue"",""turquoise"",""low nameability""]","5","low nameability","47","left","trigger",""
"html-button-response","222","140137","0.0-172.0-0.0","CAN_118","118","","","","","","662","<button class=""jspsych-btn""><img src=""stimuli/darkgreenblue.png"" style=""width: 200px;height: 200px;""></button>","0","darkgreenblue","turquoise","[""darkgreenblue"",""turquoise"",""low nameability""]","left-right","[""darkgreenblue"",""turquoise"",""low nameability""]","5","low nameability","47","left","response","1"
"html-audio-button-response","223","140342","0.0-172.0-1.0","CAN_118","118","","","","","","null","stimuli/bleep.m4a","null","darkgreenblue","turquoise","[""darkgreenblue"",""turquoise"",""low nameability""]","left-right","[""darkgreenblue"",""turquoise"",""low nameability""]","5","low nameability","47","left","audio_feedback","1"
"html-button-response","224","140860","0.0-173.0","CAN_118","118","","","","","","null","<button class=""jspsych-btn""><img src=""stimuli/white_square.png"" style=""width: 200px;height: 200px;""></button>","null","darkgreenblue","turquoise","[""darkgreenblue"",""turquoise"",""low nameability""]","left-right","[""darkgreenblue"",""turquoise"",""low nameability""]","5","low nameability","47","left","iti",""
"html-button-response","225","141459","0.0-174.0","CAN_118","118","","","","","","580","","0","orange","red","[""orange"",""red"",""high nameability""]","left-right","[""orange"",""red"",""high nameability""]","5","high nameability","48","left","trigger",""
"html-button-response","226","142099","0.0-175.0-0.0","CAN_118","118","","","","","","632","<button class=""jspsych-btn""><img src=""stimuli/orange.png"" style=""width: 200px;height: 200px;""></button>","0","orange","red","[""orange"",""red"",""high nameability""]","left-right","[""orange"",""red"",""high nameability""]","5","high nameability","48","left","response","1"
"html-audio-button-response","227","142302","0.0-175.0-1.0","CAN_118","118","","","","","","null","stimuli/bleep.m4a","null","orange","red","[""orange"",""red"",""high nameability""]","left-right","[""orange"",""red"",""high nameability""]","5","high nameability","48","left","audio_feedback","1"
"html-button-response","228","142820","0.0-176.0","CAN_118","118","","","","","","null","<button class=""jspsych-btn""><img src=""stimuli/white_square.png"" style=""width: 200px;height: 200px;""></button>","null","orange","red","[""orange"",""red"",""high nameability""]","left-right","[""orange"",""red"",""high nameability""]","5","high nameability","48","left","iti",""
"html-button-response","229","143473","0.0-177.0","CAN_118","118","","","","","","629","","0","lightred","darkgreenblue","[""lightred"",""darkgreenblue"",""low nameability""]","left-right","[""lightred"",""darkgreenblue"",""low nameability""]","5","low nameability","49","left","trigger",""
"html-button-response","230","144065","0.0-178.0-0.0","CAN_118","118","","","","","","583","<button class=""jspsych-btn""><img src=""stimuli/lightred.png"" style=""width: 200px;height: 200px;""></button>","0","lightred","darkgreenblue","[""lightred"",""darkgreenblue"",""low nameability""]","left-right","[""lightred"",""darkgreenblue"",""low nameability""]","5","low nameability","49","left","response","1"
"html-audio-button-response","231","144270","0.0-178.0-1.0","CAN_118","118","","","","","","null","stimuli/bleep.m4a","null","lightred","darkgreenblue","[""lightred"",""darkgreenblue"",""low nameability""]","left-right","[""lightred"",""darkgreenblue"",""low nameability""]","5","low nameability","49","left","audio_feedback","1"
"html-button-response","232","144787","0.0-179.0","CAN_118","118","","","","","","null","<button class=""jspsych-btn""><img src=""stimuli/white_square.png"" style=""width: 200px;height: 200px;""></button>","null","lightred","darkgreenblue","[""lightred"",""darkgreenblue"",""low nameability""]","left-right","[""lightred"",""darkgreenblue"",""low nameability""]","5","low nameability","49","left","iti",""
"html-button-response","233","145378","0.0-180.0","CAN_118","118","","","","","","577","","0","orange","purple","[""orange"",""purple"",""high nameability""]","right-left","[""purple"",""orange""]","5","high nameability","50","right","trigger",""
"html-button-response","234","145955","0.0-181.0-0.0","CAN_118","118","","","","","","568","<button class=""jspsych-btn""><img src=""stimuli/orange.png"" style=""width: 200px;height: 200px;""></button>","1","orange","purple","[""orange"",""purple"",""high nameability""]","right-left","[""purple"",""orange""]","5","high nameability","50","right","response","1"
"html-audio-button-response","235","146162","0.0-181.0-1.0","CAN_118","118","","","","","","null","stimuli/bleep.m4a","null","orange","purple","[""orange"",""purple"",""high nameability""]","right-left","[""purple"",""orange""]","5","high nameability","50","right","audio_feedback","1"
"html-button-response","236","146682","0.0-182.0","CAN_118","118","","","","","","null","<button class=""jspsych-btn""><img src=""stimuli/white_square.png"" style=""width: 200px;height: 200px;""></button>","null","orange","purple","[""orange"",""purple"",""high nameability""]","right-left","[""purple"",""orange""]","5","high nameability","50","right","iti",""
"pavlovia","237","146766","0.0-183.0","CAN_118","118","","","","","","","","","","","","","","","","","","",""
"pavlovia","238","146777","0.0-184.0","CAN_118","118","","","","","","","","","","","","","","","","","","",""
"html-audio-button-response","239","148379","0.0-185.0","CAN_118","118","","","","","","1691","stimuli/tada.m4a","0","","","","","","","","","","",""
"html-button-response","240","149037","0.0-186.0","CAN_118","118","","","","","","650","","0","","","","","","","","","","",""
"html-button-response","241","150001","0.0-187.0","CAN_118","118","","","","","","956","","0","pink","darkgreenblue","[""pink"",""darkgreenblue"",""low nameability""]","left-right","[""pink"",""darkgreenblue"",""low nameability""]","6","low nameability","51","left","trigger",""
"html-button-response","242","150675","0.0-188.0-0.0","CAN_118","118","","","","","","664","<button class=""jspsych-btn""><img src=""stimuli/pink.png"" style=""width: 200px;height: 200px;""></button>","0","pink","darkgreenblue","[""pink"",""darkgreenblue"",""low nameability""]","left-right","[""pink"",""darkgreenblue"",""low nameability""]","6","low nameability","51","left","response","1"
"html-audio-button-response","243","150879","0.0-188.0-1.0","CAN_118","118","","","","","","null","stimuli/bleep.m4a","null","pink","darkgreenblue","[""pink"",""darkgreenblue"",""low nameability""]","left-right","[""pink"",""darkgreenblue"",""low nameability""]","6","low nameability","51","left","audio_feedback","1"
"html-button-response","244","151397","0.0-189.0","CAN_118","118","","","","","","null","<button class=""jspsych-btn""><img src=""stimuli/white_square.png"" style=""width: 200px;height: 200px;""></button>","null","pink","darkgreenblue","[""pink"",""darkgreenblue"",""low nameability""]","left-right","[""pink"",""darkgreenblue"",""low nameability""]","6","low nameability","51","left","iti",""
"html-button-response","245","151935","0.0-190.0","CAN_118","118","","","","","","520","","0","brown","blue","[""brown"",""blue"",""high nameability""]","right-left","[""blue"",""brown""]","6","high nameability","52","right","trigger",""
"html-button-response","246","152503","0.0-191.0-0.0","CAN_118","118","","","","","","562","<button class=""jspsych-btn""><img src=""stimuli/brown.png"" style=""width: 200px;height: 200px;""></button>","1","brown","blue","[""brown"",""blue"",""high nameability""]","right-left","[""blue"",""brown""]","6","high nameability","52","right","response","1"
"html-audio-button-response","247","152710","0.0-191.0-1.0","CAN_118","118","","","","","","null","stimuli/bleep.m4a","null","brown","blue","[""brown"",""blue"",""high nameability""]","right-left","[""blue"",""brown""]","6","high nameability","52","right","audio_feedback","1"
"html-button-response","248","153234","0.0-192.0","CAN_118","118","","","","","","null","<button class=""jspsych-btn""><img src=""stimuli/white_square.png"" style=""width: 200px;height: 200px;""></button>","null","brown","blue","[""brown"",""blue"",""high nameability""]","right-left","[""blue"",""brown""]","6","high nameability","52","right","iti",""
"html-button-response","249","153837","0.0-193.0","CAN_118","118","","","","","","581","","0","pink","lightred","[""pink"",""lightred"",""low nameability""]","left-right","[""pink"",""lightred"",""low nameability""]","6","low nameability","53","left","trigger",""
"html-button-response","250","154486","0.0-194.0-0.0","CAN_118","118","","","","","","640","<button class=""jspsych-btn""><img src=""stimuli/pink.png"" style=""width: 200px;height: 200px;""></button>","0","pink","lightred","[""pink"",""lightred"",""low nameability""]","left-right","[""pink"",""lightred"",""low nameability""]","6","low nameability","53","left","response","1"
"html-audio-button-response","251","154691","0.0-194.0-1.0","CAN_118","118","","","","","","null","stimuli/bleep.m4a","null","pink","lightred","[""pink"",""lightred"",""low nameability""]","left-right","[""pink"",""lightred"",""low nameability""]","6","low nameability","53","left","audio_feedback","1"
"html-button-response","252","155207","0.0-195.0","CAN_118","118","","","","","","null","<button class=""jspsych-btn""><img src=""stimuli/white_square.png"" style=""width: 200px;height: 200px;""></button>","null","pink","lightred","[""pink"",""lightred"",""low nameability""]","left-right","[""pink"",""lightred"",""low nameability""]","6","low nameability","53","left","iti",""
"html-button-response","253","155758","0.0-196.0","CAN_118","118","","","","","","534","","0","purple","blue","[""purple"",""blue"",""high nameability""]","right-left","[""blue"",""purple""]","6","high nameability","54","right","trigger",""
"html-button-response","254","156329","0.0-197.0-0.0","CAN_118","118","","","","","","564","<button class=""jspsych-btn""><img src=""stimuli/purple.png"" style=""width: 200px;height: 200px;""></button>","1","purple","blue","[""purple"",""blue"",""high nameability""]","right-left","[""blue"",""purple""]","6","high nameability","54","right","response","1"
"html-audio-button-response","255","156535","0.0-197.0-1.0","CAN_118","118","","","","","","null","stimuli/bleep.m4a","null","purple","blue","[""purple"",""blue"",""high nameability""]","right-left","[""blue"",""purple""]","6","high nameability","54","right","audio_feedback","1"
"html-button-response","256","157055","0.0-198.0","CAN_118","118","","","","","","null","<button class=""jspsych-btn""><img src=""stimuli/white_square.png"" style=""width: 200px;height: 200px;""></button>","null","purple","blue","[""purple"",""blue"",""high nameability""]","right-left","[""blue"",""purple""]","6","high nameability","54","right","iti",""
"html-button-response","257","157596","0.0-199.0","CAN_118","118","","","","","","520","","0","purple","yellow","[""purple"",""yellow"",""high nameability""]","right-left","[""yellow"",""purple""]","6","high nameability","55","right","trigger",""
"html-button-response","258","158155","0.0-200.0-0.0","CAN_118","118","","","","","","552","<button class=""jspsych-btn""><img src=""stimuli/purple.png"" style=""width: 200px;height: 200px;""></button>","1","purple","yellow","[""purple"",""yellow"",""high nameability""]","right-left","[""yellow"",""purple""]","6","high nameability","55","right","response","1"
"html-audio-button-response","259","158362","0.0-200.0-1.0","CAN_118","118","","","","","","null","stimuli/bleep.m4a","null","purple","yellow","[""purple"",""yellow"",""high nameability""]","right-left","[""yellow"",""purple""]","6","high nameability","55","right","audio_feedback","1"
"html-button-response","260","158881","0.0-201.0","CAN_118","118","","","","","","null","<button class=""jspsych-btn""><img src=""stimuli/white_square.png"" style=""width: 200px;height: 200px;""></button>","null","purple","yellow","[""purple"",""yellow"",""high nameability""]","right-left","[""yellow"",""purple""]","6","high nameability","55","right","iti",""
"html-button-response","261","159515","0.0-202.0","CAN_118","118","","","","","","607","","0","purple","orange","[""purple"",""orange"",""high nameability""]","left-right","[""purple"",""orange"",""high nameability""]","6","high nameability","56","left","trigger",""
"html-button-response","262","160188","0.0-203.0-0.0","CAN_118","118","","","","","","664","<button class=""jspsych-btn""><img src=""stimuli/purple.png"" style=""width: 200px;height: 200px;""></button>","0","purple","orange","[""purple"",""orange"",""high nameability""]","left-right","[""purple"",""orange"",""high nameability""]","6","high nameability","56","left","response","1"
"html-audio-button-response","263","160394","0.0-203.0-1.0","CAN_118","118","","","","","","null","stimuli/bleep.m4a","null","purple","orange","[""purple"",""orange"",""high nameability""]","left-right","[""purple"",""orange"",""high nameability""]","6","high nameability","56","left","audio_feedback","1"
"html-button-response","264","160919","0.0-204.0","CAN_118","118","","","","","","null","<button class=""jspsych-btn""><img src=""stimuli/white_square.png"" style=""width: 200px;height: 200px;""></button>","null","purple","orange","[""purple"",""orange"",""high nameability""]","left-right","[""purple"",""orange"",""high nameability""]","6","high nameability","56","left","iti",""
"html-button-response","265","161448","0.0-205.0","CAN_118","118","","","","","","508","","0","darkgreenblue","lightred","[""darkgreenblue"",""lightred"",""low nameability""]","left-right","[""darkgreenblue"",""lightred"",""low nameability""]","6","low nameability","57","left","trigger",""
"html-button-response","266","162109","0.0-206.0-0.0","CAN_118","118","","","","","","655","<button class=""jspsych-btn""><img src=""stimuli/darkgreenblue.png"" style=""width: 200px;height: 200px;""></button>","0","darkgreenblue","lightred","[""darkgreenblue"",""lightred"",""low nameability""]","left-right","[""darkgreenblue"",""lightred"",""low nameability""]","6","low nameability","57","left","response","1"
"html-audio-button-response","267","162310","0.0-206.0-1.0","CAN_118","118","","","","","","null","stimuli/bleep.m4a","null","darkgreenblue","lightred","[""darkgreenblue"",""lightred"",""low nameability""]","left-right","[""darkgreenblue"",""lightred"",""low nameability""]","6","low nameability","57","left","audio_feedback","1"
"html-button-response","268","162831","0.0-207.0","CAN_118","118","","","","","","null","<button class=""jspsych-btn""><img src=""stimuli/white_square.png"" style=""width: 200px;height: 200px;""></button>","null","darkgreenblue","lightred","[""darkgreenblue"",""lightred"",""low nameability""]","left-right","[""darkgreenblue"",""lightred"",""low nameability""]","6","low nameability","57","left","iti",""
"html-button-response","269","163349","0.0-208.0","CAN_118","118","","","","","","499","","0","turquoise","mustard","[""turquoise"",""mustard"",""low nameability""]","right-left","[""mustard"",""turquoise""]","6","low nameability","58","right","trigger",""
"html-button-response","270","163943","0.0-209.0-0.0","CAN_118","118","","","","","","585","<button class=""jspsych-btn""><img src=""stimuli/turquoise.png"" style=""width: 200px;height: 200px;""></button>","1","turquoise","mustard","[""turquoise"",""mustard"",""low nameability""]","right-left","[""mustard"",""turquoise""]","6","low nameability","58","right","response","1"
"html-audio-button-response","271","164145","0.0-209.0-1.0","CAN_118","118","","","","","","null","stimuli/bleep.m4a","null","turquoise","mustard","[""turquoise"",""mustard"",""low nameability""]","right-left","[""mustard"",""turquoise""]","6","low nameability","58","right","audio_feedback","1"
"html-button-response","272","164666","0.0-210.0","CAN_118","118","","","","","","null","<button class=""jspsych-btn""><img src=""stimuli/white_square.png"" style=""width: 200px;height: 200px;""></button>","null","turquoise","mustard","[""turquoise"",""mustard"",""low nameability""]","right-left","[""mustard"",""turquoise""]","6","low nameability","58","right","iti",""
"html-button-response","273","164968","0.0-211.0","CAN_118","118","","","","","","284","","0","darkgreenblue","neonyellow","[""darkgreenblue"",""neonyellow"",""low nameability""]","right-left","[""neonyellow"",""darkgreenblue""]","6","low nameability","59","right","trigger",""
"html-button-response","274","165617","0.0-212.0-0.0","CAN_118","118","","","","","","639","<button class=""jspsych-btn""><img src=""stimuli/darkgreenblue.png"" style=""width: 200px;height: 200px;""></button>","1","darkgreenblue","neonyellow","[""darkgreenblue"",""neonyellow"",""low nameability""]","right-left","[""neonyellow"",""darkgreenblue""]","6","low nameability","59","right","response","1"
"html-audio-button-response","275","165822","0.0-212.0-1.0","CAN_118","118","","","","","","null","stimuli/bleep.m4a","null","darkgreenblue","neonyellow","[""darkgreenblue"",""neonyellow"",""low nameability""]","right-left","[""neonyellow"",""darkgreenblue""]","6","low nameability","59","right","audio_feedback","1"
"html-button-response","276","166336","0.0-213.0","CAN_118","118","","","","","","null","<button class=""jspsych-btn""><img src=""stimuli/white_square.png"" style=""width: 200px;height: 200px;""></button>","null","darkgreenblue","neonyellow","[""darkgreenblue"",""neonyellow"",""low nameability""]","right-left","[""neonyellow"",""darkgreenblue""]","6","low nameability","59","right","iti",""
"html-button-response","277","166925","0.0-214.0","CAN_118","118","","","","","","568","","0","pink","neonyellow","[""pink"",""neonyellow"",""low nameability""]","left-right","[""pink"",""neonyellow"",""low nameability""]","6","low nameability","60","left","trigger",""
"html-button-response","278","167541","0.0-215.0-0.0","CAN_118","118","","","","","","606","<button class=""jspsych-btn""><img src=""stimuli/pink.png"" style=""width: 200px;height: 200px;""></button>","0","pink","neonyellow","[""pink"",""neonyellow"",""low nameability""]","left-right","[""pink"",""neonyellow"",""low nameability""]","6","low nameability","60","left","response","1"
"html-audio-button-response","279","167748","0.0-215.0-1.0","CAN_118","118","","","","","","null","stimuli/bleep.m4a","null","pink","neonyellow","[""pink"",""neonyellow"",""low nameability""]","left-right","[""pink"",""neonyellow"",""low nameability""]","6","low nameability","60","left","audio_feedback","1"
"html-button-response","280","168270","0.0-216.0","CAN_118","118","","","","","","null","<button class=""jspsych-btn""><img src=""stimuli/white_square.png"" style=""width: 200px;height: 200px;""></button>","null","pink","neonyellow","[""pink"",""neonyellow"",""low nameability""]","left-right","[""pink"",""neonyellow"",""low nameability""]","6","low nameability","60","left","iti",""
