"trial_type","trial_index","time_elapsed","internal_node_id","subject_id","seed","success","timeout","failed_images","failed_audio","failed_video","rt","stimulus","response","target","foil","choices","combination_order","choices_in_order","round","condition","trial_counter","target_location","trial_kind","correct"
"pavlovia","0","27","0.0-0.0","CAN_137","137","","","","","","","","","","","","","","","","","","",""
"preload","1","1184","0.0-1.0","CAN_137","137","true","false","[]","[]","[]","","","","","","","","","","","","","",""
"fullscreen","2","10378","0.0-2.0","CAN_137","137","true","","","","","","","","","","","","","","","","","",""
"html-button-response","3","85478","0.0-3.0","CAN_137","137","","","","","","75076","","0","","","","","","","","","","",""
"html-button-response","4","87012","0.0-4.0","CAN_137","137","","","","","","1520","","0","star","square","[""square"",""star""]","left-right","[""square"",""star""]","1","practice","1","right","trigger",""
"html-button-response","5","88167","0.0-5.0-0.0","CAN_137","137","","","","","","1140","<button class=""jspsych-btn""><img src=""stimuli/star.png"" style=""width: 200px;height: 200px;""></button>","1","star","square","[""square"",""star""]","left-right","[""square"",""star""]","1","practice","1","right","response","1"
"html-audio-button-response","6","88385","0.0-5.0-1.0","CAN_137","137","","","","","","null","stimuli/bleep.m4a","null","star","square","[""square"",""star""]","left-right","[""square"",""star""]","1","practice","1","right","audio_feedback","1"
"html-button-response","7","88918","0.0-6.0","CAN_137","137","","","","","","null","<button class=""jspsych-btn""><img src=""stimuli/white_square.png"" style=""width: 200px;height: 200px;""></button>","null","star","square","[""square"",""star""]","left-right","[""square"",""star""]","1","practice","1","right","iti",""
"html-button-response","8","90320","0.0-7.0","CAN_137","137","","","","","","1383","","0","triangle","pentagram","[""triangle"",""pentagram""]","left-right","[""triangle"",""pentagram""]","1","practice","1","left","trigger",""
"html-button-response","9","91204","0.0-8.0-0.0","CAN_137","137","","","","","","873","<button class=""jspsych-btn""><img src=""stimuli/triangle.png"" style=""width: 200px;height: 200px;""></button>","0","triangle","pentagram","[""triangle"",""pentagram""]","left-right","[""triangle"",""pentagram""]","1","practice","1","left","response","1"
"html-audio-button-response","10","91413","0.0-8.0-1.0","CAN_137","137","","","","","","null","stimuli/bleep.m4a","null","triangle","pentagram","[""triangle"",""pentagram""]","left-right","[""triangle"",""pentagram""]","1","practice","1","left","audio_feedback","1"
"html-button-response","11","91932","0.0-9.0","CAN_137","137","","","","","","null","<button class=""jspsych-btn""><img src=""stimuli/white_square.png"" style=""width: 200px;height: 200px;""></button>","null","triangle","pentagram","[""triangle"",""pentagram""]","left-right","[""triangle"",""pentagram""]","1","practice","1","left","iti",""
"html-button-response","12","92597","0.0-10.0","CAN_137","137","","","","","","645","","0","diamond","rectangle","[""rectangle"",""diamond""]","left-right","[""rectangle"",""diamond""]","1","practice","1","right","trigger",""
"html-button-response","13","93425","0.0-11.0-0.0","CAN_137","137","","","","","","817","<button class=""jspsych-btn""><img src=""stimuli/diamond.png"" style=""width: 200px;height: 200px;""></button>","1","diamond","rectangle","[""rectangle"",""diamond""]","left-right","[""rectangle"",""diamond""]","1","practice","1","right","response","1"
"html-audio-button-response","14","93632","0.0-11.0-1.0","CAN_137","137","","","","","","null","stimuli/bleep.m4a","null","diamond","rectangle","[""rectangle"",""diamond""]","left-right","[""rectangle"",""diamond""]","1","practice","1","right","audio_feedback","1"
"html-button-response","15","94153","0.0-12.0","CAN_137","137","","","","","","null","<button class=""jspsych-btn""><img src=""stimuli/white_square.png"" style=""width: 200px;height: 200px;""></button>","null","diamond","rectangle","[""rectangle"",""diamond""]","left-right","[""rectangle"",""diamond""]","1","practice","1","right","iti",""
"html-button-response","16","94554","0.0-13.0","CAN_137","137","","","","","","379","","0","pentagram","star","[""pentagram"",""star""]","left-right","[""pentagram"",""star""]","1","practice","1","left","trigger",""
"html-button-response","17","95324","0.0-14.0-0.0","CAN_137","137","","","","","","760","<button class=""jspsych-btn""><img src=""stimuli/pentagram.png"" style=""width: 200px;height: 200px;""></button>","0","pentagram","star","[""pentagram"",""star""]","left-right","[""pentagram"",""star""]","1","practice","1","left","response","1"
"html-audio-button-response","18","95528","0.0-14.0-1.0","CAN_137","137","","","","","","null","stimuli/bleep.m4a","null","pentagram","star","[""pentagram"",""star""]","left-right","[""pentagram"",""star""]","1","practice","1","left","audio_feedback","1"
"html-button-response","19","96049","0.0-15.0","CAN_137","137","","","","","","null","<button class=""jspsych-btn""><img src=""stimuli/white_square.png"" style=""width: 200px;height: 200px;""></button>","null","pentagram","star","[""pentagram"",""star""]","left-right","[""pentagram"",""star""]","1","practice","1","left","iti",""
"html-button-response","20","100879","0.0-16.0","CAN_137","137","","","","","","4809","","0","","","","","","","","","","",""
"html-button-response","21","102341","0.0-17.0","CAN_137","137","","","","","","1447","","0","brown","yellow","[""brown"",""yellow"",""high nameability""]","right-left","[""yellow"",""brown""]","1","high nameability","1","right","trigger",""
"html-button-response","22","102954","0.0-18.0-0.0","CAN_137","137","","","","","","601","<button class=""jspsych-btn""><img src=""stimuli/brown.png"" style=""width: 200px;height: 200px;""></button>","1","brown","yellow","[""brown"",""yellow"",""high nameability""]","right-left","[""yellow"",""brown""]","1","high nameability","1","right","response","1"
"html-audio-button-response","23","103160","0.0-18.0-1.0","CAN_137","137","","","","","","null","stimuli/bleep.m4a","null","brown","yellow","[""brown"",""yellow"",""high nameability""]","right-left","[""yellow"",""brown""]","1","high nameability","1","right","audio_feedback","1"
"html-button-response","24","103677","0.0-19.0","CAN_137","137","","","","","","null","<button class=""jspsych-btn""><img src=""stimuli/white_square.png"" style=""width: 200px;height: 200px;""></button>","null","brown","yellow","[""brown"",""yellow"",""high nameability""]","right-left","[""yellow"",""brown""]","1","high nameability","1","right","iti",""
"html-button-response","25","104676","0.0-20.0","CAN_137","137","","","","","","991","","0","red","brown","[""red"",""brown"",""high nameability""]","right-left","[""brown"",""red""]","1","high nameability","2","right","trigger",""
"html-button-response","26","105288","0.0-21.0-0.0","CAN_137","137","","","","","","602","<button class=""jspsych-btn""><img src=""stimuli/red.png"" style=""width: 200px;height: 200px;""></button>","1","red","brown","[""red"",""brown"",""high nameability""]","right-left","[""brown"",""red""]","1","high nameability","2","right","response","1"
"html-audio-button-response","27","105500","0.0-21.0-1.0","CAN_137","137","","","","","","null","stimuli/bleep.m4a","null","red","brown","[""red"",""brown"",""high nameability""]","right-left","[""brown"",""red""]","1","high nameability","2","right","audio_feedback","1"
"html-button-response","28","106024","0.0-22.0","CAN_137","137","","","","","","null","<button class=""jspsych-btn""><img src=""stimuli/white_square.png"" style=""width: 200px;height: 200px;""></button>","null","red","brown","[""red"",""brown"",""high nameability""]","right-left","[""brown"",""red""]","1","high nameability","2","right","iti",""
"html-button-response","29","106469","0.0-23.0","CAN_137","137","","","","","","430","","0","purple","blue","[""purple"",""blue"",""high nameability""]","left-right","[""purple"",""blue"",""high nameability""]","1","high nameability","3","left","trigger",""
"html-button-response","30","107159","0.0-24.0-0.0","CAN_137","137","","","","","","682","<button class=""jspsych-btn""><img src=""stimuli/purple.png"" style=""width: 200px;height: 200px;""></button>","0","purple","blue","[""purple"",""blue"",""high nameability""]","left-right","[""purple"",""blue"",""high nameability""]","1","high nameability","3","left","response","1"
"html-audio-button-response","31","107362","0.0-24.0-1.0","CAN_137","137","","","","","","null","stimuli/bleep.m4a","null","purple","blue","[""purple"",""blue"",""high nameability""]","left-right","[""purple"",""blue"",""high nameability""]","1","high nameability","3","left","audio_feedback","1"
"html-button-response","32","107881","0.0-25.0","CAN_137","137","","","","","","null","<button class=""jspsych-btn""><img src=""stimuli/white_square.png"" style=""width: 200px;height: 200px;""></button>","null","purple","blue","[""purple"",""blue"",""high nameability""]","left-right","[""purple"",""blue"",""high nameability""]","1","high nameability","3","left","iti",""
"html-button-response","33","108455","0.0-26.0","CAN_137","137","","","","","","554","","0","orange","brown","[""orange"",""brown"",""high nameability""]","right-left","[""brown"",""orange""]","1","high nameability","4","right","trigger",""
"html-button-response","34","109097","0.0-27.0-0.0","CAN_137","137","","","","","","635","<button class=""jspsych-btn""><img src=""stimuli/orange.png"" style=""width: 200px;height: 200px;""></button>","1","orange","brown","[""orange"",""brown"",""high nameability""]","right-left","[""brown"",""orange""]","1","high nameability","4","right","response","1"
"html-audio-button-response","35","109298","0.0-27.0-1.0","CAN_137","137","","","","","","null","stimuli/bleep.m4a","null","orange","brown","[""orange"",""brown"",""high nameability""]","right-left","[""brown"",""orange""]","1","high nameability","4","right","audio_feedback","1"
"html-button-response","36","109822","0.0-28.0","CAN_137","137","","","","","","null","<button class=""jspsych-btn""><img src=""stimuli/white_square.png"" style=""width: 200px;height: 200px;""></button>","null","orange","brown","[""orange"",""brown"",""high nameability""]","right-left","[""brown"",""orange""]","1","high nameability","4","right","iti",""
"html-button-response","37","110288","0.0-29.0","CAN_137","137","","","","","","442","","0","orange","red","[""orange"",""red"",""high nameability""]","left-right","[""orange"",""red"",""high nameability""]","1","high nameability","5","left","trigger",""
"html-button-response","38","110937","0.0-30.0-0.0","CAN_137","137","","","","","","641","<button class=""jspsych-btn""><img src=""stimuli/orange.png"" style=""width: 200px;height: 200px;""></button>","0","orange","red","[""orange"",""red"",""high nameability""]","left-right","[""orange"",""red"",""high nameability""]","1","high nameability","5","left","response","1"
"html-audio-button-response","39","111142","0.0-30.0-1.0","CAN_137","137","","","","","","null","stimuli/bleep.m4a","null","orange","red","[""orange"",""red"",""high nameability""]","left-right","[""orange"",""red"",""high nameability""]","1","high nameability","5","left","audio_feedback","1"
"html-button-response","40","111659","0.0-31.0","CAN_137","137","","","","","","null","<button class=""jspsych-btn""><img src=""stimuli/white_square.png"" style=""width: 200px;height: 200px;""></button>","null","orange","red","[""orange"",""red"",""high nameability""]","left-right","[""orange"",""red"",""high nameability""]","1","high nameability","5","left","iti",""
"html-button-response","41","112153","0.0-32.0","CAN_137","137","","","","","","474","","0","mustard","darkgreenblue","[""mustard"",""darkgreenblue"",""low nameability""]","right-left","[""darkgreenblue"",""mustard""]","1","low nameability","6","right","trigger",""
"html-button-response","42","112752","0.0-33.0-0.0","CAN_137","137","","","","","","592","<button class=""jspsych-btn""><img src=""stimuli/mustard.png"" style=""width: 200px;height: 200px;""></button>","1","mustard","darkgreenblue","[""mustard"",""darkgreenblue"",""low nameability""]","right-left","[""darkgreenblue"",""mustard""]","1","low nameability","6","right","response","1"
"html-audio-button-response","43","112959","0.0-33.0-1.0","CAN_137","137","","","","","","null","stimuli/bleep.m4a","null","mustard","darkgreenblue","[""mustard"",""darkgreenblue"",""low nameability""]","right-left","[""darkgreenblue"",""mustard""]","1","low nameability","6","right","audio_feedback","1"
"html-button-response","44","113479","0.0-34.0","CAN_137","137","","","","","","null","<button class=""jspsych-btn""><img src=""stimuli/white_square.png"" style=""width: 200px;height: 200px;""></button>","null","mustard","darkgreenblue","[""mustard"",""darkgreenblue"",""low nameability""]","right-left","[""darkgreenblue"",""mustard""]","1","low nameability","6","right","iti",""
"html-button-response","45","113907","0.0-35.0","CAN_137","137","","","","","","404","","0","yellow","brown","[""yellow"",""brown"",""high nameability""]","left-right","[""yellow"",""brown"",""high nameability""]","1","high nameability","7","left","trigger",""
"html-button-response","46","114500","0.0-36.0-0.0","CAN_137","137","","","","","","584","<button class=""jspsych-btn""><img src=""stimuli/yellow.png"" style=""width: 200px;height: 200px;""></button>","0","yellow","brown","[""yellow"",""brown"",""high nameability""]","left-right","[""yellow"",""brown"",""high nameability""]","1","high nameability","7","left","response","1"
"html-audio-button-response","47","114708","0.0-36.0-1.0","CAN_137","137","","","","","","null","stimuli/bleep.m4a","null","yellow","brown","[""yellow"",""brown"",""high nameability""]","left-right","[""yellow"",""brown"",""high nameability""]","1","high nameability","7","left","audio_feedback","1"
"html-button-response","48","115234","0.0-37.0","CAN_137","137","","","","","","null","<button class=""jspsych-btn""><img src=""stimuli/white_square.png"" style=""width: 200px;height: 200px;""></button>","null","yellow","brown","[""yellow"",""brown"",""high nameability""]","left-right","[""yellow"",""brown"",""high nameability""]","1","high nameability","7","left","iti",""
"html-button-response","49","115779","0.0-38.0","CAN_137","137","","","","","","525","","0","lightred","turquoise","[""lightred"",""turquoise"",""low nameability""]","left-right","[""lightred"",""turquoise"",""low nameability""]","1","low nameability","8","left","trigger",""
"html-button-response","50","116452","0.0-39.0-0.0","CAN_137","137","","","","","","665","<button class=""jspsych-btn""><img src=""stimuli/lightred.png"" style=""width: 200px;height: 200px;""></button>","0","lightred","turquoise","[""lightred"",""turquoise"",""low nameability""]","left-right","[""lightred"",""turquoise"",""low nameability""]","1","low nameability","8","left","response","1"
"html-audio-button-response","51","116656","0.0-39.0-1.0","CAN_137","137","","","","","","null","stimuli/bleep.m4a","null","lightred","turquoise","[""lightred"",""turquoise"",""low nameability""]","left-right","[""lightred"",""turquoise"",""low nameability""]","1","low nameability","8","left","audio_feedback","1"
"html-button-response","52","117170","0.0-40.0","CAN_137","137","","","","","","null","<button class=""jspsych-btn""><img src=""stimuli/white_square.png"" style=""width: 200px;height: 200px;""></button>","null","lightred","turquoise","[""lightred"",""turquoise"",""low nameability""]","left-right","[""lightred"",""turquoise"",""low nameability""]","1","low nameability","8","left","iti",""
"html-button-response","53","117795","0.0-41.0","CAN_137","137","","","","","","615","","0","neonyellow","pink","[""neonyellow"",""pink"",""low nameability""]","right-left","[""pink"",""neonyellow""]","1","low nameability","9","right","trigger",""
"html-button-response","54","118414","0.0-42.0-0.0","CAN_137","137","","","","","","611","<button class=""jspsych-btn""><img src=""stimuli/neonyellow.png"" style=""width: 200px;height: 200px;""></button>","1","neonyellow","pink","[""neonyellow"",""pink"",""low nameability""]","right-left","[""pink"",""neonyellow""]","1","low nameability","9","right","response","1"
"html-audio-button-response","55","118617","0.0-42.0-1.0","CAN_137","137","","","","","","null","stimuli/bleep.m4a","null","neonyellow","pink","[""neonyellow"",""pink"",""low nameability""]","right-left","[""pink"",""neonyellow""]","1","low nameability","9","right","audio_feedback","1"
"html-button-response","56","119134","0.0-43.0","CAN_137","137","","","","","","null","<button class=""jspsych-btn""><img src=""stimuli/white_square.png"" style=""width: 200px;height: 200px;""></button>","null","neonyellow","pink","[""neonyellow"",""pink"",""low nameability""]","right-left","[""pink"",""neonyellow""]","1","low nameability","9","right","iti",""
"html-button-response","57","119662","0.0-44.0","CAN_137","137","","","","","","511","","0","turquoise","pink","[""turquoise"",""pink"",""low nameability""]","left-right","[""turquoise"",""pink"",""low nameability""]","1","low nameability","10","left","trigger",""
"html-button-response","58","120240","0.0-45.0-0.0","CAN_137","137","","","","","","573","<button class=""jspsych-btn""><img src=""stimuli/turquoise.png"" style=""width: 200px;height: 200px;""></button>","0","turquoise","pink","[""turquoise"",""pink"",""low nameability""]","left-right","[""turquoise"",""pink"",""low nameability""]","1","low nameability","10","left","response","1"
"html-audio-button-response","59","120446","0.0-45.0-1.0","CAN_137","137","","","","","","null","stimuli/bleep.m4a","null","turquoise","pink","[""turquoise"",""pink"",""low nameability""]","left-right","[""turquoise"",""pink"",""low nameability""]","1","low nameability","10","left","audio_feedback","1"
"html-button-response","60","120970","0.0-46.0","CAN_137","137","","","","","","null","<button class=""jspsych-btn""><img src=""stimuli/white_square.png"" style=""width: 200px;height: 200px;""></button>","null","turquoise","pink","[""turquoise"",""pink"",""low nameability""]","left-right","[""turquoise"",""pink"",""low nameability""]","1","low nameability","10","left","iti",""
"pavlovia","61","121071","0.0-47.0","CAN_137","137","","","","","","","","","","","","","","","","","","",""
"pavlovia","62","121088","0.0-48.0","CAN_137","137","","","","","","","","","","","","","","","","","","",""
"html-audio-button-response","63","122649","0.0-49.0","CAN_137","137","","","","","","1680","stimuli/tada.m4a","0","","","","","","","","","","",""
"html-button-response","64","123228","0.0-50.0","CAN_137","137","","","","","","572","","0","","","","","","","","","","",""
"html-button-response","65","125233","0.0-51.0","CAN_137","137","","","","","","1997","","0","brown","purple","[""brown"",""purple"",""high nameability""]","left-right","[""brown"",""purple"",""high nameability""]","2","high nameability","11","left","trigger",""
"html-button-response","66","125797","0.0-52.0-0.0","CAN_137","137","","","","","","554","<button class=""jspsych-btn""><img src=""stimuli/brown.png"" style=""width: 200px;height: 200px;""></button>","0","brown","purple","[""brown"",""purple"",""high nameability""]","left-right","[""brown"",""purple"",""high nameability""]","2","high nameability","11","left","response","1"
"html-audio-button-response","67","126005","0.0-52.0-1.0","CAN_137","137","","","","","","null","stimuli/bleep.m4a","null","brown","purple","[""brown"",""purple"",""high nameability""]","left-right","[""brown"",""purple"",""high nameability""]","2","high nameability","11","left","audio_feedback","1"
"html-button-response","68","126522","0.0-53.0","CAN_137","137","","","","","","null","<button class=""jspsych-btn""><img src=""stimuli/white_square.png"" style=""width: 200px;height: 200px;""></button>","null","brown","purple","[""brown"",""purple"",""high nameability""]","left-right","[""brown"",""purple"",""high nameability""]","2","high nameability","11","left","iti",""
"html-button-response","69","126949","0.0-54.0","CAN_137","137","","","","","","406","","0","brown","orange","[""brown"",""orange"",""high nameability""]","left-right","[""brown"",""orange"",""high nameability""]","2","high nameability","12","left","trigger",""
"html-button-response","70","127532","0.0-55.0-0.0","CAN_137","137","","","","","","573","<button class=""jspsych-btn""><img src=""stimuli/brown.png"" style=""width: 200px;height: 200px;""></button>","0","brown","orange","[""brown"",""orange"",""high nameability""]","left-right","[""brown"",""orange"",""high nameability""]","2","high nameability","12","left","response","1"
"html-audio-button-response","71","127741","0.0-55.0-1.0","CAN_137","137","","","","","","null","stimuli/bleep.m4a","null","brown","orange","[""brown"",""orange"",""high nameability""]","left-right","[""brown"",""orange"",""high nameability""]","2","high nameability","12","left","audio_feedback","1"
"html-button-response","72","128261","0.0-56.0","CAN_137","137","","","","","","null","<button class=""jspsych-btn""><img src=""stimuli/white_square.png"" style=""width: 200px;height: 200px;""></button>","null","brown","orange","[""brown"",""orange"",""high nameability""]","left-right","[""brown"",""orange"",""high nameability""]","2","high nameability","12","left","iti",""
"html-button-response","73","128707","0.0-57.0","CAN_137","137","","","","","","434","","0","darkgreenblue","lightred","[""darkgreenblue"",""lightred"",""low nameability""]","right-left","[""lightred"",""darkgreenblue""]","2","low nameability","13","right","trigger",""
"html-button-response","74","129378","0.0-58.0-0.0","CAN_137","137","","","","","","664","<button class=""jspsych-btn""><img src=""stimuli/darkgreenblue.png"" style=""width: 200px;height: 200px;""></button>","1","darkgreenblue","lightred","[""darkgreenblue"",""lightred"",""low nameability""]","right-left","[""lightred"",""darkgreenblue""]","2","low nameability","13","right","response","1"
"html-audio-button-response","75","129582","0.0-58.0-1.0","CAN_137","137","","","","","","null","stimuli/bleep.m4a","null","darkgreenblue","lightred","[""darkgreenblue"",""lightred"",""low nameability""]","right-left","[""lightred"",""darkgreenblue""]","2","low nameability","13","right","audio_feedback","1"
"html-button-response","76","130103","0.0-59.0","CAN_137","137","","","","","","null","<button class=""jspsych-btn""><img src=""stimuli/white_square.png"" style=""width: 200px;height: 200px;""></button>","null","darkgreenblue","lightred","[""darkgreenblue"",""lightred"",""low nameability""]","right-left","[""lightred"",""darkgreenblue""]","2","low nameability","13","right","iti",""
"html-button-response","77","130496","0.0-60.0","CAN_137","137","","","","","","373","","0","pink","turquoise","[""pink"",""turquoise"",""low nameability""]","left-right","[""pink"",""turquoise"",""low nameability""]","2","low nameability","14","left","trigger",""
"html-button-response","78","131083","0.0-61.0-0.0","CAN_137","137","","","","","","582","<button class=""jspsych-btn""><img src=""stimuli/pink.png"" style=""width: 200px;height: 200px;""></button>","0","pink","turquoise","[""pink"",""turquoise"",""low nameability""]","left-right","[""pink"",""turquoise"",""low nameability""]","2","low nameability","14","left","response","1"
"html-audio-button-response","79","131286","0.0-61.0-1.0","CAN_137","137","","","","","","null","stimuli/bleep.m4a","null","pink","turquoise","[""pink"",""turquoise"",""low nameability""]","left-right","[""pink"",""turquoise"",""low nameability""]","2","low nameability","14","left","audio_feedback","1"
"html-button-response","80","131807","0.0-62.0","CAN_137","137","","","","","","null","<button class=""jspsych-btn""><img src=""stimuli/white_square.png"" style=""width: 200px;height: 200px;""></button>","null","pink","turquoise","[""pink"",""turquoise"",""low nameability""]","left-right","[""pink"",""turquoise"",""low nameability""]","2","low nameability","14","left","iti",""
"html-button-response","81","132272","0.0-63.0","CAN_137","137","","","","","","444","","0","pink","mustard","[""pink"",""mustard"",""low nameability""]","right-left","[""mustard"",""pink""]","2","low nameability","15","right","trigger",""
"html-button-response","82","132851","0.0-64.0-0.0","CAN_137","137","","","","","","571","<button class=""jspsych-btn""><img src=""stimuli/pink.png"" style=""width: 200px;height: 200px;""></button>","1","pink","mustard","[""pink"",""mustard"",""low nameability""]","right-left","[""mustard"",""pink""]","2","low nameability","15","right","response","1"
"html-audio-button-response","83","133059","0.0-64.0-1.0","CAN_137","137","","","","","","null","stimuli/bleep.m4a","null","pink","mustard","[""pink"",""mustard"",""low nameability""]","right-left","[""mustard"",""pink""]","2","low nameability","15","right","audio_feedback","1"
"html-button-response","84","133574","0.0-65.0","CAN_137","137","","","","","","null","<button class=""jspsych-btn""><img src=""stimuli/white_square.png"" style=""width: 200px;height: 200px;""></button>","null","pink","mustard","[""pink"",""mustard"",""low nameability""]","right-left","[""mustard"",""pink""]","2","low nameability","15","right","iti",""
"html-button-response","85","134030","0.0-66.0","CAN_137","137","","","","","","444","","0","yellow","orange","[""yellow"",""orange"",""high nameability""]","right-left","[""orange"",""yellow""]","2","high nameability","16","right","trigger",""
"html-button-response","86","134552","0.0-67.0-0.0","CAN_137","137","","","","","","514","<button class=""jspsych-btn""><img src=""stimuli/yellow.png"" style=""width: 200px;height: 200px;""></button>","1","yellow","orange","[""yellow"",""orange"",""high nameability""]","right-left","[""orange"",""yellow""]","2","high nameability","16","right","response","1"
"html-audio-button-response","87","134759","0.0-67.0-1.0","CAN_137","137","","","","","","null","stimuli/bleep.m4a","null","yellow","orange","[""yellow"",""orange"",""high nameability""]","right-left","[""orange"",""yellow""]","2","high nameability","16","right","audio_feedback","1"
"html-button-response","88","135282","0.0-68.0","CAN_137","137","","","","","","null","<button class=""jspsych-btn""><img src=""stimuli/white_square.png"" style=""width: 200px;height: 200px;""></button>","null","yellow","orange","[""yellow"",""orange"",""high nameability""]","right-left","[""orange"",""yellow""]","2","high nameability","16","right","iti",""
"html-button-response","89","135742","0.0-69.0","CAN_137","137","","","","","","436","","0","darkgreenblue","mustard","[""darkgreenblue"",""mustard"",""low nameability""]","right-left","[""mustard"",""darkgreenblue""]","2","low nameability","17","right","trigger",""
"html-button-response","90","136278","0.0-70.0-0.0","CAN_137","137","","","","","","527","<button class=""jspsych-btn""><img src=""stimuli/darkgreenblue.png"" style=""width: 200px;height: 200px;""></button>","1","darkgreenblue","mustard","[""darkgreenblue"",""mustard"",""low nameability""]","right-left","[""mustard"",""darkgreenblue""]","2","low nameability","17","right","response","1"
"html-audio-button-response","91","136482","0.0-70.0-1.0","CAN_137","137","","","","","","null","stimuli/bleep.m4a","null","darkgreenblue","mustard","[""darkgreenblue"",""mustard"",""low nameability""]","right-left","[""mustard"",""darkgreenblue""]","2","low nameability","17","right","audio_feedback","1"
"html-button-response","92","137003","0.0-71.0","CAN_137","137","","","","","","null","<button class=""jspsych-btn""><img src=""stimuli/white_square.png"" style=""width: 200px;height: 200px;""></button>","null","darkgreenblue","mustard","[""darkgreenblue"",""mustard"",""low nameability""]","right-left","[""mustard"",""darkgreenblue""]","2","low nameability","17","right","iti",""
"html-button-response","93","137438","0.0-72.0","CAN_137","137","","","","","","413","","0","turquoise","mustard","[""turquoise"",""mustard"",""low nameability""]","left-right","[""turquoise"",""mustard"",""low nameability""]","2","low nameability","18","left","trigger",""
"html-button-response","94","138061","0.0-73.0-0.0","CAN_137","137","","","","","","614","<button class=""jspsych-btn""><img src=""stimuli/turquoise.png"" style=""width: 200px;height: 200px;""></button>","0","turquoise","mustard","[""turquoise"",""mustard"",""low nameability""]","left-right","[""turquoise"",""mustard"",""low nameability""]","2","low nameability","18","left","response","1"
"html-audio-button-response","95","138267","0.0-73.0-1.0","CAN_137","137","","","","","","null","stimuli/bleep.m4a","null","turquoise","mustard","[""turquoise"",""mustard"",""low nameability""]","left-right","[""turquoise"",""mustard"",""low nameability""]","2","low nameability","18","left","audio_feedback","1"
"html-button-response","96","138790","0.0-74.0","CAN_137","137","","","","","","null","<button class=""jspsych-btn""><img src=""stimuli/white_square.png"" style=""width: 200px;height: 200px;""></button>","null","turquoise","mustard","[""turquoise"",""mustard"",""low nameability""]","left-right","[""turquoise"",""mustard"",""low nameability""]","2","low nameability","18","left","iti",""
"html-button-response","97","139235","0.0-75.0","CAN_137","137","","","","","","429","","0","red","blue","[""red"",""blue"",""high nameability""]","left-right","[""red"",""blue"",""high nameability""]","2","high nameability","19","left","trigger",""
"html-button-response","98","139860","0.0-76.0-0.0","CAN_137","137","","","","","","617","<button class=""jspsych-btn""><img src=""stimuli/red.png"" style=""width: 200px;height: 200px;""></button>","0","red","blue","[""red"",""blue"",""high nameability""]","left-right","[""red"",""blue"",""high nameability""]","2","high nameability","19","left","response","1"
"html-audio-button-response","99","140066","0.0-76.0-1.0","CAN_137","137","","","","","","null","stimuli/bleep.m4a","null","red","blue","[""red"",""blue"",""high nameability""]","left-right","[""red"",""blue"",""high nameability""]","2","high nameability","19","left","audio_feedback","1"
"html-button-response","100","140583","0.0-77.0","CAN_137","137","","","","","","null","<button class=""jspsych-btn""><img src=""stimuli/white_square.png"" style=""width: 200px;height: 200px;""></button>","null","red","blue","[""red"",""blue"",""high nameability""]","left-right","[""red"",""blue"",""high nameability""]","2","high nameability","19","left","iti",""
"html-button-response","101","141045","0.0-78.0","CAN_137","137","","","","","","442","","0","neonyellow","turquoise","[""neonyellow"",""turquoise"",""low nameability""]","left-right","[""neonyellow"",""turquoise"",""low nameability""]","2","low nameability","20","left","trigger",""
"html-button-response","102","141569","0.0-79.0-0.0","CAN_137","137","","","","","","515","<button class=""jspsych-btn""><img src=""stimuli/neonyellow.png"" style=""width: 200px;height: 200px;""></button>","0","neonyellow","turquoise","[""neonyellow"",""turquoise"",""low nameability""]","left-right","[""neonyellow"",""turquoise"",""low nameability""]","2","low nameability","20","left","response","1"
"html-audio-button-response","103","141774","0.0-79.0-1.0","CAN_137","137","","","","","","null","stimuli/bleep.m4a","null","neonyellow","turquoise","[""neonyellow"",""turquoise"",""low nameability""]","left-right","[""neonyellow"",""turquoise"",""low nameability""]","2","low nameability","20","left","audio_feedback","1"
"html-button-response","104","142289","0.0-80.0","CAN_137","137","","","","","","null","<button class=""jspsych-btn""><img src=""stimuli/white_square.png"" style=""width: 200px;height: 200px;""></button>","null","neonyellow","turquoise","[""neonyellow"",""turquoise"",""low nameability""]","left-right","[""neonyellow"",""turquoise"",""low nameability""]","2","low nameability","20","left","iti",""
"pavlovia","105","142343","0.0-81.0","CAN_137","137","","","","","","","","","","","","","","","","","","",""
"pavlovia","106","142352","0.0-82.0","CAN_137","137","","","","","","","","","","","","","","","","","","",""
"html-audio-button-response","107","143949","0.0-83.0","CAN_137","137","","","","","","1656","stimuli/tada.m4a","0","","","","","","","","","","",""
"html-button-response","108","144483","0.0-84.0","CAN_137","137","","","","","","527","","0","","","","","","","","","","",""
"html-button-response","109","145317","0.0-85.0","CAN_137","137","","","","","","824","","0","lightred","mustard","[""lightred"",""mustard"",""low nameability""]","left-right","[""lightred"",""mustard"",""low nameability""]","3","low nameability","21","left","trigger",""
"html-button-response","110","145879","0.0-86.0-0.0","CAN_137","137","","","","","","554","<button class=""jspsych-btn""><img src=""stimuli/lightred.png"" style=""width: 200px;height: 200px;""></button>","0","lightred","mustard","[""lightred"",""mustard"",""low nameability""]","left-right","[""lightred"",""mustard"",""low nameability""]","3","low nameability","21","left","response","1"
"html-audio-button-response","111","146087","0.0-86.0-1.0","CAN_137","137","","","","","","null","stimuli/bleep.m4a","null","lightred","mustard","[""lightred"",""mustard"",""low nameability""]","left-right","[""lightred"",""mustard"",""low nameability""]","3","low nameability","21","left","audio_feedback","1"
"html-button-response","112","146608","0.0-87.0","CAN_137","137","","","","","","null","<button class=""jspsych-btn""><img src=""stimuli/white_square.png"" style=""width: 200px;height: 200px;""></button>","null","lightred","mustard","[""lightred"",""mustard"",""low nameability""]","left-right","[""lightred"",""mustard"",""low nameability""]","3","low nameability","21","left","iti",""
"html-button-response","113","147086","0.0-88.0","CAN_137","137","","","","","","461","","0","darkgreenblue","pink","[""darkgreenblue"",""pink"",""low nameability""]","left-right","[""darkgreenblue"",""pink"",""low nameability""]","3","low nameability","22","left","trigger",""
"html-button-response","114","147650","0.0-89.0-0.0","CAN_137","137","","","","","","555","<button class=""jspsych-btn""><img src=""stimuli/darkgreenblue.png"" style=""width: 200px;height: 200px;""></button>","0","darkgreenblue","pink","[""darkgreenblue"",""pink"",""low nameability""]","left-right","[""darkgreenblue"",""pink"",""low nameability""]","3","low nameability","22","left","response","1"
"html-audio-button-response","115","147854","0.0-89.0-1.0","CAN_137","137","","","","","","null","stimuli/bleep.m4a","null","darkgreenblue","pink","[""darkgreenblue"",""pink"",""low nameability""]","left-right","[""darkgreenblue"",""pink"",""low nameability""]","3","low nameability","22","left","audio_feedback","1"
"html-button-response","116","148370","0.0-90.0","CAN_137","137","","","","","","null","<button class=""jspsych-btn""><img src=""stimuli/white_square.png"" style=""width: 200px;height: 200px;""></button>","null","darkgreenblue","pink","[""darkgreenblue"",""pink"",""low nameability""]","left-right","[""darkgreenblue"",""pink"",""low nameability""]","3","low nameability","22","left","iti",""
"html-button-response","117","148808","0.0-91.0","CAN_137","137","","","","","","421","","0","orange","purple","[""orange"",""purple"",""high nameability""]","left-right","[""orange"",""purple"",""high nameability""]","3","high nameability","23","left","trigger",""
"html-button-response","118","149363","0.0-92.0-0.0","CAN_137","137","","","","","","544","<button class=""jspsych-btn""><img src=""stimuli/orange.png"" style=""width: 200px;height: 200px;""></button>","0","orange","purple","[""orange"",""purple"",""high nameability""]","left-right","[""orange"",""purple"",""high nameability""]","3","high nameability","23","left","response","1"
"html-audio-button-response","119","149571","0.0-92.0-1.0","CAN_137","137","","","","","","null","stimuli/bleep.m4a","null","orange","purple","[""orange"",""purple"",""high nameability""]","left-right","[""orange"",""purple"",""high nameability""]","3","high nameability","23","left","audio_feedback","1"
"html-button-response","120","150087","0.0-93.0","CAN_137","137","","","","","","null","<button class=""jspsych-btn""><img src=""stimuli/white_square.png"" style=""width: 200px;height: 200px;""></button>","null","orange","purple","[""orange"",""purple"",""high nameability""]","left-right","[""orange"",""purple"",""high nameability""]","3","high nameability","23","left","iti",""
"html-button-response","121","150496","0.0-94.0","CAN_137","137","","","","","","388","","0","blue","purple","[""blue"",""purple"",""high nameability""]","right-left","[""purple"",""blue""]","3","high nameability","24","right","trigger",""
"html-button-response","122","151037","0.0-95.0-0.0","CAN_137","137","","","","","","535","<button class=""jspsych-btn""><img src=""stimuli/blue.png"" style=""width: 200px;height: 200px;""></button>","1","blue","purple","[""blue"",""purple"",""high nameability""]","right-left","[""purple"",""blue""]","3","high nameability","24","right","response","1"
"html-audio-button-response","123","151242","0.0-95.0-1.0","CAN_137","137","","","","","","null","stimuli/bleep.m4a","null","blue","purple","[""blue"",""purple"",""high nameability""]","right-left","[""purple"",""blue""]","3","high nameability","24","right","audio_feedback","1"
"html-button-response","124","151761","0.0-96.0","CAN_137","137","","","","","","null","<button class=""jspsych-btn""><img src=""stimuli/white_square.png"" style=""width: 200px;height: 200px;""></button>","null","blue","purple","[""blue"",""purple"",""high nameability""]","right-left","[""purple"",""blue""]","3","high nameability","24","right","iti",""
"html-button-response","125","152294","0.0-97.0","CAN_137","137","","","","","","519","","0","blue","brown","[""blue"",""brown"",""high nameability""]","right-left","[""brown"",""blue""]","3","high nameability","25","right","trigger",""
"html-button-response","126","152854","0.0-98.0-0.0","CAN_137","137","","","","","","550","<button class=""jspsych-btn""><img src=""stimuli/blue.png"" style=""width: 200px;height: 200px;""></button>","1","blue","brown","[""blue"",""brown"",""high nameability""]","right-left","[""brown"",""blue""]","3","high nameability","25","right","response","1"
"html-audio-button-response","127","153057","0.0-98.0-1.0","CAN_137","137","","","","","","null","stimuli/bleep.m4a","null","blue","brown","[""blue"",""brown"",""high nameability""]","right-left","[""brown"",""blue""]","3","high nameability","25","right","audio_feedback","1"
"html-button-response","128","153577","0.0-99.0","CAN_137","137","","","","","","null","<button class=""jspsych-btn""><img src=""stimuli/white_square.png"" style=""width: 200px;height: 200px;""></button>","null","blue","brown","[""blue"",""brown"",""high nameability""]","right-left","[""brown"",""blue""]","3","high nameability","25","right","iti",""
"html-button-response","129","154153","0.0-100.0","CAN_137","137","","","","","","559","","0","yellow","purple","[""yellow"",""purple"",""high nameability""]","right-left","[""purple"",""yellow""]","3","high nameability","26","right","trigger",""
"html-button-response","130","154728","0.0-101.0-0.0","CAN_137","137","","","","","","567","<button class=""jspsych-btn""><img src=""stimuli/yellow.png"" style=""width: 200px;height: 200px;""></button>","1","yellow","purple","[""yellow"",""purple"",""high nameability""]","right-left","[""purple"",""yellow""]","3","high nameability","26","right","response","1"
"html-audio-button-response","131","154939","0.0-101.0-1.0","CAN_137","137","","","","","","null","stimuli/bleep.m4a","null","yellow","purple","[""yellow"",""purple"",""high nameability""]","right-left","[""purple"",""yellow""]","3","high nameability","26","right","audio_feedback","1"
"html-button-response","132","155465","0.0-102.0","CAN_137","137","","","","","","null","<button class=""jspsych-btn""><img src=""stimuli/white_square.png"" style=""width: 200px;height: 200px;""></button>","null","yellow","purple","[""yellow"",""purple"",""high nameability""]","right-left","[""purple"",""yellow""]","3","high nameability","26","right","iti",""
"html-button-response","133","156185","0.0-103.0","CAN_137","137","","","","","","702","","0","blue","yellow","[""blue"",""yellow"",""high nameability""]","left-right","[""blue"",""yellow"",""high nameability""]","3","high nameability","27","left","trigger",""
"html-button-response","134","156767","0.0-104.0-0.0","CAN_137","137","","","","","","571","<button class=""jspsych-btn""><img src=""stimuli/blue.png"" style=""width: 200px;height: 200px;""></button>","0","blue","yellow","[""blue"",""yellow"",""high nameability""]","left-right","[""blue"",""yellow"",""high nameability""]","3","high nameability","27","left","response","1"
"html-audio-button-response","135","156969","0.0-104.0-1.0","CAN_137","137","","","","","","null","stimuli/bleep.m4a","null","blue","yellow","[""blue"",""yellow"",""high nameability""]","left-right","[""blue"",""yellow"",""high nameability""]","3","high nameability","27","left","audio_feedback","1"
"html-button-response","136","157487","0.0-105.0","CAN_137","137","","","","","","null","<button class=""jspsych-btn""><img src=""stimuli/white_square.png"" style=""width: 200px;height: 200px;""></button>","null","blue","yellow","[""blue"",""yellow"",""high nameability""]","left-right","[""blue"",""yellow"",""high nameability""]","3","high nameability","27","left","iti",""
"html-button-response","137","158238","0.0-106.0","CAN_137","137","","","","","","742","","0","purple","brown","[""purple"",""brown"",""high nameability""]","left-right","[""purple"",""brown"",""high nameability""]","3","high nameability","28","left","trigger",""
"html-button-response","138","158794","0.0-107.0-0.0","CAN_137","137","","","","","","549","<button class=""jspsych-btn""><img src=""stimuli/purple.png"" style=""width: 200px;height: 200px;""></button>","0","purple","brown","[""purple"",""brown"",""high nameability""]","left-right","[""purple"",""brown"",""high nameability""]","3","high nameability","28","left","response","1"
"html-audio-button-response","139","158999","0.0-107.0-1.0","CAN_137","137","","","","","","null","stimuli/bleep.m4a","null","purple","brown","[""purple"",""brown"",""high nameability""]","left-right","[""purple"",""brown"",""high nameability""]","3","high nameability","28","left","audio_feedback","1"
"html-button-response","140","159519","0.0-108.0","CAN_137","137","","","","","","null","<button class=""jspsych-btn""><img src=""stimuli/white_square.png"" style=""width: 200px;height: 200px;""></button>","null","purple","brown","[""purple"",""brown"",""high nameability""]","left-right","[""purple"",""brown"",""high nameability""]","3","high nameability","28","left","iti",""
"html-button-response","141","160026","0.0-109.0","CAN_137","137","","","","","","488","","0","turquoise","lightred","[""turquoise"",""lightred"",""low nameability""]","right-left","[""lightred"",""turquoise""]","3","low nameability","29","right","trigger",""
"html-button-response","142","160561","0.0-110.0-0.0","CAN_137","137","","","","","","525","<button class=""jspsych-btn""><img src=""stimuli/turquoise.png"" style=""width: 200px;height: 200px;""></button>","1","turquoise","lightred","[""turquoise"",""lightred"",""low nameability""]","right-left","[""lightred"",""turquoise""]","3","low nameability","29","right","response","1"
"html-audio-button-response","143","160762","0.0-110.0-1.0","CAN_137","137","","","","","","null","stimuli/bleep.m4a","null","turquoise","lightred","[""turquoise"",""lightred"",""low nameability""]","right-left","[""lightred"",""turquoise""]","3","low nameability","29","right","audio_feedback","1"
"html-button-response","144","161282","0.0-111.0","CAN_137","137","","","","","","null","<button class=""jspsych-btn""><img src=""stimuli/white_square.png"" style=""width: 200px;height: 200px;""></button>","null","turquoise","lightred","[""turquoise"",""lightred"",""low nameability""]","right-left","[""lightred"",""turquoise""]","3","low nameability","29","right","iti",""
"html-button-response","145","161884","0.0-112.0","CAN_137","137","","","","","","582","","0","red","yellow","[""red"",""yellow"",""high nameability""]","right-left","[""yellow"",""red""]","3","high nameability","30","right","trigger",""
"html-button-response","146","162396","0.0-113.0-0.0","CAN_137","137","","","","","","503","<button class=""jspsych-btn""><img src=""stimuli/red.png"" style=""width: 200px;height: 200px;""></button>","1","red","yellow","[""red"",""yellow"",""high nameability""]","right-left","[""yellow"",""red""]","3","high nameability","30","right","response","1"
"html-audio-button-response","147","162602","0.0-113.0-1.0","CAN_137","137","","","","","","null","stimuli/bleep.m4a","null","red","yellow","[""red"",""yellow"",""high nameability""]","right-left","[""yellow"",""red""]","3","high nameability","30","right","audio_feedback","1"
"html-button-response","148","163122","0.0-114.0","CAN_137","137","","","","","","null","<button class=""jspsych-btn""><img src=""stimuli/white_square.png"" style=""width: 200px;height: 200px;""></button>","null","red","yellow","[""red"",""yellow"",""high nameability""]","right-left","[""yellow"",""red""]","3","high nameability","30","right","iti",""
"pavlovia","149","163190","0.0-115.0","CAN_137","137","","","","","","","","","","","","","","","","","","",""
"pavlovia","150","163196","0.0-116.0","CAN_137","137","","","","","","","","","","","","","","","","","","",""
"html-audio-button-response","151","164810","0.0-117.0","CAN_137","137","","","","","","1688","stimuli/tada.m4a","0","","","","","","","","","","",""
"html-button-response","152","165356","0.0-118.0","CAN_137","137","","","","","","539","","0","","","","","","","","","","",""
"html-button-response","153","166177","0.0-119.0","CAN_137","137","","","","","","812","","0","pink","neonyellow","[""pink"",""neonyellow"",""low nameability""]","left-right","[""pink"",""neonyellow"",""low nameability""]","4","low nameability","31","left","trigger",""
"html-button-response","154","166769","0.0-120.0-0.0","CAN_137","137","","","","","","583","<button class=""jspsych-btn""><img src=""stimuli/pink.png"" style=""width: 200px;height: 200px;""></button>","0","pink","neonyellow","[""pink"",""neonyellow"",""low nameability""]","left-right","[""pink"",""neonyellow"",""low nameability""]","4","low nameability","31","left","response","1"
"html-audio-button-response","155","166977","0.0-120.0-1.0","CAN_137","137","","","","","","null","stimuli/bleep.m4a","null","pink","neonyellow","[""pink"",""neonyellow"",""low nameability""]","left-right","[""pink"",""neonyellow"",""low nameability""]","4","low nameability","31","left","audio_feedback","1"
"html-button-response","156","167494","0.0-121.0","CAN_137","137","","","","","","null","<button class=""jspsych-btn""><img src=""stimuli/white_square.png"" style=""width: 200px;height: 200px;""></button>","null","pink","neonyellow","[""pink"",""neonyellow"",""low nameability""]","left-right","[""pink"",""neonyellow"",""low nameability""]","4","low nameability","31","left","iti",""
"html-button-response","157","167956","0.0-122.0","CAN_137","137","","","","","","442","","0","blue","orange","[""blue"",""orange"",""high nameability""]","right-left","[""orange"",""blue""]","4","high nameability","32","right","trigger",""
"html-button-response","158","168435","0.0-123.0-0.0","CAN_137","137","","","","","","471","<button class=""jspsych-btn""><img src=""stimuli/blue.png"" style=""width: 200px;height: 200px;""></button>","1","blue","orange","[""blue"",""orange"",""high nameability""]","right-left","[""orange"",""blue""]","4","high nameability","32","right","response","1"
"html-audio-button-response","159","168638","0.0-123.0-1.0","CAN_137","137","","","","","","null","stimuli/bleep.m4a","null","blue","orange","[""blue"",""orange"",""high nameability""]","right-left","[""orange"",""blue""]","4","high nameability","32","right","audio_feedback","1"
"html-button-response","160","169158","0.0-124.0","CAN_137","137","","","","","","null","<button class=""jspsych-btn""><img src=""stimuli/white_square.png"" style=""width: 200px;height: 200px;""></button>","null","blue","orange","[""blue"",""orange"",""high nameability""]","right-left","[""orange"",""blue""]","4","high nameability","32","right","iti",""
"html-button-response","161","169504","0.0-125.0","CAN_137","137","","","","","","327","","0","purple","red","[""purple"",""red"",""high nameability""]","left-right","[""purple"",""red"",""high nameability""]","4","high nameability","33","left","trigger",""
"html-button-response","162","170082","0.0-126.0-0.0","CAN_137","137","","","","","","569","<button class=""jspsych-btn""><img src=""stimuli/purple.png"" style=""width: 200px;height: 200px;""></button>","0","purple","red","[""purple"",""red"",""high nameability""]","left-right","[""purple"",""red"",""high nameability""]","4","high nameability","33","left","response","1"
"html-audio-button-response","163","170285","0.0-126.0-1.0","CAN_137","137","","","","","","null","stimuli/bleep.m4a","null","purple","red","[""purple"",""red"",""high nameability""]","left-right","[""purple"",""red"",""high nameability""]","4","high nameability","33","left","audio_feedback","1"
"html-button-response","164","170810","0.0-127.0","CAN_137","137","","","","","","null","<button class=""jspsych-btn""><img src=""stimuli/white_square.png"" style=""width: 200px;height: 200px;""></button>","null","purple","red","[""purple"",""red"",""high nameability""]","left-right","[""purple"",""red"",""high nameability""]","4","high nameability","33","left","iti",""
"html-button-response","165","171333","0.0-128.0","CAN_137","137","","","","","","505","","0","brown","red","[""brown"",""red"",""high nameability""]","left-right","[""brown"",""red"",""high nameability""]","4","high nameability","34","left","trigger",""
"html-button-response","166","171938","0.0-129.0-0.0","CAN_137","137","","","","","","599","<button class=""jspsych-btn""><img src=""stimuli/brown.png"" style=""width: 200px;height: 200px;""></button>","0","brown","red","[""brown"",""red"",""high nameability""]","left-right","[""brown"",""red"",""high nameability""]","4","high nameability","34","left","response","1"
"html-audio-button-response","167","172142","0.0-129.0-1.0","CAN_137","137","","","","","","null","stimuli/bleep.m4a","null","brown","red","[""brown"",""red"",""high nameability""]","left-right","[""brown"",""red"",""high nameability""]","4","high nameability","34","left","audio_feedback","1"
"html-button-response","168","172664","0.0-130.0","CAN_137","137","","","","","","null","<button class=""jspsych-btn""><img src=""stimuli/white_square.png"" style=""width: 200px;height: 200px;""></button>","null","brown","red","[""brown"",""red"",""high nameability""]","left-right","[""brown"",""red"",""high nameability""]","4","high nameability","34","left","iti",""
"html-button-response","169","173142","0.0-131.0","CAN_137","137","","","","","","444","","0","orange","yellow","[""orange"",""yellow"",""high nameability""]","left-right","[""orange"",""yellow"",""high nameability""]","4","high nameability","35","left","trigger",""
"html-button-response","170","173681","0.0-132.0-0.0","CAN_137","137","","","","","","516","<button class=""jspsych-btn""><img src=""stimuli/orange.png"" style=""width: 200px;height: 200px;""></button>","0","orange","yellow","[""orange"",""yellow"",""high nameability""]","left-right","[""orange"",""yellow"",""high nameability""]","4","high nameability","35","left","response","1"
"html-audio-button-response","171","173897","0.0-132.0-1.0","CAN_137","137","","","","","","null","stimuli/bleep.m4a","null","orange","yellow","[""orange"",""yellow"",""high nameability""]","left-right","[""orange"",""yellow"",""high nameability""]","4","high nameability","35","left","audio_feedback","1"
"html-button-response","172","174428","0.0-133.0","CAN_137","137","","","","","","null","<button class=""jspsych-btn""><img src=""stimuli/white_square.png"" style=""width: 200px;height: 200px;""></button>","null","orange","yellow","[""orange"",""yellow"",""high nameability""]","left-right","[""orange"",""yellow"",""high nameability""]","4","high nameability","35","left","iti",""
"html-button-response","173","174943","0.0-134.0","CAN_137","137","","","","","","490","","0","purple","orange","[""purple"",""orange"",""high nameability""]","right-left","[""orange"",""purple""]","4","high nameability","36","right","trigger",""
"html-button-response","174","175450","0.0-135.0-0.0","CAN_137","137","","","","","","499","<button class=""jspsych-btn""><img src=""stimuli/purple.png"" style=""width: 200px;height: 200px;""></button>","1","purple","orange","[""purple"",""orange"",""high nameability""]","right-left","[""orange"",""purple""]","4","high nameability","36","right","response","1"
"html-audio-button-response","175","175660","0.0-135.0-1.0","CAN_137","137","","","","","","null","stimuli/bleep.m4a","null","purple","orange","[""purple"",""orange"",""high nameability""]","right-left","[""orange"",""purple""]","4","high nameability","36","right","audio_feedback","1"
"html-button-response","176","176186","0.0-136.0","CAN_137","137","","","","","","null","<button class=""jspsych-btn""><img src=""stimuli/white_square.png"" style=""width: 200px;height: 200px;""></button>","null","purple","orange","[""purple"",""orange"",""high nameability""]","right-left","[""orange"",""purple""]","4","high nameability","36","right","iti",""
"html-button-response","177","176683","0.0-137.0","CAN_137","137","","","","","","477","","0","pink","darkgreenblue","[""pink"",""darkgreenblue"",""low nameability""]","right-left","[""darkgreenblue"",""pink""]","4","low nameability","37","right","trigger",""
"html-button-response","178","177199","0.0-138.0-0.0","CAN_137","137","","","","","","504","<button class=""jspsych-btn""><img src=""stimuli/pink.png"" style=""width: 200px;height: 200px;""></button>","1","pink","darkgreenblue","[""pink"",""darkgreenblue"",""low nameability""]","right-left","[""darkgreenblue"",""pink""]","4","low nameability","37","right","response","1"
"html-audio-button-response","179","177413","0.0-138.0-1.0","CAN_137","137","","","","","","null","stimuli/bleep.m4a","null","pink","darkgreenblue","[""pink"",""darkgreenblue"",""low nameability""]","right-left","[""darkgreenblue"",""pink""]","4","low nameability","37","right","audio_feedback","1"
"html-button-response","180","177945","0.0-139.0","CAN_137","137","","","","","","null","<button class=""jspsych-btn""><img src=""stimuli/white_square.png"" style=""width: 200px;height: 200px;""></button>","null","pink","darkgreenblue","[""pink"",""darkgreenblue"",""low nameability""]","right-left","[""darkgreenblue"",""pink""]","4","low nameability","37","right","iti",""
"html-button-response","181","178377","0.0-140.0","CAN_137","137","","","","","","402","","0","blue","red","[""blue"",""red"",""high nameability""]","left-right","[""blue"",""red"",""high nameability""]","4","high nameability","38","left","trigger",""
"html-button-response","182","179028","0.0-141.0-0.0","CAN_137","137","","","","","","639","<button class=""jspsych-btn""><img src=""stimuli/blue.png"" style=""width: 200px;height: 200px;""></button>","0","blue","red","[""blue"",""red"",""high nameability""]","left-right","[""blue"",""red"",""high nameability""]","4","high nameability","38","left","response","1"
"html-audio-button-response","183","179243","0.0-141.0-1.0","CAN_137","137","","","","","","null","stimuli/bleep.m4a","null","blue","red","[""blue"",""red"",""high nameability""]","left-right","[""blue"",""red"",""high nameability""]","4","high nameability","38","left","audio_feedback","1"
"html-button-response","184","179763","0.0-142.0","CAN_137","137","","","","","","null","<button class=""jspsych-btn""><img src=""stimuli/white_square.png"" style=""width: 200px;height: 200px;""></button>","null","blue","red","[""blue"",""red"",""high nameability""]","left-right","[""blue"",""red"",""high nameability""]","4","high nameability","38","left","iti",""
"html-button-response","185","180320","0.0-143.0","CAN_137","137","","","","","","537","","0","red","orange","[""red"",""orange"",""high nameability""]","right-left","[""orange"",""red""]","4","high nameability","39","right","trigger",""
"html-button-response","186","180893","0.0-144.0-0.0","CAN_137","137","","","","","","565","<button class=""jspsych-btn""><img src=""stimuli/red.png"" style=""width: 200px;height: 200px;""></button>","1","red","orange","[""red"",""orange"",""high nameability""]","right-left","[""orange"",""red""]","4","high nameability","39","right","response","1"
"html-audio-button-response","187","181098","0.0-144.0-1.0","CAN_137","137","","","","","","null","stimuli/bleep.m4a","null","red","orange","[""red"",""orange"",""high nameability""]","right-left","[""orange"",""red""]","4","high nameability","39","right","audio_feedback","1"
"html-button-response","188","181625","0.0-145.0","CAN_137","137","","","","","","null","<button class=""jspsych-btn""><img src=""stimuli/white_square.png"" style=""width: 200px;height: 200px;""></button>","null","red","orange","[""red"",""orange"",""high nameability""]","right-left","[""orange"",""red""]","4","high nameability","39","right","iti",""
"html-button-response","189","182185","0.0-146.0","CAN_137","137","","","","","","533","","0","turquoise","darkgreenblue","[""turquoise"",""darkgreenblue"",""low nameability""]","left-right","[""turquoise"",""darkgreenblue"",""low nameability""]","4","low nameability","40","left","trigger",""
"html-button-response","190","182754","0.0-147.0-0.0","CAN_137","137","","","","","","560","<button class=""jspsych-btn""><img src=""stimuli/turquoise.png"" style=""width: 200px;height: 200px;""></button>","0","turquoise","darkgreenblue","[""turquoise"",""darkgreenblue"",""low nameability""]","left-right","[""turquoise"",""darkgreenblue"",""low nameability""]","4","low nameability","40","left","response","1"
"html-audio-button-response","191","182962","0.0-147.0-1.0","CAN_137","137","","","","","","null","stimuli/bleep.m4a","null","turquoise","darkgreenblue","[""turquoise"",""darkgreenblue"",""low nameability""]","left-right","[""turquoise"",""darkgreenblue"",""low nameability""]","4","low nameability","40","left","audio_feedback","1"
"html-button-response","192","183486","0.0-148.0","CAN_137","137","","","","","","null","<button class=""jspsych-btn""><img src=""stimuli/white_square.png"" style=""width: 200px;height: 200px;""></button>","null","turquoise","darkgreenblue","[""turquoise"",""darkgreenblue"",""low nameability""]","left-right","[""turquoise"",""darkgreenblue"",""low nameability""]","4","low nameability","40","left","iti",""
"pavlovia","193","183608","0.0-149.0","CAN_137","137","","","","","","","","","","","","","","","","","","",""
"pavlovia","194","183619","0.0-150.0","CAN_137","137","","","","","","","","","","","","","","","","","","",""
"html-audio-button-response","195","185348","0.0-151.0","CAN_137","137","","","","","","1864","stimuli/tada.m4a","0","","","","","","","","","","",""
"html-button-response","196","185981","0.0-152.0","CAN_137","137","","","","","","626","","0","","","","","","","","","","",""
"html-button-response","197","186598","0.0-153.0","CAN_137","137","","","","","","604","","0","lightred","neonyellow","[""lightred"",""neonyellow"",""low nameability""]","right-left","[""neonyellow"",""lightred""]","5","low nameability","41","right","trigger",""
"html-button-response","198","187121","0.0-154.0-0.0","CAN_137","137","","","","","","513","<button class=""jspsych-btn""><img src=""stimuli/lightred.png"" style=""width: 200px;height: 200px;""></button>","1","lightred","neonyellow","[""lightred"",""neonyellow"",""low nameability""]","right-left","[""neonyellow"",""lightred""]","5","low nameability","41","right","response","1"
"html-audio-button-response","199","187327","0.0-154.0-1.0","CAN_137","137","","","","","","null","stimuli/bleep.m4a","null","lightred","neonyellow","[""lightred"",""neonyellow"",""low nameability""]","right-left","[""neonyellow"",""lightred""]","5","low nameability","41","right","audio_feedback","1"
"html-button-response","200","187849","0.0-155.0","CAN_137","137","","","","","","null","<button class=""jspsych-btn""><img src=""stimuli/white_square.png"" style=""width: 200px;height: 200px;""></button>","null","lightred","neonyellow","[""lightred"",""neonyellow"",""low nameability""]","right-left","[""neonyellow"",""lightred""]","5","low nameability","41","right","iti",""
"html-button-response","201","188189","0.0-156.0","CAN_137","137","","","","","","322","","0","yellow","red","[""yellow"",""red"",""high nameability""]","right-left","[""red"",""yellow""]","5","high nameability","42","right","trigger",""
"html-button-response","202","188743","0.0-157.0-0.0","CAN_137","137","","","","","","543","<button class=""jspsych-btn""><img src=""stimuli/yellow.png"" style=""width: 200px;height: 200px;""></button>","1","yellow","red","[""yellow"",""red"",""high nameability""]","right-left","[""red"",""yellow""]","5","high nameability","42","right","response","1"
"html-audio-button-response","203","188946","0.0-157.0-1.0","CAN_137","137","","","","","","null","stimuli/bleep.m4a","null","yellow","red","[""yellow"",""red"",""high nameability""]","right-left","[""red"",""yellow""]","5","high nameability","42","right","audio_feedback","1"
"html-button-response","204","189467","0.0-158.0","CAN_137","137","","","","","","null","<button class=""jspsych-btn""><img src=""stimuli/white_square.png"" style=""width: 200px;height: 200px;""></button>","null","yellow","red","[""yellow"",""red"",""high nameability""]","right-left","[""red"",""yellow""]","5","high nameability","42","right","iti",""
"html-button-response","205","189952","0.0-159.0","CAN_137","137","","","","","","458","","0","lightred","darkgreenblue","[""lightred"",""darkgreenblue"",""low nameability""]","right-left","[""darkgreenblue"",""lightred""]","5","low nameability","43","right","trigger",""
"html-button-response","206","190478","0.0-160.0-0.0","CAN_137","137","","","","","","519","<button class=""jspsych-btn""><img src=""stimuli/lightred.png"" style=""width: 200px;height: 200px;""></button>","1","lightred","darkgreenblue","[""lightred"",""darkgreenblue"",""low nameability""]","right-left","[""darkgreenblue"",""lightred""]","5","low nameability","43","right","response","1"
"html-audio-button-response","207","190683","0.0-160.0-1.0","CAN_137","137","","","","","","null","stimuli/bleep.m4a","null","lightred","darkgreenblue","[""lightred"",""darkgreenblue"",""low nameability""]","right-left","[""darkgreenblue"",""lightred""]","5","low nameability","43","right","audio_feedback","1"
"html-button-response","208","191205","0.0-161.0","CAN_137","137","","","","","","null","<button class=""jspsych-btn""><img src=""stimuli/white_square.png"" style=""width: 200px;height: 200px;""></button>","null","lightred","darkgreenblue","[""lightred"",""darkgreenblue"",""low nameability""]","right-left","[""darkgreenblue"",""lightred""]","5","low nameability","43","right","iti",""
"html-button-response","209","191634","0.0-162.0","CAN_137","137","","","","","","409","","0","neonyellow","mustard","[""neonyellow"",""mustard"",""low nameability""]","left-right","[""neonyellow"",""mustard"",""low nameability""]","5","low nameability","44","left","trigger",""
"html-button-response","210","192211","0.0-163.0-0.0","CAN_137","137","","","","","","565","<button class=""jspsych-btn""><img src=""stimuli/neonyellow.png"" style=""width: 200px;height: 200px;""></button>","0","neonyellow","mustard","[""neonyellow"",""mustard"",""low nameability""]","left-right","[""neonyellow"",""mustard"",""low nameability""]","5","low nameability","44","left","response","1"
"html-audio-button-response","211","192418","0.0-163.0-1.0","CAN_137","137","","","","","","null","stimuli/bleep.m4a","null","neonyellow","mustard","[""neonyellow"",""mustard"",""low nameability""]","left-right","[""neonyellow"",""mustard"",""low nameability""]","5","low nameability","44","left","audio_feedback","1"
"html-button-response","212","192936","0.0-164.0","CAN_137","137","","","","","","null","<button class=""jspsych-btn""><img src=""stimuli/white_square.png"" style=""width: 200px;height: 200px;""></button>","null","neonyellow","mustard","[""neonyellow"",""mustard"",""low nameability""]","left-right","[""neonyellow"",""mustard"",""low nameability""]","5","low nameability","44","left","iti",""
"html-button-response","213","193322","0.0-165.0","CAN_137","137","","","","","","371","","0","pink","lightred","[""pink"",""lightred"",""low nameability""]","right-left","[""lightred"",""pink""]","5","low nameability","45","right","trigger",""
"html-button-response","214","193887","0.0-166.0-0.0","CAN_137","137","","","","","","556","<button class=""jspsych-btn""><img src=""stimuli/pink.png"" style=""width: 200px;height: 200px;""></button>","1","pink","lightred","[""pink"",""lightred"",""low nameability""]","right-left","[""lightred"",""pink""]","5","low nameability","45","right","response","1"
"html-audio-button-response","215","194095","0.0-166.0-1.0","CAN_137","137","","","","","","null","stimuli/bleep.m4a","null","pink","lightred","[""pink"",""lightred"",""low nameability""]","right-left","[""lightred"",""pink""]","5","low nameability","45","right","audio_feedback","1"
"html-button-response","216","194614","0.0-167.0","CAN_137","137","","","","","","null","<button class=""jspsych-btn""><img src=""stimuli/white_square.png"" style=""width: 200px;height: 200px;""></button>","null","pink","lightred","[""pink"",""lightred"",""low nameability""]","right-left","[""lightred"",""pink""]","5","low nameability","45","right","iti",""
"html-button-response","217","194781","0.0-168.0","CAN_137","137","","","","","","150","","0","mustard","lightred","[""mustard"",""lightred"",""low nameability""]","left-right","[""mustard"",""lightred"",""low nameability""]","5","low nameability","46","left","trigger",""
"html-button-response","218","195466","0.0-169.0-0.0","CAN_137","137","","","","","","675","<button class=""jspsych-btn""><img src=""stimuli/mustard.png"" style=""width: 200px;height: 200px;""></button>","0","mustard","lightred","[""mustard"",""lightred"",""low nameability""]","left-right","[""mustard"",""lightred"",""low nameability""]","5","low nameability","46","left","response","1"
"html-audio-button-response","219","195676","0.0-169.0-1.0","CAN_137","137","","","","","","null","stimuli/bleep.m4a","null","mustard","lightred","[""mustard"",""lightred"",""low nameability""]","left-right","[""mustard"",""lightred"",""low nameability""]","5","low nameability","46","left","audio_feedback","1"
"html-button-response","220","196193","0.0-170.0","CAN_137","137","","","","","","null","<button class=""jspsych-btn""><img src=""stimuli/white_square.png"" style=""width: 200px;height: 200px;""></button>","null","mustard","lightred","[""mustard"",""lightred"",""low nameability""]","left-right","[""mustard"",""lightred"",""low nameability""]","5","low nameability","46","left","iti",""
"html-button-response","221","196569","0.0-171.0","CAN_137","137","","","","","","357","","0","turquoise","neonyellow","[""turquoise"",""neonyellow"",""low nameability""]","left-right","[""turquoise"",""neonyellow"",""low nameability""]","5","low nameability","47","left","trigger",""
"html-button-response","222","197213","0.0-172.0-0.0","CAN_137","137","","","","","","637","<button class=""jspsych-btn""><img src=""stimuli/turquoise.png"" style=""width: 200px;height: 200px;""></button>","0","turquoise","neonyellow","[""turquoise"",""neonyellow"",""low nameability""]","left-right","[""turquoise"",""neonyellow"",""low nameability""]","5","low nameability","47","left","response","1"
"html-audio-button-response","223","197418","0.0-172.0-1.0","CAN_137","137","","","","","","null","stimuli/bleep.m4a","null","turquoise","neonyellow","[""turquoise"",""neonyellow"",""low nameability""]","left-right","[""turquoise"",""neonyellow"",""low nameability""]","5","low nameability","47","left","audio_feedback","1"
"html-button-response","224","197938","0.0-173.0","CAN_137","137","","","","","","null","<button class=""jspsych-btn""><img src=""stimuli/white_square.png"" style=""width: 200px;height: 200px;""></button>","null","turquoise","neonyellow","[""turquoise"",""neonyellow"",""low nameability""]","left-right","[""turquoise"",""neonyellow"",""low nameability""]","5","low nameability","47","left","iti",""
"html-button-response","225","198345","0.0-174.0","CAN_137","137","","","","","","388","","0","lightred","pink","[""lightred"",""pink"",""low nameability""]","right-left","[""pink"",""lightred""]","5","low nameability","48","right","trigger",""
"html-button-response","226","198877","0.0-175.0-0.0","CAN_137","137","","","","","","522","<button class=""jspsych-btn""><img src=""stimuli/lightred.png"" style=""width: 200px;height: 200px;""></button>","1","lightred","pink","[""lightred"",""pink"",""low nameability""]","right-left","[""pink"",""lightred""]","5","low nameability","48","right","response","1"
"html-audio-button-response","227","199083","0.0-175.0-1.0","CAN_137","137","","","","","","null","stimuli/bleep.m4a","null","lightred","pink","[""lightred"",""pink"",""low nameability""]","right-left","[""pink"",""lightred""]","5","low nameability","48","right","audio_feedback","1"
"html-button-response","228","199602","0.0-176.0","CAN_137","137","","","","","","null","<button class=""jspsych-btn""><img src=""stimuli/white_square.png"" style=""width: 200px;height: 200px;""></button>","null","lightred","pink","[""lightred"",""pink"",""low nameability""]","right-left","[""pink"",""lightred""]","5","low nameability","48","right","iti",""
"html-button-response","229","199983","0.0-177.0","CAN_137","137","","","","","","366","","0","neonyellow","lightred","[""neonyellow"",""lightred"",""low nameability""]","left-right","[""neonyellow"",""lightred"",""low nameability""]","5","low nameability","49","left","trigger",""
"html-button-response","230","200540","0.0-178.0-0.0","CAN_137","137","","","","","","548","<button class=""jspsych-btn""><img src=""stimuli/neonyellow.png"" style=""width: 200px;height: 200px;""></button>","0","neonyellow","lightred","[""neonyellow"",""lightred"",""low nameability""]","left-right","[""neonyellow"",""lightred"",""low nameability""]","5","low nameability","49","left","response","1"
"html-audio-button-response","231","200743","0.0-178.0-1.0","CAN_137","137","","","","","","null","stimuli/bleep.m4a","null","neonyellow","lightred","[""neonyellow"",""lightred"",""low nameability""]","left-right","[""neonyellow"",""lightred"",""low nameability""]","5","low nameability","49","left","audio_feedback","1"
"html-button-response","232","201261","0.0-179.0","CAN_137","137","","","","","","null","<button class=""jspsych-btn""><img src=""stimuli/white_square.png"" style=""width: 200px;height: 200px;""></button>","null","neonyellow","lightred","[""neonyellow"",""lightred"",""low nameability""]","left-right","[""neonyellow"",""lightred"",""low nameability""]","5","low nameability","49","left","iti",""
"html-button-response","233","201680","0.0-180.0","CAN_137","137","","","","","","392","","0","purple","yellow","[""purple"",""yellow"",""high nameability""]","right-left","[""yellow"",""purple""]","5","high nameability","50","right","trigger",""
"html-button-response","234","202232","0.0-181.0-0.0","CAN_137","137","","","","","","540","<button class=""jspsych-btn""><img src=""stimuli/purple.png"" style=""width: 200px;height: 200px;""></button>","1","purple","yellow","[""purple"",""yellow"",""high nameability""]","right-left","[""yellow"",""purple""]","5","high nameability","50","right","response","1"
"html-audio-button-response","235","202434","0.0-181.0-1.0","CAN_137","137","","","","","","null","stimuli/bleep.m4a","null","purple","yellow","[""purple"",""yellow"",""high nameability""]","right-left","[""yellow"",""purple""]","5","high nameability","50","right","audio_feedback","1"
"html-button-response","236","202952","0.0-182.0","CAN_137","137","","","","","","null","<button class=""jspsych-btn""><img src=""stimuli/white_square.png"" style=""width: 200px;height: 200px;""></button>","null","purple","yellow","[""purple"",""yellow"",""high nameability""]","right-left","[""yellow"",""purple""]","5","high nameability","50","right","iti",""
"pavlovia","237","203054","0.0-183.0","CAN_137","137","","","","","","","","","","","","","","","","","","",""
"pavlovia","238","203062","0.0-184.0","CAN_137","137","","","","","","","","","","","","","","","","","","",""
"html-audio-button-response","239","204811","0.0-185.0","CAN_137","137","","","","","","1856","stimuli/tada.m4a","0","","","","","","","","","","",""
"html-button-response","240","205981","0.0-186.0","CAN_137","137","","","","","","1163","","0","","","","","","","","","","",""
"html-button-response","241","206594","0.0-187.0","CAN_137","137","","","","","","597","","0","orange","blue","[""orange"",""blue"",""high nameability""]","right-left","[""blue"",""orange""]","6","high nameability","51","right","trigger",""
"html-button-response","242","207092","0.0-188.0-0.0","CAN_137","137","","","","","","490","<button class=""jspsych-btn""><img src=""stimuli/orange.png"" style=""width: 200px;height: 200px;""></button>","1","orange","blue","[""orange"",""blue"",""high nameability""]","right-left","[""blue"",""orange""]","6","high nameability","51","right","response","1"
"html-audio-button-response","243","207297","0.0-188.0-1.0","CAN_137","137","","","","","","null","stimuli/bleep.m4a","null","orange","blue","[""orange"",""blue"",""high nameability""]","right-left","[""blue"",""orange""]","6","high nameability","51","right","audio_feedback","1"
"html-button-response","244","207817","0.0-189.0","CAN_137","137","","","","","","null","<button class=""jspsych-btn""><img src=""stimuli/white_square.png"" style=""width: 200px;height: 200px;""></button>","null","orange","blue","[""orange"",""blue"",""high nameability""]","right-left","[""blue"",""orange""]","6","high nameability","51","right","iti",""
"html-button-response","245","208468","0.0-190.0","CAN_137","137","","","","","","642","","0","mustard","turquoise","[""mustard"",""turquoise"",""low nameability""]","right-left","[""turquoise"",""mustard""]","6","low nameability","52","right","trigger",""
"html-button-response","246","209000","0.0-191.0-0.0","CAN_137","137","","","","","","520","<button class=""jspsych-btn""><img src=""stimuli/mustard.png"" style=""width: 200px;height: 200px;""></button>","1","mustard","turquoise","[""mustard"",""turquoise"",""low nameability""]","right-left","[""turquoise"",""mustard""]","6","low nameability","52","right","response","1"
"html-audio-button-response","247","209207","0.0-191.0-1.0","CAN_137","137","","","","","","null","stimuli/bleep.m4a","null","mustard","turquoise","[""mustard"",""turquoise"",""low nameability""]","right-left","[""turquoise"",""mustard""]","6","low nameability","52","right","audio_feedback","1"
"html-button-response","248","209722","0.0-192.0","CAN_137","137","","","","","","null","<button class=""jspsych-btn""><img src=""stimuli/white_square.png"" style=""width: 200px;height: 200px;""></button>","null","mustard","turquoise","[""mustard"",""turquoise"",""low nameability""]","right-left","[""turquoise"",""mustard""]","6","low nameability","52","right","iti",""
"html-button-response","249","210146","0.0-193.0","CAN_137","137","","","","","","417","","0","neonyellow","darkgreenblue","[""neonyellow"",""darkgreenblue"",""low nameability""]","right-left","[""darkgreenblue"",""neonyellow""]","6","low nameability","53","right","trigger",""
"html-button-response","250","210694","0.0-194.0-0.0","CAN_137","137","","","","","","539","<button class=""jspsych-btn""><img src=""stimuli/neonyellow.png"" style=""width: 200px;height: 200px;""></button>","1","neonyellow","darkgreenblue","[""neonyellow"",""darkgreenblue"",""low nameability""]","right-left","[""darkgreenblue"",""neonyellow""]","6","low nameability","53","right","response","1"
"html-audio-button-response","251","210894","0.0-194.0-1.0","CAN_137","137","","","","","","null","stimuli/bleep.m4a","null","neonyellow","darkgreenblue","[""neonyellow"",""darkgreenblue"",""low nameability""]","right-left","[""darkgreenblue"",""neonyellow""]","6","low nameability","53","right","audio_feedback","1"
"html-button-response","252","211411","0.0-195.0","CAN_137","137","","","","","","null","<button class=""jspsych-btn""><img src=""stimuli/white_square.png"" style=""width: 200px;height: 200px;""></button>","null","neonyellow","darkgreenblue","[""neonyellow"",""darkgreenblue"",""low nameability""]","right-left","[""darkgreenblue"",""neonyellow""]","6","low nameability","53","right","iti",""
"html-button-response","253","211853","0.0-196.0","CAN_137","137","","","","","","423","","0","darkgreenblue","turquoise","[""darkgreenblue"",""turquoise"",""low nameability""]","left-right","[""darkgreenblue"",""turquoise"",""low nameability""]","6","low nameability","54","left","trigger",""
"html-button-response","254","212483","0.0-197.0-0.0","CAN_137","137","","","","","","622","<button class=""jspsych-btn""><img src=""stimuli/darkgreenblue.png"" style=""width: 200px;height: 200px;""></button>","0","darkgreenblue","turquoise","[""darkgreenblue"",""turquoise"",""low nameability""]","left-right","[""darkgreenblue"",""turquoise"",""low nameability""]","6","low nameability","54","left","response","1"
"html-audio-button-response","255","212686","0.0-197.0-1.0","CAN_137","137","","","","","","null","stimuli/bleep.m4a","null","darkgreenblue","turquoise","[""darkgreenblue"",""turquoise"",""low nameability""]","left-right","[""darkgreenblue"",""turquoise"",""low nameability""]","6","low nameability","54","left","audio_feedback","1"
"html-button-response","256","213202","0.0-198.0","CAN_137","137","","","","","","null","<button class=""jspsych-btn""><img src=""stimuli/white_square.png"" style=""width: 200px;height: 200px;""></button>","null","darkgreenblue","turquoise","[""darkgreenblue"",""turquoise"",""low nameability""]","left-right","[""darkgreenblue"",""turquoise"",""low nameability""]","6","low nameability","54","left","iti",""
"html-button-response","257","213617","0.0-199.0","CAN_137","137","","","","","","399","","0","brown","blue","[""brown"",""blue"",""high nameability""]","left-right","[""brown"",""blue"",""high nameability""]","6","high nameability","55","left","trigger",""
"html-button-response","258","214151","0.0-200.0-0.0","CAN_137","137","","","","","","528","<button class=""jspsych-btn""><img src=""stimuli/brown.png"" style=""width: 200px;height: 200px;""></button>","0","brown","blue","[""brown"",""blue"",""high nameability""]","left-right","[""brown"",""blue"",""high nameability""]","6","high nameability","55","left","response","1"
"html-audio-button-response","259","214357","0.0-200.0-1.0","CAN_137","137","","","","","","null","stimuli/bleep.m4a","null","brown","blue","[""brown"",""blue"",""high nameability""]","left-right","[""brown"",""blue"",""high nameability""]","6","high nameability","55","left","audio_feedback","1"
"html-button-response","260","214878","0.0-201.0","CAN_137","137","","","","","","null","<button class=""jspsych-btn""><img src=""stimuli/white_square.png"" style=""width: 200px;height: 200px;""></button>","null","brown","blue","[""brown"",""blue"",""high nameability""]","left-right","[""brown"",""blue"",""high nameability""]","6","high nameability","55","left","iti",""
"html-button-response","261","215272","0.0-202.0","CAN_137","137","","","","","","377","","0","darkgreenblue","neonyellow","[""darkgreenblue"",""neonyellow"",""low nameability""]","right-left","[""neonyellow"",""darkgreenblue""]","6","low nameability","56","right","trigger",""
"html-button-response","262","215822","0.0-203.0-0.0","CAN_137","137","","","","","","541","<button class=""jspsych-btn""><img src=""stimuli/darkgreenblue.png"" style=""width: 200px;height: 200px;""></button>","1","darkgreenblue","neonyellow","[""darkgreenblue"",""neonyellow"",""low nameability""]","right-left","[""neonyellow"",""darkgreenblue""]","6","low nameability","56","right","response","1"
"html-audio-button-response","263","216025","0.0-203.0-1.0","CAN_137","137","","","","","","null","stimuli/bleep.m4a","null","darkgreenblue","neonyellow","[""darkgreenblue"",""neonyellow"",""low nameability""]","right-left","[""neonyellow"",""darkgreenblue""]","6","low nameability","56","right","audio_feedback","1"
"html-button-response","264","216542","0.0-204.0","CAN_137","137","","","","","","null","<button class=""jspsych-btn""><img src=""stimuli/white_square.png"" style=""width: 200px;height: 200px;""></button>","null","darkgreenblue","neonyellow","[""darkgreenblue"",""neonyellow"",""low nameability""]","right-left","[""neonyellow"",""darkgreenblue""]","6","low nameability","56","right","iti",""
"html-button-response","265","216987","0.0-205.0","CAN_137","137","","","","","","425","","0","red","purple","[""red"",""purple"",""high nameability""]","right-left","[""purple"",""red""]","6","high nameability","57","right","trigger",""
"html-button-response","266","217492","0.0-206.0-0.0","CAN_137","137","","","","","","495","<button class=""jspsych-btn""><img src=""stimuli/red.png"" style=""width: 200px;height: 200px;""></button>","1","red","purple","[""red"",""purple"",""high nameability""]","right-left","[""purple"",""red""]","6","high nameability","57","right","response","1"
"html-audio-button-response","267","217694","0.0-206.0-1.0","CAN_137","137","","","","","","null","stimuli/bleep.m4a","null","red","purple","[""red"",""purple"",""high nameability""]","right-left","[""purple"",""red""]","6","high nameability","57","right","audio_feedback","1"
"html-button-response","268","218215","0.0-207.0","CAN_137","137","","","","","","null","<button class=""jspsych-btn""><img src=""stimuli/white_square.png"" style=""width: 200px;height: 200px;""></button>","null","red","purple","[""red"",""purple"",""high nameability""]","right-left","[""purple"",""red""]","6","high nameability","57","right","iti",""
"html-button-response","269","218652","0.0-208.0","CAN_137","137","","","","","","415","","0","yellow","blue","[""yellow"",""blue"",""high nameability""]","left-right","[""yellow"",""blue"",""high nameability""]","6","high nameability","58","left","trigger",""
"html-button-response","270","219244","0.0-209.0-0.0","CAN_137","137","","","","","","577","<button class=""jspsych-btn""><img src=""stimuli/yellow.png"" style=""width: 200px;height: 200px;""></button>","0","yellow","blue","[""yellow"",""blue"",""high nameability""]","left-right","[""yellow"",""blue"",""high nameability""]","6","high nameability","58","left","response","1"
"html-audio-button-response","271","219446","0.0-209.0-1.0","CAN_137","137","","","","","","null","stimuli/bleep.m4a","null","yellow","blue","[""yellow"",""blue"",""high nameability""]","left-right","[""yellow"",""blue"",""high nameability""]","6","high nameability","58","left","audio_feedback","1"
"html-button-response","272","219962","0.0-210.0","CAN_137","137","","","","","","null","<button class=""jspsych-btn""><img src=""stimuli/white_square.png"" style=""width: 200px;height: 200px;""></button>","null","yellow","blue","[""yellow"",""blue"",""high nameability""]","left-right","[""yellow"",""blue"",""high nameability""]","6","high nameability","58","left","iti",""
"html-button-response","273","220399","0.0-211.0","CAN_137","137","","","","","","413","","0","mustard","pink","[""mustard"",""pink"",""low nameability""]","right-left","[""pink"",""mustard""]","6","low nameability","59","right","trigger",""
"html-button-response","274","220932","0.0-212.0-0.0","CAN_137","137","","","","","","525","<button class=""jspsych-btn""><img src=""stimuli/mustard.png"" style=""width: 200px;height: 200px;""></button>","1","mustard","pink","[""mustard"",""pink"",""low nameability""]","right-left","[""pink"",""mustard""]","6","low nameability","59","right","response","1"
"html-audio-button-response","275","221139","0.0-212.0-1.0","CAN_137","137","","","","","","null","stimuli/bleep.m4a","null","mustard","pink","[""mustard"",""pink"",""low nameability""]","right-left","[""pink"",""mustard""]","6","low nameability","59","right","audio_feedback","1"
"html-button-response","276","221660","0.0-213.0","CAN_137","137","","","","","","null","<button class=""jspsych-btn""><img src=""stimuli/white_square.png"" style=""width: 200px;height: 200px;""></button>","null","mustard","pink","[""mustard"",""pink"",""low nameability""]","right-left","[""pink"",""mustard""]","6","low nameability","59","right","iti",""
"html-button-response","277","222081","0.0-214.0","CAN_137","137","","","","","","402","","0","mustard","neonyellow","[""mustard"",""neonyellow"",""low nameability""]","left-right","[""mustard"",""neonyellow"",""low nameability""]","6","low nameability","60","left","trigger",""
"html-button-response","278","222690","0.0-215.0-0.0","CAN_137","137","","","","","","599","<button class=""jspsych-btn""><img src=""stimuli/mustard.png"" style=""width: 200px;height: 200px;""></button>","0","mustard","neonyellow","[""mustard"",""neonyellow"",""low nameability""]","left-right","[""mustard"",""neonyellow"",""low nameability""]","6","low nameability","60","left","response","1"
"html-audio-button-response","279","222902","0.0-215.0-1.0","CAN_137","137","","","","","","null","stimuli/bleep.m4a","null","mustard","neonyellow","[""mustard"",""neonyellow"",""low nameability""]","left-right","[""mustard"",""neonyellow"",""low nameability""]","6","low nameability","60","left","audio_feedback","1"
"html-button-response","280","223420","0.0-216.0","CAN_137","137","","","","","","null","<button class=""jspsych-btn""><img src=""stimuli/white_square.png"" style=""width: 200px;height: 200px;""></button>","null","mustard","neonyellow","[""mustard"",""neonyellow"",""low nameability""]","left-right","[""mustard"",""neonyellow"",""low nameability""]","6","low nameability","60","left","iti",""
