"trial_type","trial_index","time_elapsed","internal_node_id","subject_id","seed","success","timeout","failed_images","failed_audio","failed_video","rt","stimulus","response","target","foil","choices","combination_order","choices_in_order","round","condition","trial_counter","target_location","trial_kind","correct"
"pavlovia","0","21","0.0-0.0","CAN_147","147","","","","","","","","","","","","","","","","","","",""
"preload","1","717","0.0-1.0","CAN_147","147","true","false","[]","[]","[]","","","","","","","","","","","","","",""
"fullscreen","2","354998","0.0-2.0","CAN_147","147","true","","","","","","","","","","","","","","","","","",""
"html-button-response","3","407728","0.0-3.0","CAN_147","147","","","","","","52689","","0","","","","","","","","","","",""
"html-button-response","4","414436","0.0-4.0","CAN_147","147","","","","","","6695","","0","star","square","[""square"",""star""]","left-right","[""square"",""star""]","1","practice","1","right","trigger",""
"html-button-response","5","422735","0.0-5.0-0.0","CAN_147","147","","","","","","8283","<button class=""jspsych-btn""><img src=""stimuli/star.png"" style=""width: 200px;height: 200px;""></button>","1","star","square","[""square"",""star""]","left-right","[""square"",""star""]","1","practice","1","right","response","1"
"html-audio-button-response","6","422950","0.0-5.0-1.0","CAN_147","147","","","","","","null","stimuli/bleep.m4a","null","star","square","[""square"",""star""]","left-right","[""square"",""star""]","1","practice","1","right","audio_feedback","1"
"html-button-response","7","423484","0.0-6.0","CAN_147","147","","","","","","null","<button class=""jspsych-btn""><img src=""stimuli/white_square.png"" style=""width: 200px;height: 200px;""></button>","null","star","square","[""square"",""star""]","left-right","[""square"",""star""]","1","practice","1","right","iti",""
"html-button-response","8","426126","0.0-7.0","CAN_147","147","","","","","","2611","","0","triangle","pentagram","[""triangle"",""pentagram""]","left-right","[""triangle"",""pentagram""]","1","practice","1","left","trigger",""
"html-button-response","9","427144","0.0-8.0-0.0","CAN_147","147","","","","","","1008","<button class=""jspsych-btn""><img src=""stimuli/triangle.png"" style=""width: 200px;height: 200px;""></button>","0","triangle","pentagram","[""triangle"",""pentagram""]","left-right","[""triangle"",""pentagram""]","1","practice","1","left","response","1"
"html-audio-button-response","10","427355","0.0-8.0-1.0","CAN_147","147","","","","","","null","stimuli/bleep.m4a","null","triangle","pentagram","[""triangle"",""pentagram""]","left-right","[""triangle"",""pentagram""]","1","practice","1","left","audio_feedback","1"
"html-button-response","11","427875","0.0-9.0","CAN_147","147","","","","","","null","<button class=""jspsych-btn""><img src=""stimuli/white_square.png"" style=""width: 200px;height: 200px;""></button>","null","triangle","pentagram","[""triangle"",""pentagram""]","left-right","[""triangle"",""pentagram""]","1","practice","1","left","iti",""
"html-button-response","12","428580","0.0-10.0","CAN_147","147","","","","","","684","","0","diamond","rectangle","[""rectangle"",""diamond""]","left-right","[""rectangle"",""diamond""]","1","practice","1","right","trigger",""
"html-button-response","13","429570","0.0-11.0-0.0","CAN_147","147","","","","","","979","<button class=""jspsych-btn""><img src=""stimuli/diamond.png"" style=""width: 200px;height: 200px;""></button>","1","diamond","rectangle","[""rectangle"",""diamond""]","left-right","[""rectangle"",""diamond""]","1","practice","1","right","response","1"
"html-audio-button-response","14","429785","0.0-11.0-1.0","CAN_147","147","","","","","","null","stimuli/bleep.m4a","null","diamond","rectangle","[""rectangle"",""diamond""]","left-right","[""rectangle"",""diamond""]","1","practice","1","right","audio_feedback","1"
"html-button-response","15","430309","0.0-12.0","CAN_147","147","","","","","","null","<button class=""jspsych-btn""><img src=""stimuli/white_square.png"" style=""width: 200px;height: 200px;""></button>","null","diamond","rectangle","[""rectangle"",""diamond""]","left-right","[""rectangle"",""diamond""]","1","practice","1","right","iti",""
"html-button-response","16","430960","0.0-13.0","CAN_147","147","","","","","","628","","0","pentagram","star","[""pentagram"",""star""]","left-right","[""pentagram"",""star""]","1","practice","1","left","trigger",""
"html-button-response","17","431647","0.0-14.0-0.0","CAN_147","147","","","","","","678","<button class=""jspsych-btn""><img src=""stimuli/pentagram.png"" style=""width: 200px;height: 200px;""></button>","0","pentagram","star","[""pentagram"",""star""]","left-right","[""pentagram"",""star""]","1","practice","1","left","response","1"
"html-audio-button-response","18","431855","0.0-14.0-1.0","CAN_147","147","","","","","","null","stimuli/bleep.m4a","null","pentagram","star","[""pentagram"",""star""]","left-right","[""pentagram"",""star""]","1","practice","1","left","audio_feedback","1"
"html-button-response","19","432375","0.0-15.0","CAN_147","147","","","","","","null","<button class=""jspsych-btn""><img src=""stimuli/white_square.png"" style=""width: 200px;height: 200px;""></button>","null","pentagram","star","[""pentagram"",""star""]","left-right","[""pentagram"",""star""]","1","practice","1","left","iti",""
"html-button-response","20","433981","0.0-16.0","CAN_147","147","","","","","","1587","","0","","","","","","","","","","",""
"html-button-response","21","434838","0.0-17.0","CAN_147","147","","","","","","846","","0","turquoise","lightred","[""turquoise"",""lightred"",""low nameability""]","left-right","[""turquoise"",""lightred"",""low nameability""]","1","low nameability","1","left","trigger",""
"html-button-response","22","435611","0.0-18.0-0.0","CAN_147","147","","","","","","756","<button class=""jspsych-btn""><img src=""stimuli/turquoise.png"" style=""width: 200px;height: 200px;""></button>","0","turquoise","lightred","[""turquoise"",""lightred"",""low nameability""]","left-right","[""turquoise"",""lightred"",""low nameability""]","1","low nameability","1","left","response","1"
"html-audio-button-response","23","435817","0.0-18.0-1.0","CAN_147","147","","","","","","null","stimuli/bleep.m4a","null","turquoise","lightred","[""turquoise"",""lightred"",""low nameability""]","left-right","[""turquoise"",""lightred"",""low nameability""]","1","low nameability","1","left","audio_feedback","1"
"html-button-response","24","436333","0.0-19.0","CAN_147","147","","","","","","null","<button class=""jspsych-btn""><img src=""stimuli/white_square.png"" style=""width: 200px;height: 200px;""></button>","null","turquoise","lightred","[""turquoise"",""lightred"",""low nameability""]","left-right","[""turquoise"",""lightred"",""low nameability""]","1","low nameability","1","left","iti",""
"html-button-response","25","436979","0.0-20.0","CAN_147","147","","","","","","627","","0","neonyellow","pink","[""neonyellow"",""pink"",""low nameability""]","left-right","[""neonyellow"",""pink"",""low nameability""]","1","low nameability","2","left","trigger",""
"html-button-response","26","437680","0.0-21.0-0.0","CAN_147","147","","","","","","692","<button class=""jspsych-btn""><img src=""stimuli/neonyellow.png"" style=""width: 200px;height: 200px;""></button>","0","neonyellow","pink","[""neonyellow"",""pink"",""low nameability""]","left-right","[""neonyellow"",""pink"",""low nameability""]","1","low nameability","2","left","response","1"
"html-audio-button-response","27","437885","0.0-21.0-1.0","CAN_147","147","","","","","","null","stimuli/bleep.m4a","null","neonyellow","pink","[""neonyellow"",""pink"",""low nameability""]","left-right","[""neonyellow"",""pink"",""low nameability""]","1","low nameability","2","left","audio_feedback","1"
"html-button-response","28","438414","0.0-22.0","CAN_147","147","","","","","","null","<button class=""jspsych-btn""><img src=""stimuli/white_square.png"" style=""width: 200px;height: 200px;""></button>","null","neonyellow","pink","[""neonyellow"",""pink"",""low nameability""]","left-right","[""neonyellow"",""pink"",""low nameability""]","1","low nameability","2","left","iti",""
"html-button-response","29","439048","0.0-23.0","CAN_147","147","","","","","","616","","0","lightred","turquoise","[""lightred"",""turquoise"",""low nameability""]","right-left","[""turquoise"",""lightred""]","1","low nameability","3","right","trigger",""
"html-button-response","30","439728","0.0-24.0-0.0","CAN_147","147","","","","","","673","<button class=""jspsych-btn""><img src=""stimuli/lightred.png"" style=""width: 200px;height: 200px;""></button>","1","lightred","turquoise","[""lightred"",""turquoise"",""low nameability""]","right-left","[""turquoise"",""lightred""]","1","low nameability","3","right","response","1"
"html-audio-button-response","31","439932","0.0-24.0-1.0","CAN_147","147","","","","","","null","stimuli/bleep.m4a","null","lightred","turquoise","[""lightred"",""turquoise"",""low nameability""]","right-left","[""turquoise"",""lightred""]","1","low nameability","3","right","audio_feedback","1"
"html-button-response","32","440455","0.0-25.0","CAN_147","147","","","","","","null","<button class=""jspsych-btn""><img src=""stimuli/white_square.png"" style=""width: 200px;height: 200px;""></button>","null","lightred","turquoise","[""lightred"",""turquoise"",""low nameability""]","right-left","[""turquoise"",""lightred""]","1","low nameability","3","right","iti",""
"html-button-response","33","441126","0.0-26.0","CAN_147","147","","","","","","640","","0","mustard","turquoise","[""mustard"",""turquoise"",""low nameability""]","right-left","[""turquoise"",""mustard""]","1","low nameability","4","right","trigger",""
"html-button-response","34","441755","0.0-27.0-0.0","CAN_147","147","","","","","","618","<button class=""jspsych-btn""><img src=""stimuli/mustard.png"" style=""width: 200px;height: 200px;""></button>","1","mustard","turquoise","[""mustard"",""turquoise"",""low nameability""]","right-left","[""turquoise"",""mustard""]","1","low nameability","4","right","response","1"
"html-audio-button-response","35","441959","0.0-27.0-1.0","CAN_147","147","","","","","","null","stimuli/bleep.m4a","null","mustard","turquoise","[""mustard"",""turquoise"",""low nameability""]","right-left","[""turquoise"",""mustard""]","1","low nameability","4","right","audio_feedback","1"
"html-button-response","36","442474","0.0-28.0","CAN_147","147","","","","","","null","<button class=""jspsych-btn""><img src=""stimuli/white_square.png"" style=""width: 200px;height: 200px;""></button>","null","mustard","turquoise","[""mustard"",""turquoise"",""low nameability""]","right-left","[""turquoise"",""mustard""]","1","low nameability","4","right","iti",""
"html-button-response","37","443168","0.0-29.0","CAN_147","147","","","","","","673","","0","lightred","neonyellow","[""lightred"",""neonyellow"",""low nameability""]","right-left","[""neonyellow"",""lightred""]","1","low nameability","5","right","trigger",""
"html-button-response","38","443811","0.0-30.0-0.0","CAN_147","147","","","","","","634","<button class=""jspsych-btn""><img src=""stimuli/lightred.png"" style=""width: 200px;height: 200px;""></button>","1","lightred","neonyellow","[""lightred"",""neonyellow"",""low nameability""]","right-left","[""neonyellow"",""lightred""]","1","low nameability","5","right","response","1"
"html-audio-button-response","39","444015","0.0-30.0-1.0","CAN_147","147","","","","","","null","stimuli/bleep.m4a","null","lightred","neonyellow","[""lightred"",""neonyellow"",""low nameability""]","right-left","[""neonyellow"",""lightred""]","1","low nameability","5","right","audio_feedback","1"
"html-button-response","40","444531","0.0-31.0","CAN_147","147","","","","","","null","<button class=""jspsych-btn""><img src=""stimuli/white_square.png"" style=""width: 200px;height: 200px;""></button>","null","lightred","neonyellow","[""lightred"",""neonyellow"",""low nameability""]","right-left","[""neonyellow"",""lightred""]","1","low nameability","5","right","iti",""
"html-button-response","41","445213","0.0-32.0","CAN_147","147","","","","","","666","","0","purple","brown","[""purple"",""brown"",""high nameability""]","right-left","[""brown"",""purple""]","1","high nameability","6","right","trigger",""
"html-button-response","42","445852","0.0-33.0-0.0","CAN_147","147","","","","","","629","<button class=""jspsych-btn""><img src=""stimuli/purple.png"" style=""width: 200px;height: 200px;""></button>","1","purple","brown","[""purple"",""brown"",""high nameability""]","right-left","[""brown"",""purple""]","1","high nameability","6","right","response","1"
"html-audio-button-response","43","446056","0.0-33.0-1.0","CAN_147","147","","","","","","null","stimuli/bleep.m4a","null","purple","brown","[""purple"",""brown"",""high nameability""]","right-left","[""brown"",""purple""]","1","high nameability","6","right","audio_feedback","1"
"html-button-response","44","446584","0.0-34.0","CAN_147","147","","","","","","null","<button class=""jspsych-btn""><img src=""stimuli/white_square.png"" style=""width: 200px;height: 200px;""></button>","null","purple","brown","[""purple"",""brown"",""high nameability""]","right-left","[""brown"",""purple""]","1","high nameability","6","right","iti",""
"html-button-response","45","447237","0.0-35.0","CAN_147","147","","","","","","634","","0","purple","red","[""purple"",""red"",""high nameability""]","left-right","[""purple"",""red"",""high nameability""]","1","high nameability","7","left","trigger",""
"html-button-response","46","447966","0.0-36.0-0.0","CAN_147","147","","","","","","723","<button class=""jspsych-btn""><img src=""stimuli/purple.png"" style=""width: 200px;height: 200px;""></button>","0","purple","red","[""purple"",""red"",""high nameability""]","left-right","[""purple"",""red"",""high nameability""]","1","high nameability","7","left","response","1"
"html-audio-button-response","47","448173","0.0-36.0-1.0","CAN_147","147","","","","","","null","stimuli/bleep.m4a","null","purple","red","[""purple"",""red"",""high nameability""]","left-right","[""purple"",""red"",""high nameability""]","1","high nameability","7","left","audio_feedback","1"
"html-button-response","48","448695","0.0-37.0","CAN_147","147","","","","","","null","<button class=""jspsych-btn""><img src=""stimuli/white_square.png"" style=""width: 200px;height: 200px;""></button>","null","purple","red","[""purple"",""red"",""high nameability""]","left-right","[""purple"",""red"",""high nameability""]","1","high nameability","7","left","iti",""
"html-button-response","49","449291","0.0-38.0","CAN_147","147","","","","","","582","","0","yellow","purple","[""yellow"",""purple"",""high nameability""]","right-left","[""purple"",""yellow""]","1","high nameability","8","right","trigger",""
"html-button-response","50","449905","0.0-39.0-0.0","CAN_147","147","","","","","","607","<button class=""jspsych-btn""><img src=""stimuli/yellow.png"" style=""width: 200px;height: 200px;""></button>","1","yellow","purple","[""yellow"",""purple"",""high nameability""]","right-left","[""purple"",""yellow""]","1","high nameability","8","right","response","1"
"html-audio-button-response","51","450108","0.0-39.0-1.0","CAN_147","147","","","","","","null","stimuli/bleep.m4a","null","yellow","purple","[""yellow"",""purple"",""high nameability""]","right-left","[""purple"",""yellow""]","1","high nameability","8","right","audio_feedback","1"
"html-button-response","52","450629","0.0-40.0","CAN_147","147","","","","","","null","<button class=""jspsych-btn""><img src=""stimuli/white_square.png"" style=""width: 200px;height: 200px;""></button>","null","yellow","purple","[""yellow"",""purple"",""high nameability""]","right-left","[""purple"",""yellow""]","1","high nameability","8","right","iti",""
"html-button-response","53","451082","0.0-41.0","CAN_147","147","","","","","","423","","0","turquoise","neonyellow","[""turquoise"",""neonyellow"",""low nameability""]","left-right","[""turquoise"",""neonyellow"",""low nameability""]","1","low nameability","9","left","trigger",""
"html-button-response","54","451854","0.0-42.0-0.0","CAN_147","147","","","","","","763","<button class=""jspsych-btn""><img src=""stimuli/turquoise.png"" style=""width: 200px;height: 200px;""></button>","0","turquoise","neonyellow","[""turquoise"",""neonyellow"",""low nameability""]","left-right","[""turquoise"",""neonyellow"",""low nameability""]","1","low nameability","9","left","response","1"
"html-audio-button-response","55","452056","0.0-42.0-1.0","CAN_147","147","","","","","","null","stimuli/bleep.m4a","null","turquoise","neonyellow","[""turquoise"",""neonyellow"",""low nameability""]","left-right","[""turquoise"",""neonyellow"",""low nameability""]","1","low nameability","9","left","audio_feedback","1"
"html-button-response","56","452577","0.0-43.0","CAN_147","147","","","","","","null","<button class=""jspsych-btn""><img src=""stimuli/white_square.png"" style=""width: 200px;height: 200px;""></button>","null","turquoise","neonyellow","[""turquoise"",""neonyellow"",""low nameability""]","left-right","[""turquoise"",""neonyellow"",""low nameability""]","1","low nameability","9","left","iti",""
"html-button-response","57","453026","0.0-44.0","CAN_147","147","","","","","","434","","0","pink","mustard","[""pink"",""mustard"",""low nameability""]","left-right","[""pink"",""mustard"",""low nameability""]","1","low nameability","10","left","trigger",""
"html-button-response","58","453635","0.0-45.0-0.0","CAN_147","147","","","","","","598","<button class=""jspsych-btn""><img src=""stimuli/pink.png"" style=""width: 200px;height: 200px;""></button>","0","pink","mustard","[""pink"",""mustard"",""low nameability""]","left-right","[""pink"",""mustard"",""low nameability""]","1","low nameability","10","left","response","1"
"html-audio-button-response","59","453839","0.0-45.0-1.0","CAN_147","147","","","","","","null","stimuli/bleep.m4a","null","pink","mustard","[""pink"",""mustard"",""low nameability""]","left-right","[""pink"",""mustard"",""low nameability""]","1","low nameability","10","left","audio_feedback","1"
"html-button-response","60","454354","0.0-46.0","CAN_147","147","","","","","","null","<button class=""jspsych-btn""><img src=""stimuli/white_square.png"" style=""width: 200px;height: 200px;""></button>","null","pink","mustard","[""pink"",""mustard"",""low nameability""]","left-right","[""pink"",""mustard"",""low nameability""]","1","low nameability","10","left","iti",""
"pavlovia","61","454449","0.0-47.0","CAN_147","147","","","","","","","","","","","","","","","","","","",""
"pavlovia","62","454466","0.0-48.0","CAN_147","147","","","","","","","","","","","","","","","","","","",""
"html-audio-button-response","63","458482","0.0-49.0","CAN_147","147","","","","","","4123","stimuli/tada.m4a","0","","","","","","","","","","",""
"html-button-response","64","459478","0.0-50.0","CAN_147","147","","","","","","988","","0","","","","","","","","","","",""
"html-button-response","65","460217","0.0-51.0","CAN_147","147","","","","","","732","","0","red","purple","[""red"",""purple"",""high nameability""]","left-right","[""red"",""purple"",""high nameability""]","2","high nameability","11","left","trigger",""
"html-button-response","66","460851","0.0-52.0-0.0","CAN_147","147","","","","","","626","<button class=""jspsych-btn""><img src=""stimuli/red.png"" style=""width: 200px;height: 200px;""></button>","0","red","purple","[""red"",""purple"",""high nameability""]","left-right","[""red"",""purple"",""high nameability""]","2","high nameability","11","left","response","1"
"html-audio-button-response","67","461055","0.0-52.0-1.0","CAN_147","147","","","","","","null","stimuli/bleep.m4a","null","red","purple","[""red"",""purple"",""high nameability""]","left-right","[""red"",""purple"",""high nameability""]","2","high nameability","11","left","audio_feedback","1"
"html-button-response","68","461572","0.0-53.0","CAN_147","147","","","","","","null","<button class=""jspsych-btn""><img src=""stimuli/white_square.png"" style=""width: 200px;height: 200px;""></button>","null","red","purple","[""red"",""purple"",""high nameability""]","left-right","[""red"",""purple"",""high nameability""]","2","high nameability","11","left","iti",""
"html-button-response","69","462135","0.0-54.0","CAN_147","147","","","","","","543","","0","neonyellow","lightred","[""neonyellow"",""lightred"",""low nameability""]","right-left","[""lightred"",""neonyellow""]","2","low nameability","12","right","trigger",""
"html-button-response","70","462740","0.0-55.0-0.0","CAN_147","147","","","","","","600","<button class=""jspsych-btn""><img src=""stimuli/neonyellow.png"" style=""width: 200px;height: 200px;""></button>","1","neonyellow","lightred","[""neonyellow"",""lightred"",""low nameability""]","right-left","[""lightred"",""neonyellow""]","2","low nameability","12","right","response","1"
"html-audio-button-response","71","462944","0.0-55.0-1.0","CAN_147","147","","","","","","null","stimuli/bleep.m4a","null","neonyellow","lightred","[""neonyellow"",""lightred"",""low nameability""]","right-left","[""lightred"",""neonyellow""]","2","low nameability","12","right","audio_feedback","1"
"html-button-response","72","463469","0.0-56.0","CAN_147","147","","","","","","null","<button class=""jspsych-btn""><img src=""stimuli/white_square.png"" style=""width: 200px;height: 200px;""></button>","null","neonyellow","lightred","[""neonyellow"",""lightred"",""low nameability""]","right-left","[""lightred"",""neonyellow""]","2","low nameability","12","right","iti",""
"html-button-response","73","464088","0.0-57.0","CAN_147","147","","","","","","589","","0","lightred","mustard","[""lightred"",""mustard"",""low nameability""]","right-left","[""mustard"",""lightred""]","2","low nameability","13","right","trigger",""
"html-button-response","74","464819","0.0-58.0-0.0","CAN_147","147","","","","","","724","<button class=""jspsych-btn""><img src=""stimuli/lightred.png"" style=""width: 200px;height: 200px;""></button>","1","lightred","mustard","[""lightred"",""mustard"",""low nameability""]","right-left","[""mustard"",""lightred""]","2","low nameability","13","right","response","1"
"html-audio-button-response","75","465024","0.0-58.0-1.0","CAN_147","147","","","","","","null","stimuli/bleep.m4a","null","lightred","mustard","[""lightred"",""mustard"",""low nameability""]","right-left","[""mustard"",""lightred""]","2","low nameability","13","right","audio_feedback","1"
"html-button-response","76","465547","0.0-59.0","CAN_147","147","","","","","","null","<button class=""jspsych-btn""><img src=""stimuli/white_square.png"" style=""width: 200px;height: 200px;""></button>","null","lightred","mustard","[""lightred"",""mustard"",""low nameability""]","right-left","[""mustard"",""lightred""]","2","low nameability","13","right","iti",""
"html-button-response","77","466141","0.0-60.0","CAN_147","147","","","","","","575","","0","neonyellow","darkgreenblue","[""neonyellow"",""darkgreenblue"",""low nameability""]","left-right","[""neonyellow"",""darkgreenblue"",""low nameability""]","2","low nameability","14","left","trigger",""
"html-button-response","78","466672","0.0-61.0-0.0","CAN_147","147","","","","","","523","<button class=""jspsych-btn""><img src=""stimuli/neonyellow.png"" style=""width: 200px;height: 200px;""></button>","0","neonyellow","darkgreenblue","[""neonyellow"",""darkgreenblue"",""low nameability""]","left-right","[""neonyellow"",""darkgreenblue"",""low nameability""]","2","low nameability","14","left","response","1"
"html-audio-button-response","79","466875","0.0-61.0-1.0","CAN_147","147","","","","","","null","stimuli/bleep.m4a","null","neonyellow","darkgreenblue","[""neonyellow"",""darkgreenblue"",""low nameability""]","left-right","[""neonyellow"",""darkgreenblue"",""low nameability""]","2","low nameability","14","left","audio_feedback","1"
"html-button-response","80","467393","0.0-62.0","CAN_147","147","","","","","","null","<button class=""jspsych-btn""><img src=""stimuli/white_square.png"" style=""width: 200px;height: 200px;""></button>","null","neonyellow","darkgreenblue","[""neonyellow"",""darkgreenblue"",""low nameability""]","left-right","[""neonyellow"",""darkgreenblue"",""low nameability""]","2","low nameability","14","left","iti",""
"html-button-response","81","467943","0.0-63.0","CAN_147","147","","","","","","530","","0","purple","orange","[""purple"",""orange"",""high nameability""]","right-left","[""orange"",""purple""]","2","high nameability","15","right","trigger",""
"html-button-response","82","468531","0.0-64.0-0.0","CAN_147","147","","","","","","584","<button class=""jspsych-btn""><img src=""stimuli/purple.png"" style=""width: 200px;height: 200px;""></button>","1","purple","orange","[""purple"",""orange"",""high nameability""]","right-left","[""orange"",""purple""]","2","high nameability","15","right","response","1"
"html-audio-button-response","83","468735","0.0-64.0-1.0","CAN_147","147","","","","","","null","stimuli/bleep.m4a","null","purple","orange","[""purple"",""orange"",""high nameability""]","right-left","[""orange"",""purple""]","2","high nameability","15","right","audio_feedback","1"
"html-button-response","84","469259","0.0-65.0","CAN_147","147","","","","","","null","<button class=""jspsych-btn""><img src=""stimuli/white_square.png"" style=""width: 200px;height: 200px;""></button>","null","purple","orange","[""purple"",""orange"",""high nameability""]","right-left","[""orange"",""purple""]","2","high nameability","15","right","iti",""
"html-button-response","85","470003","0.0-66.0","CAN_147","147","","","","","","728","","0","turquoise","pink","[""turquoise"",""pink"",""low nameability""]","left-right","[""turquoise"",""pink"",""low nameability""]","2","low nameability","16","left","trigger",""
"html-button-response","86","470496","0.0-67.0-0.0","CAN_147","147","","","","","","485","<button class=""jspsych-btn""><img src=""stimuli/turquoise.png"" style=""width: 200px;height: 200px;""></button>","0","turquoise","pink","[""turquoise"",""pink"",""low nameability""]","left-right","[""turquoise"",""pink"",""low nameability""]","2","low nameability","16","left","response","1"
"html-audio-button-response","87","470704","0.0-67.0-1.0","CAN_147","147","","","","","","null","stimuli/bleep.m4a","null","turquoise","pink","[""turquoise"",""pink"",""low nameability""]","left-right","[""turquoise"",""pink"",""low nameability""]","2","low nameability","16","left","audio_feedback","1"
"html-button-response","88","471222","0.0-68.0","CAN_147","147","","","","","","null","<button class=""jspsych-btn""><img src=""stimuli/white_square.png"" style=""width: 200px;height: 200px;""></button>","null","turquoise","pink","[""turquoise"",""pink"",""low nameability""]","left-right","[""turquoise"",""pink"",""low nameability""]","2","low nameability","16","left","iti",""
"html-button-response","89","471839","0.0-69.0","CAN_147","147","","","","","","599","","0","yellow","orange","[""yellow"",""orange"",""high nameability""]","right-left","[""orange"",""yellow""]","2","high nameability","17","right","trigger",""
"html-button-response","90","472418","0.0-70.0-0.0","CAN_147","147","","","","","","567","<button class=""jspsych-btn""><img src=""stimuli/yellow.png"" style=""width: 200px;height: 200px;""></button>","1","yellow","orange","[""yellow"",""orange"",""high nameability""]","right-left","[""orange"",""yellow""]","2","high nameability","17","right","response","1"
"html-audio-button-response","91","472624","0.0-70.0-1.0","CAN_147","147","","","","","","null","stimuli/bleep.m4a","null","yellow","orange","[""yellow"",""orange"",""high nameability""]","right-left","[""orange"",""yellow""]","2","high nameability","17","right","audio_feedback","1"
"html-button-response","92","473145","0.0-71.0","CAN_147","147","","","","","","null","<button class=""jspsych-btn""><img src=""stimuli/white_square.png"" style=""width: 200px;height: 200px;""></button>","null","yellow","orange","[""yellow"",""orange"",""high nameability""]","right-left","[""orange"",""yellow""]","2","high nameability","17","right","iti",""
"html-button-response","93","473725","0.0-72.0","CAN_147","147","","","","","","552","","0","pink","turquoise","[""pink"",""turquoise"",""low nameability""]","left-right","[""pink"",""turquoise"",""low nameability""]","2","low nameability","18","left","trigger",""
"html-button-response","94","474376","0.0-73.0-0.0","CAN_147","147","","","","","","646","<button class=""jspsych-btn""><img src=""stimuli/pink.png"" style=""width: 200px;height: 200px;""></button>","0","pink","turquoise","[""pink"",""turquoise"",""low nameability""]","left-right","[""pink"",""turquoise"",""low nameability""]","2","low nameability","18","left","response","1"
"html-audio-button-response","95","474581","0.0-73.0-1.0","CAN_147","147","","","","","","null","stimuli/bleep.m4a","null","pink","turquoise","[""pink"",""turquoise"",""low nameability""]","left-right","[""pink"",""turquoise"",""low nameability""]","2","low nameability","18","left","audio_feedback","1"
"html-button-response","96","475103","0.0-74.0","CAN_147","147","","","","","","null","<button class=""jspsych-btn""><img src=""stimuli/white_square.png"" style=""width: 200px;height: 200px;""></button>","null","pink","turquoise","[""pink"",""turquoise"",""low nameability""]","left-right","[""pink"",""turquoise"",""low nameability""]","2","low nameability","18","left","iti",""
"html-button-response","97","475724","0.0-75.0","CAN_147","147","","","","","","602","","0","turquoise","darkgreenblue","[""turquoise"",""darkgreenblue"",""low nameability""]","right-left","[""darkgreenblue"",""turquoise""]","2","low nameability","19","right","trigger",""
"html-button-response","98","476256","0.0-76.0-0.0","CAN_147","147","","","","","","525","<button class=""jspsych-btn""><img src=""stimuli/turquoise.png"" style=""width: 200px;height: 200px;""></button>","1","turquoise","darkgreenblue","[""turquoise"",""darkgreenblue"",""low nameability""]","right-left","[""darkgreenblue"",""turquoise""]","2","low nameability","19","right","response","1"
"html-audio-button-response","99","476462","0.0-76.0-1.0","CAN_147","147","","","","","","null","stimuli/bleep.m4a","null","turquoise","darkgreenblue","[""turquoise"",""darkgreenblue"",""low nameability""]","right-left","[""darkgreenblue"",""turquoise""]","2","low nameability","19","right","audio_feedback","1"
"html-button-response","100","476979","0.0-77.0","CAN_147","147","","","","","","null","<button class=""jspsych-btn""><img src=""stimuli/white_square.png"" style=""width: 200px;height: 200px;""></button>","null","turquoise","darkgreenblue","[""turquoise"",""darkgreenblue"",""low nameability""]","right-left","[""darkgreenblue"",""turquoise""]","2","low nameability","19","right","iti",""
"html-button-response","101","477552","0.0-78.0","CAN_147","147","","","","","","555","","0","blue","red","[""blue"",""red"",""high nameability""]","left-right","[""blue"",""red"",""high nameability""]","2","high nameability","20","left","trigger",""
"html-button-response","102","478133","0.0-79.0-0.0","CAN_147","147","","","","","","572","<button class=""jspsych-btn""><img src=""stimuli/blue.png"" style=""width: 200px;height: 200px;""></button>","0","blue","red","[""blue"",""red"",""high nameability""]","left-right","[""blue"",""red"",""high nameability""]","2","high nameability","20","left","response","1"
"html-audio-button-response","103","478334","0.0-79.0-1.0","CAN_147","147","","","","","","null","stimuli/bleep.m4a","null","blue","red","[""blue"",""red"",""high nameability""]","left-right","[""blue"",""red"",""high nameability""]","2","high nameability","20","left","audio_feedback","1"
"html-button-response","104","478853","0.0-80.0","CAN_147","147","","","","","","null","<button class=""jspsych-btn""><img src=""stimuli/white_square.png"" style=""width: 200px;height: 200px;""></button>","null","blue","red","[""blue"",""red"",""high nameability""]","left-right","[""blue"",""red"",""high nameability""]","2","high nameability","20","left","iti",""
"pavlovia","105","478934","0.0-81.0","CAN_147","147","","","","","","","","","","","","","","","","","","",""
"pavlovia","106","478942","0.0-82.0","CAN_147","147","","","","","","","","","","","","","","","","","","",""
"html-audio-button-response","107","479987","0.0-83.0","CAN_147","147","","","","","","1131","stimuli/tada.m4a","0","","","","","","","","","","",""
"html-button-response","108","480636","0.0-84.0","CAN_147","147","","","","","","641","","0","","","","","","","","","","",""
"html-button-response","109","481171","0.0-85.0","CAN_147","147","","","","","","527","","0","orange","red","[""orange"",""red"",""high nameability""]","right-left","[""red"",""orange""]","3","high nameability","21","right","trigger",""
"html-button-response","110","482370","0.0-86.0-0.0","CAN_147","147","","","","","","1190","<button class=""jspsych-btn""><img src=""stimuli/orange.png"" style=""width: 200px;height: 200px;""></button>","1","orange","red","[""orange"",""red"",""high nameability""]","right-left","[""red"",""orange""]","3","high nameability","21","right","response","1"
"html-audio-button-response","111","482578","0.0-86.0-1.0","CAN_147","147","","","","","","null","stimuli/bleep.m4a","null","orange","red","[""orange"",""red"",""high nameability""]","right-left","[""red"",""orange""]","3","high nameability","21","right","audio_feedback","1"
"html-button-response","112","483098","0.0-87.0","CAN_147","147","","","","","","null","<button class=""jspsych-btn""><img src=""stimuli/white_square.png"" style=""width: 200px;height: 200px;""></button>","null","orange","red","[""orange"",""red"",""high nameability""]","right-left","[""red"",""orange""]","3","high nameability","21","right","iti",""
"html-button-response","113","483611","0.0-88.0","CAN_147","147","","","","","","497","","0","blue","yellow","[""blue"",""yellow"",""high nameability""]","right-left","[""yellow"",""blue""]","3","high nameability","22","right","trigger",""
"html-button-response","114","484153","0.0-89.0-0.0","CAN_147","147","","","","","","534","<button class=""jspsych-btn""><img src=""stimuli/blue.png"" style=""width: 200px;height: 200px;""></button>","1","blue","yellow","[""blue"",""yellow"",""high nameability""]","right-left","[""yellow"",""blue""]","3","high nameability","22","right","response","1"
"html-audio-button-response","115","484356","0.0-89.0-1.0","CAN_147","147","","","","","","null","stimuli/bleep.m4a","null","blue","yellow","[""blue"",""yellow"",""high nameability""]","right-left","[""yellow"",""blue""]","3","high nameability","22","right","audio_feedback","1"
"html-button-response","116","484874","0.0-90.0","CAN_147","147","","","","","","null","<button class=""jspsych-btn""><img src=""stimuli/white_square.png"" style=""width: 200px;height: 200px;""></button>","null","blue","yellow","[""blue"",""yellow"",""high nameability""]","right-left","[""yellow"",""blue""]","3","high nameability","22","right","iti",""
"html-button-response","117","485483","0.0-91.0","CAN_147","147","","","","","","592","","0","orange","yellow","[""orange"",""yellow"",""high nameability""]","left-right","[""orange"",""yellow"",""high nameability""]","3","high nameability","23","left","trigger",""
"html-button-response","118","486049","0.0-92.0-0.0","CAN_147","147","","","","","","558","<button class=""jspsych-btn""><img src=""stimuli/orange.png"" style=""width: 200px;height: 200px;""></button>","0","orange","yellow","[""orange"",""yellow"",""high nameability""]","left-right","[""orange"",""yellow"",""high nameability""]","3","high nameability","23","left","response","1"
"html-audio-button-response","119","486255","0.0-92.0-1.0","CAN_147","147","","","","","","null","stimuli/bleep.m4a","null","orange","yellow","[""orange"",""yellow"",""high nameability""]","left-right","[""orange"",""yellow"",""high nameability""]","3","high nameability","23","left","audio_feedback","1"
"html-button-response","120","486776","0.0-93.0","CAN_147","147","","","","","","null","<button class=""jspsych-btn""><img src=""stimuli/white_square.png"" style=""width: 200px;height: 200px;""></button>","null","orange","yellow","[""orange"",""yellow"",""high nameability""]","left-right","[""orange"",""yellow"",""high nameability""]","3","high nameability","23","left","iti",""
"html-button-response","121","487321","0.0-94.0","CAN_147","147","","","","","","523","","0","brown","orange","[""brown"",""orange"",""high nameability""]","right-left","[""orange"",""brown""]","3","high nameability","24","right","trigger",""
"html-button-response","122","488035","0.0-95.0-0.0","CAN_147","147","","","","","","708","<button class=""jspsych-btn""><img src=""stimuli/brown.png"" style=""width: 200px;height: 200px;""></button>","1","brown","orange","[""brown"",""orange"",""high nameability""]","right-left","[""orange"",""brown""]","3","high nameability","24","right","response","1"
"html-audio-button-response","123","488238","0.0-95.0-1.0","CAN_147","147","","","","","","null","stimuli/bleep.m4a","null","brown","orange","[""brown"",""orange"",""high nameability""]","right-left","[""orange"",""brown""]","3","high nameability","24","right","audio_feedback","1"
"html-button-response","124","488753","0.0-96.0","CAN_147","147","","","","","","null","<button class=""jspsych-btn""><img src=""stimuli/white_square.png"" style=""width: 200px;height: 200px;""></button>","null","brown","orange","[""brown"",""orange"",""high nameability""]","right-left","[""orange"",""brown""]","3","high nameability","24","right","iti",""
"html-button-response","125","489464","0.0-97.0","CAN_147","147","","","","","","691","","0","lightred","darkgreenblue","[""lightred"",""darkgreenblue"",""low nameability""]","right-left","[""darkgreenblue"",""lightred""]","3","low nameability","25","right","trigger",""
"html-button-response","126","490004","0.0-98.0-0.0","CAN_147","147","","","","","","532","<button class=""jspsych-btn""><img src=""stimuli/lightred.png"" style=""width: 200px;height: 200px;""></button>","1","lightred","darkgreenblue","[""lightred"",""darkgreenblue"",""low nameability""]","right-left","[""darkgreenblue"",""lightred""]","3","low nameability","25","right","response","1"
"html-audio-button-response","127","490208","0.0-98.0-1.0","CAN_147","147","","","","","","null","stimuli/bleep.m4a","null","lightred","darkgreenblue","[""lightred"",""darkgreenblue"",""low nameability""]","right-left","[""darkgreenblue"",""lightred""]","3","low nameability","25","right","audio_feedback","1"
"html-button-response","128","490728","0.0-99.0","CAN_147","147","","","","","","null","<button class=""jspsych-btn""><img src=""stimuli/white_square.png"" style=""width: 200px;height: 200px;""></button>","null","lightred","darkgreenblue","[""lightred"",""darkgreenblue"",""low nameability""]","right-left","[""darkgreenblue"",""lightred""]","3","low nameability","25","right","iti",""
"html-button-response","129","491421","0.0-100.0","CAN_147","147","","","","","","676","","0","neonyellow","mustard","[""neonyellow"",""mustard"",""low nameability""]","left-right","[""neonyellow"",""mustard"",""low nameability""]","3","low nameability","26","left","trigger",""
"html-button-response","130","492059","0.0-101.0-0.0","CAN_147","147","","","","","","628","<button class=""jspsych-btn""><img src=""stimuli/neonyellow.png"" style=""width: 200px;height: 200px;""></button>","0","neonyellow","mustard","[""neonyellow"",""mustard"",""low nameability""]","left-right","[""neonyellow"",""mustard"",""low nameability""]","3","low nameability","26","left","response","1"
"html-audio-button-response","131","492263","0.0-101.0-1.0","CAN_147","147","","","","","","null","stimuli/bleep.m4a","null","neonyellow","mustard","[""neonyellow"",""mustard"",""low nameability""]","left-right","[""neonyellow"",""mustard"",""low nameability""]","3","low nameability","26","left","audio_feedback","1"
"html-button-response","132","492785","0.0-102.0","CAN_147","147","","","","","","null","<button class=""jspsych-btn""><img src=""stimuli/white_square.png"" style=""width: 200px;height: 200px;""></button>","null","neonyellow","mustard","[""neonyellow"",""mustard"",""low nameability""]","left-right","[""neonyellow"",""mustard"",""low nameability""]","3","low nameability","26","left","iti",""
"html-button-response","133","493432","0.0-103.0","CAN_147","147","","","","","","629","","0","blue","brown","[""blue"",""brown"",""high nameability""]","left-right","[""blue"",""brown"",""high nameability""]","3","high nameability","27","left","trigger",""
"html-button-response","134","494055","0.0-104.0-0.0","CAN_147","147","","","","","","612","<button class=""jspsych-btn""><img src=""stimuli/blue.png"" style=""width: 200px;height: 200px;""></button>","0","blue","brown","[""blue"",""brown"",""high nameability""]","left-right","[""blue"",""brown"",""high nameability""]","3","high nameability","27","left","response","1"
"html-audio-button-response","135","494259","0.0-104.0-1.0","CAN_147","147","","","","","","null","stimuli/bleep.m4a","null","blue","brown","[""blue"",""brown"",""high nameability""]","left-right","[""blue"",""brown"",""high nameability""]","3","high nameability","27","left","audio_feedback","1"
"html-button-response","136","494786","0.0-105.0","CAN_147","147","","","","","","null","<button class=""jspsych-btn""><img src=""stimuli/white_square.png"" style=""width: 200px;height: 200px;""></button>","null","blue","brown","[""blue"",""brown"",""high nameability""]","left-right","[""blue"",""brown"",""high nameability""]","3","high nameability","27","left","iti",""
"html-button-response","137","495337","0.0-106.0","CAN_147","147","","","","","","535","","0","red","brown","[""red"",""brown"",""high nameability""]","right-left","[""brown"",""red""]","3","high nameability","28","right","trigger",""
"html-button-response","138","495894","0.0-107.0-0.0","CAN_147","147","","","","","","550","<button class=""jspsych-btn""><img src=""stimuli/red.png"" style=""width: 200px;height: 200px;""></button>","1","red","brown","[""red"",""brown"",""high nameability""]","right-left","[""brown"",""red""]","3","high nameability","28","right","response","1"
"html-audio-button-response","139","496095","0.0-107.0-1.0","CAN_147","147","","","","","","null","stimuli/bleep.m4a","null","red","brown","[""red"",""brown"",""high nameability""]","right-left","[""brown"",""red""]","3","high nameability","28","right","audio_feedback","1"
"html-button-response","140","496613","0.0-108.0","CAN_147","147","","","","","","null","<button class=""jspsych-btn""><img src=""stimuli/white_square.png"" style=""width: 200px;height: 200px;""></button>","null","red","brown","[""red"",""brown"",""high nameability""]","right-left","[""brown"",""red""]","3","high nameability","28","right","iti",""
"html-button-response","141","497225","0.0-109.0","CAN_147","147","","","","","","592","","0","mustard","neonyellow","[""mustard"",""neonyellow"",""low nameability""]","right-left","[""neonyellow"",""mustard""]","3","low nameability","29","right","trigger",""
"html-button-response","142","497968","0.0-110.0-0.0","CAN_147","147","","","","","","733","<button class=""jspsych-btn""><img src=""stimuli/mustard.png"" style=""width: 200px;height: 200px;""></button>","0","mustard","neonyellow","[""mustard"",""neonyellow"",""low nameability""]","right-left","[""neonyellow"",""mustard""]","3","low nameability","29","right","response","0"
"html-audio-button-response","143","498600","0.0-110.0-1.0","CAN_147","147","","","","","","null","stimuli/boing.m4a","null","mustard","neonyellow","[""mustard"",""neonyellow"",""low nameability""]","right-left","[""neonyellow"",""mustard""]","3","low nameability","29","right","audio_feedback","0"
"html-button-response","144","500553","0.0-110.1-0.1","CAN_147","147","","","","","","1924","<button class=""jspsych-btn""><img src=""stimuli/mustard.png"" style=""width: 200px;height: 200px;""></button>","1","mustard","neonyellow","[""mustard"",""neonyellow"",""low nameability""]","right-left","[""neonyellow"",""mustard""]","3","low nameability","29","right","response","1"
"html-audio-button-response","145","500757","0.0-110.1-1.1","CAN_147","147","","","","","","null","stimuli/bleep.m4a","null","mustard","neonyellow","[""mustard"",""neonyellow"",""low nameability""]","right-left","[""neonyellow"",""mustard""]","3","low nameability","29","right","audio_feedback","1"
"html-button-response","146","501274","0.0-111.0","CAN_147","147","","","","","","null","<button class=""jspsych-btn""><img src=""stimuli/white_square.png"" style=""width: 200px;height: 200px;""></button>","null","mustard","neonyellow","[""mustard"",""neonyellow"",""low nameability""]","right-left","[""neonyellow"",""mustard""]","3","low nameability","29","right","iti",""
"html-button-response","147","501959","0.0-112.0","CAN_147","147","","","","","","662","","0","turquoise","mustard","[""turquoise"",""mustard"",""low nameability""]","left-right","[""turquoise"",""mustard"",""low nameability""]","3","low nameability","30","left","trigger",""
"html-button-response","148","502563","0.0-113.0-0.0","CAN_147","147","","","","","","597","<button class=""jspsych-btn""><img src=""stimuli/turquoise.png"" style=""width: 200px;height: 200px;""></button>","0","turquoise","mustard","[""turquoise"",""mustard"",""low nameability""]","left-right","[""turquoise"",""mustard"",""low nameability""]","3","low nameability","30","left","response","1"
"html-audio-button-response","149","502764","0.0-113.0-1.0","CAN_147","147","","","","","","null","stimuli/bleep.m4a","null","turquoise","mustard","[""turquoise"",""mustard"",""low nameability""]","left-right","[""turquoise"",""mustard"",""low nameability""]","3","low nameability","30","left","audio_feedback","1"
"html-button-response","150","503281","0.0-114.0","CAN_147","147","","","","","","null","<button class=""jspsych-btn""><img src=""stimuli/white_square.png"" style=""width: 200px;height: 200px;""></button>","null","turquoise","mustard","[""turquoise"",""mustard"",""low nameability""]","left-right","[""turquoise"",""mustard"",""low nameability""]","3","low nameability","30","left","iti",""
"pavlovia","151","503353","0.0-115.0","CAN_147","147","","","","","","","","","","","","","","","","","","",""
"pavlovia","152","503363","0.0-116.0","CAN_147","147","","","","","","","","","","","","","","","","","","",""
"html-audio-button-response","153","504565","0.0-117.0","CAN_147","147","","","","","","1280","stimuli/tada.m4a","0","","","","","","","","","","",""
"html-button-response","154","505199","0.0-118.0","CAN_147","147","","","","","","627","","0","","","","","","","","","","",""
"html-button-response","155","505855","0.0-119.0","CAN_147","147","","","","","","645","","0","darkgreenblue","neonyellow","[""darkgreenblue"",""neonyellow"",""low nameability""]","right-left","[""neonyellow"",""darkgreenblue""]","4","low nameability","31","right","trigger",""
"html-button-response","156","506483","0.0-120.0-0.0","CAN_147","147","","","","","","620","<button class=""jspsych-btn""><img src=""stimuli/darkgreenblue.png"" style=""width: 200px;height: 200px;""></button>","1","darkgreenblue","neonyellow","[""darkgreenblue"",""neonyellow"",""low nameability""]","right-left","[""neonyellow"",""darkgreenblue""]","4","low nameability","31","right","response","1"
"html-audio-button-response","157","506689","0.0-120.0-1.0","CAN_147","147","","","","","","null","stimuli/bleep.m4a","null","darkgreenblue","neonyellow","[""darkgreenblue"",""neonyellow"",""low nameability""]","right-left","[""neonyellow"",""darkgreenblue""]","4","low nameability","31","right","audio_feedback","1"
"html-button-response","158","507210","0.0-121.0","CAN_147","147","","","","","","null","<button class=""jspsych-btn""><img src=""stimuli/white_square.png"" style=""width: 200px;height: 200px;""></button>","null","darkgreenblue","neonyellow","[""darkgreenblue"",""neonyellow"",""low nameability""]","right-left","[""neonyellow"",""darkgreenblue""]","4","low nameability","31","right","iti",""
"html-button-response","159","507683","0.0-122.0","CAN_147","147","","","","","","450","","0","darkgreenblue","mustard","[""darkgreenblue"",""mustard"",""low nameability""]","left-right","[""darkgreenblue"",""mustard"",""low nameability""]","4","low nameability","32","left","trigger",""
"html-button-response","160","508290","0.0-123.0-0.0","CAN_147","147","","","","","","599","<button class=""jspsych-btn""><img src=""stimuli/darkgreenblue.png"" style=""width: 200px;height: 200px;""></button>","0","darkgreenblue","mustard","[""darkgreenblue"",""mustard"",""low nameability""]","left-right","[""darkgreenblue"",""mustard"",""low nameability""]","4","low nameability","32","left","response","1"
"html-audio-button-response","161","508496","0.0-123.0-1.0","CAN_147","147","","","","","","null","stimuli/bleep.m4a","null","darkgreenblue","mustard","[""darkgreenblue"",""mustard"",""low nameability""]","left-right","[""darkgreenblue"",""mustard"",""low nameability""]","4","low nameability","32","left","audio_feedback","1"
"html-button-response","162","509017","0.0-124.0","CAN_147","147","","","","","","null","<button class=""jspsych-btn""><img src=""stimuli/white_square.png"" style=""width: 200px;height: 200px;""></button>","null","darkgreenblue","mustard","[""darkgreenblue"",""mustard"",""low nameability""]","left-right","[""darkgreenblue"",""mustard"",""low nameability""]","4","low nameability","32","left","iti",""
"html-button-response","163","509668","0.0-125.0","CAN_147","147","","","","","","634","","0","lightred","pink","[""lightred"",""pink"",""low nameability""]","left-right","[""lightred"",""pink"",""low nameability""]","4","low nameability","33","left","trigger",""
"html-button-response","164","510382","0.0-126.0-0.0","CAN_147","147","","","","","","705","<button class=""jspsych-btn""><img src=""stimuli/lightred.png"" style=""width: 200px;height: 200px;""></button>","0","lightred","pink","[""lightred"",""pink"",""low nameability""]","left-right","[""lightred"",""pink"",""low nameability""]","4","low nameability","33","left","response","1"
"html-audio-button-response","165","510584","0.0-126.0-1.0","CAN_147","147","","","","","","null","stimuli/bleep.m4a","null","lightred","pink","[""lightred"",""pink"",""low nameability""]","left-right","[""lightred"",""pink"",""low nameability""]","4","low nameability","33","left","audio_feedback","1"
"html-button-response","166","511101","0.0-127.0","CAN_147","147","","","","","","null","<button class=""jspsych-btn""><img src=""stimuli/white_square.png"" style=""width: 200px;height: 200px;""></button>","null","lightred","pink","[""lightred"",""pink"",""low nameability""]","left-right","[""lightred"",""pink"",""low nameability""]","4","low nameability","33","left","iti",""
"html-button-response","167","511687","0.0-128.0","CAN_147","147","","","","","","566","","0","darkgreenblue","lightred","[""darkgreenblue"",""lightred"",""low nameability""]","left-right","[""darkgreenblue"",""lightred"",""low nameability""]","4","low nameability","34","left","trigger",""
"html-button-response","168","512424","0.0-129.0-0.0","CAN_147","147","","","","","","731","<button class=""jspsych-btn""><img src=""stimuli/darkgreenblue.png"" style=""width: 200px;height: 200px;""></button>","0","darkgreenblue","lightred","[""darkgreenblue"",""lightred"",""low nameability""]","left-right","[""darkgreenblue"",""lightred"",""low nameability""]","4","low nameability","34","left","response","1"
"html-audio-button-response","169","512630","0.0-129.0-1.0","CAN_147","147","","","","","","null","stimuli/bleep.m4a","null","darkgreenblue","lightred","[""darkgreenblue"",""lightred"",""low nameability""]","left-right","[""darkgreenblue"",""lightred"",""low nameability""]","4","low nameability","34","left","audio_feedback","1"
"html-button-response","170","513145","0.0-130.0","CAN_147","147","","","","","","null","<button class=""jspsych-btn""><img src=""stimuli/white_square.png"" style=""width: 200px;height: 200px;""></button>","null","darkgreenblue","lightred","[""darkgreenblue"",""lightred"",""low nameability""]","left-right","[""darkgreenblue"",""lightred"",""low nameability""]","4","low nameability","34","left","iti",""
"html-button-response","171","513826","0.0-131.0","CAN_147","147","","","","","","661","","0","darkgreenblue","turquoise","[""darkgreenblue"",""turquoise"",""low nameability""]","right-left","[""turquoise"",""darkgreenblue""]","4","low nameability","35","right","trigger",""
"html-button-response","172","514443","0.0-132.0-0.0","CAN_147","147","","","","","","607","<button class=""jspsych-btn""><img src=""stimuli/darkgreenblue.png"" style=""width: 200px;height: 200px;""></button>","1","darkgreenblue","turquoise","[""darkgreenblue"",""turquoise"",""low nameability""]","right-left","[""turquoise"",""darkgreenblue""]","4","low nameability","35","right","response","1"
"html-audio-button-response","173","514647","0.0-132.0-1.0","CAN_147","147","","","","","","null","stimuli/bleep.m4a","null","darkgreenblue","turquoise","[""darkgreenblue"",""turquoise"",""low nameability""]","right-left","[""turquoise"",""darkgreenblue""]","4","low nameability","35","right","audio_feedback","1"
"html-button-response","174","515165","0.0-133.0","CAN_147","147","","","","","","null","<button class=""jspsych-btn""><img src=""stimuli/white_square.png"" style=""width: 200px;height: 200px;""></button>","null","darkgreenblue","turquoise","[""darkgreenblue"",""turquoise"",""low nameability""]","right-left","[""turquoise"",""darkgreenblue""]","4","low nameability","35","right","iti",""
"html-button-response","175","515766","0.0-134.0","CAN_147","147","","","","","","583","","0","orange","brown","[""orange"",""brown"",""high nameability""]","left-right","[""orange"",""brown"",""high nameability""]","4","high nameability","36","left","trigger",""
"html-button-response","176","516370","0.0-135.0-0.0","CAN_147","147","","","","","","595","<button class=""jspsych-btn""><img src=""stimuli/orange.png"" style=""width: 200px;height: 200px;""></button>","0","orange","brown","[""orange"",""brown"",""high nameability""]","left-right","[""orange"",""brown"",""high nameability""]","4","high nameability","36","left","response","1"
"html-audio-button-response","177","516581","0.0-135.0-1.0","CAN_147","147","","","","","","null","stimuli/bleep.m4a","null","orange","brown","[""orange"",""brown"",""high nameability""]","left-right","[""orange"",""brown"",""high nameability""]","4","high nameability","36","left","audio_feedback","1"
"html-button-response","178","517108","0.0-136.0","CAN_147","147","","","","","","null","<button class=""jspsych-btn""><img src=""stimuli/white_square.png"" style=""width: 200px;height: 200px;""></button>","null","orange","brown","[""orange"",""brown"",""high nameability""]","left-right","[""orange"",""brown"",""high nameability""]","4","high nameability","36","left","iti",""
"html-button-response","179","517689","0.0-137.0","CAN_147","147","","","","","","555","","0","pink","darkgreenblue","[""pink"",""darkgreenblue"",""low nameability""]","left-right","[""pink"",""darkgreenblue"",""low nameability""]","4","low nameability","37","left","trigger",""
"html-button-response","180","518327","0.0-138.0-0.0","CAN_147","147","","","","","","627","<button class=""jspsych-btn""><img src=""stimuli/pink.png"" style=""width: 200px;height: 200px;""></button>","0","pink","darkgreenblue","[""pink"",""darkgreenblue"",""low nameability""]","left-right","[""pink"",""darkgreenblue"",""low nameability""]","4","low nameability","37","left","response","1"
"html-audio-button-response","181","518531","0.0-138.0-1.0","CAN_147","147","","","","","","null","stimuli/bleep.m4a","null","pink","darkgreenblue","[""pink"",""darkgreenblue"",""low nameability""]","left-right","[""pink"",""darkgreenblue"",""low nameability""]","4","low nameability","37","left","audio_feedback","1"
"html-button-response","182","519056","0.0-139.0","CAN_147","147","","","","","","null","<button class=""jspsych-btn""><img src=""stimuli/white_square.png"" style=""width: 200px;height: 200px;""></button>","null","pink","darkgreenblue","[""pink"",""darkgreenblue"",""low nameability""]","left-right","[""pink"",""darkgreenblue"",""low nameability""]","4","low nameability","37","left","iti",""
"html-button-response","183","519586","0.0-140.0","CAN_147","147","","","","","","483","","0","red","orange","[""red"",""orange"",""high nameability""]","left-right","[""red"",""orange"",""high nameability""]","4","high nameability","38","left","trigger",""
"html-button-response","184","520195","0.0-141.0-0.0","CAN_147","147","","","","","","601","<button class=""jspsych-btn""><img src=""stimuli/red.png"" style=""width: 200px;height: 200px;""></button>","0","red","orange","[""red"",""orange"",""high nameability""]","left-right","[""red"",""orange"",""high nameability""]","4","high nameability","38","left","response","1"
"html-audio-button-response","185","520402","0.0-141.0-1.0","CAN_147","147","","","","","","null","stimuli/bleep.m4a","null","red","orange","[""red"",""orange"",""high nameability""]","left-right","[""red"",""orange"",""high nameability""]","4","high nameability","38","left","audio_feedback","1"
"html-button-response","186","520919","0.0-142.0","CAN_147","147","","","","","","null","<button class=""jspsych-btn""><img src=""stimuli/white_square.png"" style=""width: 200px;height: 200px;""></button>","null","red","orange","[""red"",""orange"",""high nameability""]","left-right","[""red"",""orange"",""high nameability""]","4","high nameability","38","left","iti",""
"html-button-response","187","521562","0.0-143.0","CAN_147","147","","","","","","625","","0","orange","blue","[""orange"",""blue"",""high nameability""]","left-right","[""orange"",""blue"",""high nameability""]","4","high nameability","39","left","trigger",""
"html-button-response","188","522263","0.0-144.0-0.0","CAN_147","147","","","","","","692","<button class=""jspsych-btn""><img src=""stimuli/orange.png"" style=""width: 200px;height: 200px;""></button>","0","orange","blue","[""orange"",""blue"",""high nameability""]","left-right","[""orange"",""blue"",""high nameability""]","4","high nameability","39","left","response","1"
"html-audio-button-response","189","522467","0.0-144.0-1.0","CAN_147","147","","","","","","null","stimuli/bleep.m4a","null","orange","blue","[""orange"",""blue"",""high nameability""]","left-right","[""orange"",""blue"",""high nameability""]","4","high nameability","39","left","audio_feedback","1"
"html-button-response","190","522991","0.0-145.0","CAN_147","147","","","","","","null","<button class=""jspsych-btn""><img src=""stimuli/white_square.png"" style=""width: 200px;height: 200px;""></button>","null","orange","blue","[""orange"",""blue"",""high nameability""]","left-right","[""orange"",""blue"",""high nameability""]","4","high nameability","39","left","iti",""
"html-button-response","191","523641","0.0-146.0","CAN_147","147","","","","","","631","","0","brown","red","[""brown"",""red"",""high nameability""]","right-left","[""red"",""brown""]","4","high nameability","40","right","trigger",""
"html-button-response","192","524266","0.0-147.0-0.0","CAN_147","147","","","","","","617","<button class=""jspsych-btn""><img src=""stimuli/brown.png"" style=""width: 200px;height: 200px;""></button>","1","brown","red","[""brown"",""red"",""high nameability""]","right-left","[""red"",""brown""]","4","high nameability","40","right","response","1"
"html-audio-button-response","193","524469","0.0-147.0-1.0","CAN_147","147","","","","","","null","stimuli/bleep.m4a","null","brown","red","[""brown"",""red"",""high nameability""]","right-left","[""red"",""brown""]","4","high nameability","40","right","audio_feedback","1"
"html-button-response","194","524983","0.0-148.0","CAN_147","147","","","","","","null","<button class=""jspsych-btn""><img src=""stimuli/white_square.png"" style=""width: 200px;height: 200px;""></button>","null","brown","red","[""brown"",""red"",""high nameability""]","right-left","[""red"",""brown""]","4","high nameability","40","right","iti",""
"pavlovia","195","525052","0.0-149.0","CAN_147","147","","","","","","","","","","","","","","","","","","",""
"pavlovia","196","525061","0.0-150.0","CAN_147","147","","","","","","","","","","","","","","","","","","",""
"html-audio-button-response","197","529140","0.0-151.0","CAN_147","147","","","","","","4155","stimuli/tada.m4a","0","","","","","","","","","","",""
"html-button-response","198","530006","0.0-152.0","CAN_147","147","","","","","","859","","0","","","","","","","","","","",""
"html-button-response","199","530594","0.0-153.0","CAN_147","147","","","","","","581","","0","red","blue","[""red"",""blue"",""high nameability""]","right-left","[""blue"",""red""]","5","high nameability","41","right","trigger",""
"html-button-response","200","531264","0.0-154.0-0.0","CAN_147","147","","","","","","661","<button class=""jspsych-btn""><img src=""stimuli/red.png"" style=""width: 200px;height: 200px;""></button>","1","red","blue","[""red"",""blue"",""high nameability""]","right-left","[""blue"",""red""]","5","high nameability","41","right","response","1"
"html-audio-button-response","201","531470","0.0-154.0-1.0","CAN_147","147","","","","","","null","stimuli/bleep.m4a","null","red","blue","[""red"",""blue"",""high nameability""]","right-left","[""blue"",""red""]","5","high nameability","41","right","audio_feedback","1"
"html-button-response","202","531990","0.0-155.0","CAN_147","147","","","","","","null","<button class=""jspsych-btn""><img src=""stimuli/white_square.png"" style=""width: 200px;height: 200px;""></button>","null","red","blue","[""red"",""blue"",""high nameability""]","right-left","[""blue"",""red""]","5","high nameability","41","right","iti",""
"html-button-response","203","532508","0.0-156.0","CAN_147","147","","","","","","502","","0","yellow","blue","[""yellow"",""blue"",""high nameability""]","right-left","[""blue"",""yellow""]","5","high nameability","42","right","trigger",""
"html-button-response","204","533085","0.0-157.0-0.0","CAN_147","147","","","","","","570","<button class=""jspsych-btn""><img src=""stimuli/yellow.png"" style=""width: 200px;height: 200px;""></button>","1","yellow","blue","[""yellow"",""blue"",""high nameability""]","right-left","[""blue"",""yellow""]","5","high nameability","42","right","response","1"
"html-audio-button-response","205","533291","0.0-157.0-1.0","CAN_147","147","","","","","","null","stimuli/bleep.m4a","null","yellow","blue","[""yellow"",""blue"",""high nameability""]","right-left","[""blue"",""yellow""]","5","high nameability","42","right","audio_feedback","1"
"html-button-response","206","533810","0.0-158.0","CAN_147","147","","","","","","null","<button class=""jspsych-btn""><img src=""stimuli/white_square.png"" style=""width: 200px;height: 200px;""></button>","null","yellow","blue","[""yellow"",""blue"",""high nameability""]","right-left","[""blue"",""yellow""]","5","high nameability","42","right","iti",""
"html-button-response","207","534408","0.0-159.0","CAN_147","147","","","","","","580","","0","mustard","lightred","[""mustard"",""lightred"",""low nameability""]","left-right","[""mustard"",""lightred"",""low nameability""]","5","low nameability","43","left","trigger",""
"html-button-response","208","535097","0.0-160.0-0.0","CAN_147","147","","","","","","680","<button class=""jspsych-btn""><img src=""stimuli/mustard.png"" style=""width: 200px;height: 200px;""></button>","0","mustard","lightred","[""mustard"",""lightred"",""low nameability""]","left-right","[""mustard"",""lightred"",""low nameability""]","5","low nameability","43","left","response","1"
"html-audio-button-response","209","535305","0.0-160.0-1.0","CAN_147","147","","","","","","null","stimuli/bleep.m4a","null","mustard","lightred","[""mustard"",""lightred"",""low nameability""]","left-right","[""mustard"",""lightred"",""low nameability""]","5","low nameability","43","left","audio_feedback","1"
"html-button-response","210","535825","0.0-161.0","CAN_147","147","","","","","","null","<button class=""jspsych-btn""><img src=""stimuli/white_square.png"" style=""width: 200px;height: 200px;""></button>","null","mustard","lightred","[""mustard"",""lightred"",""low nameability""]","left-right","[""mustard"",""lightred"",""low nameability""]","5","low nameability","43","left","iti",""
"html-button-response","211","536404","0.0-162.0","CAN_147","147","","","","","","562","","0","blue","orange","[""blue"",""orange"",""high nameability""]","left-right","[""blue"",""orange"",""high nameability""]","5","high nameability","44","left","trigger",""
"html-button-response","212","537129","0.0-163.0-0.0","CAN_147","147","","","","","","717","<button class=""jspsych-btn""><img src=""stimuli/blue.png"" style=""width: 200px;height: 200px;""></button>","0","blue","orange","[""blue"",""orange"",""high nameability""]","left-right","[""blue"",""orange"",""high nameability""]","5","high nameability","44","left","response","1"
"html-audio-button-response","213","537336","0.0-163.0-1.0","CAN_147","147","","","","","","null","stimuli/bleep.m4a","null","blue","orange","[""blue"",""orange"",""high nameability""]","left-right","[""blue"",""orange"",""high nameability""]","5","high nameability","44","left","audio_feedback","1"
"html-button-response","214","537853","0.0-164.0","CAN_147","147","","","","","","null","<button class=""jspsych-btn""><img src=""stimuli/white_square.png"" style=""width: 200px;height: 200px;""></button>","null","blue","orange","[""blue"",""orange"",""high nameability""]","left-right","[""blue"",""orange"",""high nameability""]","5","high nameability","44","left","iti",""
"html-button-response","215","538438","0.0-165.0","CAN_147","147","","","","","","564","","0","purple","yellow","[""purple"",""yellow"",""high nameability""]","right-left","[""yellow"",""purple""]","5","high nameability","45","right","trigger",""
"html-button-response","216","539003","0.0-166.0-0.0","CAN_147","147","","","","","","558","<button class=""jspsych-btn""><img src=""stimuli/purple.png"" style=""width: 200px;height: 200px;""></button>","1","purple","yellow","[""purple"",""yellow"",""high nameability""]","right-left","[""yellow"",""purple""]","5","high nameability","45","right","response","1"
"html-audio-button-response","217","539203","0.0-166.0-1.0","CAN_147","147","","","","","","null","stimuli/bleep.m4a","null","purple","yellow","[""purple"",""yellow"",""high nameability""]","right-left","[""yellow"",""purple""]","5","high nameability","45","right","audio_feedback","1"
"html-button-response","218","539723","0.0-167.0","CAN_147","147","","","","","","null","<button class=""jspsych-btn""><img src=""stimuli/white_square.png"" style=""width: 200px;height: 200px;""></button>","null","purple","yellow","[""purple"",""yellow"",""high nameability""]","right-left","[""yellow"",""purple""]","5","high nameability","45","right","iti",""
"html-button-response","219","540385","0.0-168.0","CAN_147","147","","","","","","645","","0","brown","purple","[""brown"",""purple"",""high nameability""]","right-left","[""purple"",""brown""]","5","high nameability","46","right","trigger",""
"html-button-response","220","540965","0.0-169.0-0.0","CAN_147","147","","","","","","570","<button class=""jspsych-btn""><img src=""stimuli/brown.png"" style=""width: 200px;height: 200px;""></button>","1","brown","purple","[""brown"",""purple"",""high nameability""]","right-left","[""purple"",""brown""]","5","high nameability","46","right","response","1"
"html-audio-button-response","221","541169","0.0-169.0-1.0","CAN_147","147","","","","","","null","stimuli/bleep.m4a","null","brown","purple","[""brown"",""purple"",""high nameability""]","right-left","[""purple"",""brown""]","5","high nameability","46","right","audio_feedback","1"
"html-button-response","222","541684","0.0-170.0","CAN_147","147","","","","","","null","<button class=""jspsych-btn""><img src=""stimuli/white_square.png"" style=""width: 200px;height: 200px;""></button>","null","brown","purple","[""brown"",""purple"",""high nameability""]","right-left","[""purple"",""brown""]","5","high nameability","46","right","iti",""
"html-button-response","223","542260","0.0-171.0","CAN_147","147","","","","","","553","","0","pink","lightred","[""pink"",""lightred"",""low nameability""]","left-right","[""pink"",""lightred"",""low nameability""]","5","low nameability","47","left","trigger",""
"html-button-response","224","542926","0.0-172.0-0.0","CAN_147","147","","","","","","660","<button class=""jspsych-btn""><img src=""stimuli/pink.png"" style=""width: 200px;height: 200px;""></button>","0","pink","lightred","[""pink"",""lightred"",""low nameability""]","left-right","[""pink"",""lightred"",""low nameability""]","5","low nameability","47","left","response","1"
"html-audio-button-response","225","543130","0.0-172.0-1.0","CAN_147","147","","","","","","null","stimuli/bleep.m4a","null","pink","lightred","[""pink"",""lightred"",""low nameability""]","left-right","[""pink"",""lightred"",""low nameability""]","5","low nameability","47","left","audio_feedback","1"
"html-button-response","226","543649","0.0-173.0","CAN_147","147","","","","","","null","<button class=""jspsych-btn""><img src=""stimuli/white_square.png"" style=""width: 200px;height: 200px;""></button>","null","pink","lightred","[""pink"",""lightred"",""low nameability""]","left-right","[""pink"",""lightred"",""low nameability""]","5","low nameability","47","left","iti",""
"html-button-response","227","544240","0.0-174.0","CAN_147","147","","","","","","564","","0","mustard","pink","[""mustard"",""pink"",""low nameability""]","right-left","[""pink"",""mustard""]","5","low nameability","48","right","trigger",""
"html-button-response","228","544821","0.0-175.0-0.0","CAN_147","147","","","","","","574","<button class=""jspsych-btn""><img src=""stimuli/mustard.png"" style=""width: 200px;height: 200px;""></button>","1","mustard","pink","[""mustard"",""pink"",""low nameability""]","right-left","[""pink"",""mustard""]","5","low nameability","48","right","response","1"
"html-audio-button-response","229","545024","0.0-175.0-1.0","CAN_147","147","","","","","","null","stimuli/bleep.m4a","null","mustard","pink","[""mustard"",""pink"",""low nameability""]","right-left","[""pink"",""mustard""]","5","low nameability","48","right","audio_feedback","1"
"html-button-response","230","545541","0.0-176.0","CAN_147","147","","","","","","null","<button class=""jspsych-btn""><img src=""stimuli/white_square.png"" style=""width: 200px;height: 200px;""></button>","null","mustard","pink","[""mustard"",""pink"",""low nameability""]","right-left","[""pink"",""mustard""]","5","low nameability","48","right","iti",""
"html-button-response","231","546120","0.0-177.0","CAN_147","147","","","","","","561","","0","orange","purple","[""orange"",""purple"",""high nameability""]","right-left","[""purple"",""orange""]","5","high nameability","49","right","trigger",""
"html-button-response","232","546734","0.0-178.0-0.0","CAN_147","147","","","","","","607","<button class=""jspsych-btn""><img src=""stimuli/orange.png"" style=""width: 200px;height: 200px;""></button>","1","orange","purple","[""orange"",""purple"",""high nameability""]","right-left","[""purple"",""orange""]","5","high nameability","49","right","response","1"
"html-audio-button-response","233","546941","0.0-178.0-1.0","CAN_147","147","","","","","","null","stimuli/bleep.m4a","null","orange","purple","[""orange"",""purple"",""high nameability""]","right-left","[""purple"",""orange""]","5","high nameability","49","right","audio_feedback","1"
"html-button-response","234","547463","0.0-179.0","CAN_147","147","","","","","","null","<button class=""jspsych-btn""><img src=""stimuli/white_square.png"" style=""width: 200px;height: 200px;""></button>","null","orange","purple","[""orange"",""purple"",""high nameability""]","right-left","[""purple"",""orange""]","5","high nameability","49","right","iti",""
"html-button-response","235","548154","0.0-180.0","CAN_147","147","","","","","","673","","0","yellow","red","[""yellow"",""red"",""high nameability""]","right-left","[""red"",""yellow""]","5","high nameability","50","right","trigger",""
"html-button-response","236","548770","0.0-181.0-0.0","CAN_147","147","","","","","","608","<button class=""jspsych-btn""><img src=""stimuli/yellow.png"" style=""width: 200px;height: 200px;""></button>","1","yellow","red","[""yellow"",""red"",""high nameability""]","right-left","[""red"",""yellow""]","5","high nameability","50","right","response","1"
"html-audio-button-response","237","548975","0.0-181.0-1.0","CAN_147","147","","","","","","null","stimuli/bleep.m4a","null","yellow","red","[""yellow"",""red"",""high nameability""]","right-left","[""red"",""yellow""]","5","high nameability","50","right","audio_feedback","1"
"html-button-response","238","549490","0.0-182.0","CAN_147","147","","","","","","null","<button class=""jspsych-btn""><img src=""stimuli/white_square.png"" style=""width: 200px;height: 200px;""></button>","null","yellow","red","[""yellow"",""red"",""high nameability""]","right-left","[""red"",""yellow""]","5","high nameability","50","right","iti",""
"pavlovia","239","549564","0.0-183.0","CAN_147","147","","","","","","","","","","","","","","","","","","",""
"pavlovia","240","549576","0.0-184.0","CAN_147","147","","","","","","","","","","","","","","","","","","",""
"html-audio-button-response","241","551315","0.0-185.0","CAN_147","147","","","","","","1824","stimuli/tada.m4a","0","","","","","","","","","","",""
"html-button-response","242","552014","0.0-186.0","CAN_147","147","","","","","","694","","0","","","","","","","","","","",""
"html-button-response","243","552547","0.0-187.0","CAN_147","147","","","","","","525","","0","brown","yellow","[""brown"",""yellow"",""high nameability""]","left-right","[""brown"",""yellow"",""high nameability""]","6","high nameability","51","left","trigger",""
"html-button-response","244","553224","0.0-188.0-0.0","CAN_147","147","","","","","","670","<button class=""jspsych-btn""><img src=""stimuli/brown.png"" style=""width: 200px;height: 200px;""></button>","0","brown","yellow","[""brown"",""yellow"",""high nameability""]","left-right","[""brown"",""yellow"",""high nameability""]","6","high nameability","51","left","response","1"
"html-audio-button-response","245","553429","0.0-188.0-1.0","CAN_147","147","","","","","","null","stimuli/bleep.m4a","null","brown","yellow","[""brown"",""yellow"",""high nameability""]","left-right","[""brown"",""yellow"",""high nameability""]","6","high nameability","51","left","audio_feedback","1"
"html-button-response","246","553944","0.0-189.0","CAN_147","147","","","","","","null","<button class=""jspsych-btn""><img src=""stimuli/white_square.png"" style=""width: 200px;height: 200px;""></button>","null","brown","yellow","[""brown"",""yellow"",""high nameability""]","left-right","[""brown"",""yellow"",""high nameability""]","6","high nameability","51","left","iti",""
"html-button-response","247","554473","0.0-190.0","CAN_147","147","","","","","","509","","0","mustard","darkgreenblue","[""mustard"",""darkgreenblue"",""low nameability""]","left-right","[""mustard"",""darkgreenblue"",""low nameability""]","6","low nameability","52","left","trigger",""
"html-button-response","248","555182","0.0-191.0-0.0","CAN_147","147","","","","","","705","<button class=""jspsych-btn""><img src=""stimuli/mustard.png"" style=""width: 200px;height: 200px;""></button>","0","mustard","darkgreenblue","[""mustard"",""darkgreenblue"",""low nameability""]","left-right","[""mustard"",""darkgreenblue"",""low nameability""]","6","low nameability","52","left","response","1"
"html-audio-button-response","249","555384","0.0-191.0-1.0","CAN_147","147","","","","","","null","stimuli/bleep.m4a","null","mustard","darkgreenblue","[""mustard"",""darkgreenblue"",""low nameability""]","left-right","[""mustard"",""darkgreenblue"",""low nameability""]","6","low nameability","52","left","audio_feedback","1"
"html-button-response","250","555900","0.0-192.0","CAN_147","147","","","","","","null","<button class=""jspsych-btn""><img src=""stimuli/white_square.png"" style=""width: 200px;height: 200px;""></button>","null","mustard","darkgreenblue","[""mustard"",""darkgreenblue"",""low nameability""]","left-right","[""mustard"",""darkgreenblue"",""low nameability""]","6","low nameability","52","left","iti",""
"html-button-response","251","556430","0.0-193.0","CAN_147","147","","","","","","512","","0","blue","purple","[""blue"",""purple"",""high nameability""]","left-right","[""blue"",""purple"",""high nameability""]","6","high nameability","53","left","trigger",""
"html-button-response","252","557049","0.0-194.0-0.0","CAN_147","147","","","","","","612","<button class=""jspsych-btn""><img src=""stimuli/blue.png"" style=""width: 200px;height: 200px;""></button>","0","blue","purple","[""blue"",""purple"",""high nameability""]","left-right","[""blue"",""purple"",""high nameability""]","6","high nameability","53","left","response","1"
"html-audio-button-response","253","557255","0.0-194.0-1.0","CAN_147","147","","","","","","null","stimuli/bleep.m4a","null","blue","purple","[""blue"",""purple"",""high nameability""]","left-right","[""blue"",""purple"",""high nameability""]","6","high nameability","53","left","audio_feedback","1"
"html-button-response","254","557770","0.0-195.0","CAN_147","147","","","","","","null","<button class=""jspsych-btn""><img src=""stimuli/white_square.png"" style=""width: 200px;height: 200px;""></button>","null","blue","purple","[""blue"",""purple"",""high nameability""]","left-right","[""blue"",""purple"",""high nameability""]","6","high nameability","53","left","iti",""
"html-button-response","255","558452","0.0-196.0","CAN_147","147","","","","","","663","","0","purple","blue","[""purple"",""blue"",""high nameability""]","right-left","[""blue"",""purple""]","6","high nameability","54","right","trigger",""
"html-button-response","256","559053","0.0-197.0-0.0","CAN_147","147","","","","","","594","<button class=""jspsych-btn""><img src=""stimuli/purple.png"" style=""width: 200px;height: 200px;""></button>","1","purple","blue","[""purple"",""blue"",""high nameability""]","right-left","[""blue"",""purple""]","6","high nameability","54","right","response","1"
"html-audio-button-response","257","559257","0.0-197.0-1.0","CAN_147","147","","","","","","null","stimuli/bleep.m4a","null","purple","blue","[""purple"",""blue"",""high nameability""]","right-left","[""blue"",""purple""]","6","high nameability","54","right","audio_feedback","1"
"html-button-response","258","559781","0.0-198.0","CAN_147","147","","","","","","null","<button class=""jspsych-btn""><img src=""stimuli/white_square.png"" style=""width: 200px;height: 200px;""></button>","null","purple","blue","[""purple"",""blue"",""high nameability""]","right-left","[""blue"",""purple""]","6","high nameability","54","right","iti",""
"html-button-response","259","560439","0.0-199.0","CAN_147","147","","","","","","634","","0","darkgreenblue","pink","[""darkgreenblue"",""pink"",""low nameability""]","right-left","[""pink"",""darkgreenblue""]","6","low nameability","55","right","trigger",""
"html-button-response","260","561121","0.0-200.0-0.0","CAN_147","147","","","","","","662","<button class=""jspsych-btn""><img src=""stimuli/darkgreenblue.png"" style=""width: 200px;height: 200px;""></button>","1","darkgreenblue","pink","[""darkgreenblue"",""pink"",""low nameability""]","right-left","[""pink"",""darkgreenblue""]","6","low nameability","55","right","response","1"
"html-audio-button-response","261","561340","0.0-200.0-1.0","CAN_147","147","","","","","","null","stimuli/bleep.m4a","null","darkgreenblue","pink","[""darkgreenblue"",""pink"",""low nameability""]","right-left","[""pink"",""darkgreenblue""]","6","low nameability","55","right","audio_feedback","1"
"html-button-response","262","561874","0.0-201.0","CAN_147","147","","","","","","null","<button class=""jspsych-btn""><img src=""stimuli/white_square.png"" style=""width: 200px;height: 200px;""></button>","null","darkgreenblue","pink","[""darkgreenblue"",""pink"",""low nameability""]","right-left","[""pink"",""darkgreenblue""]","6","low nameability","55","right","iti",""
"html-button-response","263","562475","0.0-202.0","CAN_147","147","","","","","","581","","0","brown","blue","[""brown"",""blue"",""high nameability""]","left-right","[""brown"",""blue"",""high nameability""]","6","high nameability","56","left","trigger",""
"html-button-response","264","563162","0.0-203.0-0.0","CAN_147","147","","","","","","672","<button class=""jspsych-btn""><img src=""stimuli/brown.png"" style=""width: 200px;height: 200px;""></button>","0","brown","blue","[""brown"",""blue"",""high nameability""]","left-right","[""brown"",""blue"",""high nameability""]","6","high nameability","56","left","response","1"
"html-audio-button-response","265","563376","0.0-203.0-1.0","CAN_147","147","","","","","","null","stimuli/bleep.m4a","null","brown","blue","[""brown"",""blue"",""high nameability""]","left-right","[""brown"",""blue"",""high nameability""]","6","high nameability","56","left","audio_feedback","1"
"html-button-response","266","563901","0.0-204.0","CAN_147","147","","","","","","null","<button class=""jspsych-btn""><img src=""stimuli/white_square.png"" style=""width: 200px;height: 200px;""></button>","null","brown","blue","[""brown"",""blue"",""high nameability""]","left-right","[""brown"",""blue"",""high nameability""]","6","high nameability","56","left","iti",""
"html-button-response","267","564558","0.0-205.0","CAN_147","147","","","","","","625","","0","pink","neonyellow","[""pink"",""neonyellow"",""low nameability""]","right-left","[""neonyellow"",""pink""]","6","low nameability","57","right","trigger",""
"html-button-response","268","565115","0.0-206.0-0.0","CAN_147","147","","","","","","533","<button class=""jspsych-btn""><img src=""stimuli/pink.png"" style=""width: 200px;height: 200px;""></button>","1","pink","neonyellow","[""pink"",""neonyellow"",""low nameability""]","right-left","[""neonyellow"",""pink""]","6","low nameability","57","right","response","1"
"html-audio-button-response","269","565332","0.0-206.0-1.0","CAN_147","147","","","","","","null","stimuli/bleep.m4a","null","pink","neonyellow","[""pink"",""neonyellow"",""low nameability""]","right-left","[""neonyellow"",""pink""]","6","low nameability","57","right","audio_feedback","1"
"html-button-response","270","565863","0.0-207.0","CAN_147","147","","","","","","null","<button class=""jspsych-btn""><img src=""stimuli/white_square.png"" style=""width: 200px;height: 200px;""></button>","null","pink","neonyellow","[""pink"",""neonyellow"",""low nameability""]","right-left","[""neonyellow"",""pink""]","6","low nameability","57","right","iti",""
"html-button-response","271","566320","0.0-208.0","CAN_147","147","","","","","","427","","0","yellow","brown","[""yellow"",""brown"",""high nameability""]","left-right","[""yellow"",""brown"",""high nameability""]","6","high nameability","58","left","trigger",""
"html-button-response","272","566935","0.0-209.0-0.0","CAN_147","147","","","","","","600","<button class=""jspsych-btn""><img src=""stimuli/yellow.png"" style=""width: 200px;height: 200px;""></button>","0","yellow","brown","[""yellow"",""brown"",""high nameability""]","left-right","[""yellow"",""brown"",""high nameability""]","6","high nameability","58","left","response","1"
"html-audio-button-response","273","567147","0.0-209.0-1.0","CAN_147","147","","","","","","null","stimuli/bleep.m4a","null","yellow","brown","[""yellow"",""brown"",""high nameability""]","left-right","[""yellow"",""brown"",""high nameability""]","6","high nameability","58","left","audio_feedback","1"
"html-button-response","274","567674","0.0-210.0","CAN_147","147","","","","","","null","<button class=""jspsych-btn""><img src=""stimuli/white_square.png"" style=""width: 200px;height: 200px;""></button>","null","yellow","brown","[""yellow"",""brown"",""high nameability""]","left-right","[""yellow"",""brown"",""high nameability""]","6","high nameability","58","left","iti",""
"html-button-response","275","568194","0.0-211.0","CAN_147","147","","","","","","500","","0","red","yellow","[""red"",""yellow"",""high nameability""]","right-left","[""yellow"",""red""]","6","high nameability","59","right","trigger",""
"html-button-response","276","568769","0.0-212.0-0.0","CAN_147","147","","","","","","569","<button class=""jspsych-btn""><img src=""stimuli/red.png"" style=""width: 200px;height: 200px;""></button>","1","red","yellow","[""red"",""yellow"",""high nameability""]","right-left","[""yellow"",""red""]","6","high nameability","59","right","response","1"
"html-audio-button-response","277","568980","0.0-212.0-1.0","CAN_147","147","","","","","","null","stimuli/bleep.m4a","null","red","yellow","[""red"",""yellow"",""high nameability""]","right-left","[""yellow"",""red""]","6","high nameability","59","right","audio_feedback","1"
"html-button-response","278","569504","0.0-213.0","CAN_147","147","","","","","","null","<button class=""jspsych-btn""><img src=""stimuli/white_square.png"" style=""width: 200px;height: 200px;""></button>","null","red","yellow","[""red"",""yellow"",""high nameability""]","right-left","[""yellow"",""red""]","6","high nameability","59","right","iti",""
"html-button-response","279","570012","0.0-214.0","CAN_147","147","","","","","","487","","0","neonyellow","turquoise","[""neonyellow"",""turquoise"",""low nameability""]","left-right","[""neonyellow"",""turquoise"",""low nameability""]","6","low nameability","60","left","trigger",""
"html-button-response","280","570702","0.0-215.0-0.0","CAN_147","147","","","","","","677","<button class=""jspsych-btn""><img src=""stimuli/neonyellow.png"" style=""width: 200px;height: 200px;""></button>","0","neonyellow","turquoise","[""neonyellow"",""turquoise"",""low nameability""]","left-right","[""neonyellow"",""turquoise"",""low nameability""]","6","low nameability","60","left","response","1"
"html-audio-button-response","281","570908","0.0-215.0-1.0","CAN_147","147","","","","","","null","stimuli/bleep.m4a","null","neonyellow","turquoise","[""neonyellow"",""turquoise"",""low nameability""]","left-right","[""neonyellow"",""turquoise"",""low nameability""]","6","low nameability","60","left","audio_feedback","1"
"html-button-response","282","571434","0.0-216.0","CAN_147","147","","","","","","null","<button class=""jspsych-btn""><img src=""stimuli/white_square.png"" style=""width: 200px;height: 200px;""></button>","null","neonyellow","turquoise","[""neonyellow"",""turquoise"",""low nameability""]","left-right","[""neonyellow"",""turquoise"",""low nameability""]","6","low nameability","60","left","iti",""
