"trial_type","trial_index","time_elapsed","internal_node_id","subject_id","seed","success","timeout","failed_images","failed_audio","failed_video","rt","stimulus","response","target","foil","choices","combination_order","choices_in_order","round","condition","trial_counter","target_location","trial_kind","correct"
"pavlovia","0","21","0.0-0.0","CAN_114","114","","","","","","","","","","","","","","","","","","",""
"preload","1","833","0.0-1.0","CAN_114","114","true","false","[]","[]","[]","","","","","","","","","","","","","",""
"fullscreen","2","4641","0.0-2.0","CAN_114","114","true","","","","","","","","","","","","","","","","","",""
"html-button-response","3","34580","0.0-3.0","CAN_114","114","","","","","","29917","","0","","","","","","","","","","",""
"html-button-response","4","36601","0.0-4.0","CAN_114","114","","","","","","2002","","0","star","square","[""square"",""star""]","left-right","[""square"",""star""]","1","practice","1","right","trigger",""
"html-button-response","5","40217","0.0-5.0-0.0","CAN_114","114","","","","","","3602","<button class=""jspsych-btn""><img src=""stimuli/star.png"" style=""width: 200px;height: 200px;""></button>","1","star","square","[""square"",""star""]","left-right","[""square"",""star""]","1","practice","1","right","response","1"
"html-audio-button-response","6","40427","0.0-5.0-1.0","CAN_114","114","","","","","","null","stimuli/bleep.m4a","null","star","square","[""square"",""star""]","left-right","[""square"",""star""]","1","practice","1","right","audio_feedback","1"
"html-button-response","7","40952","0.0-6.0","CAN_114","114","","","","","","null","<button class=""jspsych-btn""><img src=""stimuli/white_square.png"" style=""width: 200px;height: 200px;""></button>","null","star","square","[""square"",""star""]","left-right","[""square"",""star""]","1","practice","1","right","iti",""
"html-button-response","8","42003","0.0-7.0","CAN_114","114","","","","","","1030","","0","triangle","pentagram","[""triangle"",""pentagram""]","left-right","[""triangle"",""pentagram""]","1","practice","1","left","trigger",""
"html-button-response","9","43204","0.0-8.0-0.0","CAN_114","114","","","","","","1193","<button class=""jspsych-btn""><img src=""stimuli/triangle.png"" style=""width: 200px;height: 200px;""></button>","0","triangle","pentagram","[""triangle"",""pentagram""]","left-right","[""triangle"",""pentagram""]","1","practice","1","left","response","1"
"html-audio-button-response","10","43412","0.0-8.0-1.0","CAN_114","114","","","","","","null","stimuli/bleep.m4a","null","triangle","pentagram","[""triangle"",""pentagram""]","left-right","[""triangle"",""pentagram""]","1","practice","1","left","audio_feedback","1"
"html-button-response","11","43932","0.0-9.0","CAN_114","114","","","","","","null","<button class=""jspsych-btn""><img src=""stimuli/white_square.png"" style=""width: 200px;height: 200px;""></button>","null","triangle","pentagram","[""triangle"",""pentagram""]","left-right","[""triangle"",""pentagram""]","1","practice","1","left","iti",""
"html-button-response","12","44562","0.0-10.0","CAN_114","114","","","","","","610","","0","diamond","rectangle","[""rectangle"",""diamond""]","left-right","[""rectangle"",""diamond""]","1","practice","1","right","trigger",""
"html-button-response","13","45574","0.0-11.0-0.0","CAN_114","114","","","","","","1005","<button class=""jspsych-btn""><img src=""stimuli/diamond.png"" style=""width: 200px;height: 200px;""></button>","1","diamond","rectangle","[""rectangle"",""diamond""]","left-right","[""rectangle"",""diamond""]","1","practice","1","right","response","1"
"html-audio-button-response","14","45781","0.0-11.0-1.0","CAN_114","114","","","","","","null","stimuli/bleep.m4a","null","diamond","rectangle","[""rectangle"",""diamond""]","left-right","[""rectangle"",""diamond""]","1","practice","1","right","audio_feedback","1"
"html-button-response","15","46298","0.0-12.0","CAN_114","114","","","","","","null","<button class=""jspsych-btn""><img src=""stimuli/white_square.png"" style=""width: 200px;height: 200px;""></button>","null","diamond","rectangle","[""rectangle"",""diamond""]","left-right","[""rectangle"",""diamond""]","1","practice","1","right","iti",""
"html-button-response","16","47009","0.0-13.0","CAN_114","114","","","","","","689","","0","pentagram","star","[""pentagram"",""star""]","left-right","[""pentagram"",""star""]","1","practice","1","left","trigger",""
"html-button-response","17","47740","0.0-14.0-0.0","CAN_114","114","","","","","","720","<button class=""jspsych-btn""><img src=""stimuli/pentagram.png"" style=""width: 200px;height: 200px;""></button>","0","pentagram","star","[""pentagram"",""star""]","left-right","[""pentagram"",""star""]","1","practice","1","left","response","1"
"html-audio-button-response","18","47949","0.0-14.0-1.0","CAN_114","114","","","","","","null","stimuli/bleep.m4a","null","pentagram","star","[""pentagram"",""star""]","left-right","[""pentagram"",""star""]","1","practice","1","left","audio_feedback","1"
"html-button-response","19","48473","0.0-15.0","CAN_114","114","","","","","","null","<button class=""jspsych-btn""><img src=""stimuli/white_square.png"" style=""width: 200px;height: 200px;""></button>","null","pentagram","star","[""pentagram"",""star""]","left-right","[""pentagram"",""star""]","1","practice","1","left","iti",""
"html-button-response","20","56888","0.0-16.0","CAN_114","114","","","","","","8404","","0","","","","","","","","","","",""
"html-button-response","21","57773","0.0-17.0","CAN_114","114","","","","","","873","","0","pink","darkgreenblue","[""pink"",""darkgreenblue"",""low nameability""]","right-left","[""darkgreenblue"",""pink""]","1","low nameability","1","right","trigger",""
"html-button-response","22","58462","0.0-18.0-0.0","CAN_114","114","","","","","","674","<button class=""jspsych-btn""><img src=""stimuli/pink.png"" style=""width: 200px;height: 200px;""></button>","1","pink","darkgreenblue","[""pink"",""darkgreenblue"",""low nameability""]","right-left","[""darkgreenblue"",""pink""]","1","low nameability","1","right","response","1"
"html-audio-button-response","23","58668","0.0-18.0-1.0","CAN_114","114","","","","","","null","stimuli/bleep.m4a","null","pink","darkgreenblue","[""pink"",""darkgreenblue"",""low nameability""]","right-left","[""darkgreenblue"",""pink""]","1","low nameability","1","right","audio_feedback","1"
"html-button-response","24","59185","0.0-19.0","CAN_114","114","","","","","","null","<button class=""jspsych-btn""><img src=""stimuli/white_square.png"" style=""width: 200px;height: 200px;""></button>","null","pink","darkgreenblue","[""pink"",""darkgreenblue"",""low nameability""]","right-left","[""darkgreenblue"",""pink""]","1","low nameability","1","right","iti",""
"html-button-response","25","59848","0.0-20.0","CAN_114","114","","","","","","644","","0","neonyellow","darkgreenblue","[""neonyellow"",""darkgreenblue"",""low nameability""]","left-right","[""neonyellow"",""darkgreenblue"",""low nameability""]","1","low nameability","2","left","trigger",""
"html-button-response","26","60401","0.0-21.0-0.0","CAN_114","114","","","","","","543","<button class=""jspsych-btn""><img src=""stimuli/neonyellow.png"" style=""width: 200px;height: 200px;""></button>","0","neonyellow","darkgreenblue","[""neonyellow"",""darkgreenblue"",""low nameability""]","left-right","[""neonyellow"",""darkgreenblue"",""low nameability""]","1","low nameability","2","left","response","1"
"html-audio-button-response","27","60604","0.0-21.0-1.0","CAN_114","114","","","","","","null","stimuli/bleep.m4a","null","neonyellow","darkgreenblue","[""neonyellow"",""darkgreenblue"",""low nameability""]","left-right","[""neonyellow"",""darkgreenblue"",""low nameability""]","1","low nameability","2","left","audio_feedback","1"
"html-button-response","28","61130","0.0-22.0","CAN_114","114","","","","","","null","<button class=""jspsych-btn""><img src=""stimuli/white_square.png"" style=""width: 200px;height: 200px;""></button>","null","neonyellow","darkgreenblue","[""neonyellow"",""darkgreenblue"",""low nameability""]","left-right","[""neonyellow"",""darkgreenblue"",""low nameability""]","1","low nameability","2","left","iti",""
"html-button-response","29","61618","0.0-23.0","CAN_114","114","","","","","","463","","0","turquoise","darkgreenblue","[""turquoise"",""darkgreenblue"",""low nameability""]","left-right","[""turquoise"",""darkgreenblue"",""low nameability""]","1","low nameability","3","left","trigger",""
"html-button-response","30","62192","0.0-24.0-0.0","CAN_114","114","","","","","","566","<button class=""jspsych-btn""><img src=""stimuli/turquoise.png"" style=""width: 200px;height: 200px;""></button>","0","turquoise","darkgreenblue","[""turquoise"",""darkgreenblue"",""low nameability""]","left-right","[""turquoise"",""darkgreenblue"",""low nameability""]","1","low nameability","3","left","response","1"
"html-audio-button-response","31","62397","0.0-24.0-1.0","CAN_114","114","","","","","","null","stimuli/bleep.m4a","null","turquoise","darkgreenblue","[""turquoise"",""darkgreenblue"",""low nameability""]","left-right","[""turquoise"",""darkgreenblue"",""low nameability""]","1","low nameability","3","left","audio_feedback","1"
"html-button-response","32","62927","0.0-25.0","CAN_114","114","","","","","","null","<button class=""jspsych-btn""><img src=""stimuli/white_square.png"" style=""width: 200px;height: 200px;""></button>","null","turquoise","darkgreenblue","[""turquoise"",""darkgreenblue"",""low nameability""]","left-right","[""turquoise"",""darkgreenblue"",""low nameability""]","1","low nameability","3","left","iti",""
"html-button-response","33","63362","0.0-26.0","CAN_114","114","","","","","","417","","0","pink","turquoise","[""pink"",""turquoise"",""low nameability""]","right-left","[""turquoise"",""pink""]","1","low nameability","4","right","trigger",""
"html-button-response","34","63878","0.0-27.0-0.0","CAN_114","114","","","","","","507","<button class=""jspsych-btn""><img src=""stimuli/pink.png"" style=""width: 200px;height: 200px;""></button>","1","pink","turquoise","[""pink"",""turquoise"",""low nameability""]","right-left","[""turquoise"",""pink""]","1","low nameability","4","right","response","1"
"html-audio-button-response","35","64085","0.0-27.0-1.0","CAN_114","114","","","","","","null","stimuli/bleep.m4a","null","pink","turquoise","[""pink"",""turquoise"",""low nameability""]","right-left","[""turquoise"",""pink""]","1","low nameability","4","right","audio_feedback","1"
"html-button-response","36","64610","0.0-28.0","CAN_114","114","","","","","","null","<button class=""jspsych-btn""><img src=""stimuli/white_square.png"" style=""width: 200px;height: 200px;""></button>","null","pink","turquoise","[""pink"",""turquoise"",""low nameability""]","right-left","[""turquoise"",""pink""]","1","low nameability","4","right","iti",""
"html-button-response","37","65730","0.0-29.0","CAN_114","114","","","","","","1099","","0","yellow","orange","[""yellow"",""orange"",""high nameability""]","left-right","[""yellow"",""orange"",""high nameability""]","1","high nameability","5","left","trigger",""
"html-button-response","38","66287","0.0-30.0-0.0","CAN_114","114","","","","","","549","<button class=""jspsych-btn""><img src=""stimuli/yellow.png"" style=""width: 200px;height: 200px;""></button>","0","yellow","orange","[""yellow"",""orange"",""high nameability""]","left-right","[""yellow"",""orange"",""high nameability""]","1","high nameability","5","left","response","1"
"html-audio-button-response","39","66493","0.0-30.0-1.0","CAN_114","114","","","","","","null","stimuli/bleep.m4a","null","yellow","orange","[""yellow"",""orange"",""high nameability""]","left-right","[""yellow"",""orange"",""high nameability""]","1","high nameability","5","left","audio_feedback","1"
"html-button-response","40","67008","0.0-31.0","CAN_114","114","","","","","","null","<button class=""jspsych-btn""><img src=""stimuli/white_square.png"" style=""width: 200px;height: 200px;""></button>","null","yellow","orange","[""yellow"",""orange"",""high nameability""]","left-right","[""yellow"",""orange"",""high nameability""]","1","high nameability","5","left","iti",""
"html-button-response","41","67521","0.0-32.0","CAN_114","114","","","","","","495","","0","blue","purple","[""blue"",""purple"",""high nameability""]","left-right","[""blue"",""purple"",""high nameability""]","1","high nameability","6","left","trigger",""
"html-button-response","42","68141","0.0-33.0-0.0","CAN_114","114","","","","","","613","<button class=""jspsych-btn""><img src=""stimuli/blue.png"" style=""width: 200px;height: 200px;""></button>","0","blue","purple","[""blue"",""purple"",""high nameability""]","left-right","[""blue"",""purple"",""high nameability""]","1","high nameability","6","left","response","1"
"html-audio-button-response","43","68345","0.0-33.0-1.0","CAN_114","114","","","","","","null","stimuli/bleep.m4a","null","blue","purple","[""blue"",""purple"",""high nameability""]","left-right","[""blue"",""purple"",""high nameability""]","1","high nameability","6","left","audio_feedback","1"
"html-button-response","44","68864","0.0-34.0","CAN_114","114","","","","","","null","<button class=""jspsych-btn""><img src=""stimuli/white_square.png"" style=""width: 200px;height: 200px;""></button>","null","blue","purple","[""blue"",""purple"",""high nameability""]","left-right","[""blue"",""purple"",""high nameability""]","1","high nameability","6","left","iti",""
"html-button-response","45","69353","0.0-35.0","CAN_114","114","","","","","","473","","0","neonyellow","pink","[""neonyellow"",""pink"",""low nameability""]","left-right","[""neonyellow"",""pink"",""low nameability""]","1","low nameability","7","left","trigger",""
"html-button-response","46","69933","0.0-36.0-0.0","CAN_114","114","","","","","","572","<button class=""jspsych-btn""><img src=""stimuli/neonyellow.png"" style=""width: 200px;height: 200px;""></button>","0","neonyellow","pink","[""neonyellow"",""pink"",""low nameability""]","left-right","[""neonyellow"",""pink"",""low nameability""]","1","low nameability","7","left","response","1"
"html-audio-button-response","47","70151","0.0-36.0-1.0","CAN_114","114","","","","","","null","stimuli/bleep.m4a","null","neonyellow","pink","[""neonyellow"",""pink"",""low nameability""]","left-right","[""neonyellow"",""pink"",""low nameability""]","1","low nameability","7","left","audio_feedback","1"
"html-button-response","48","70673","0.0-37.0","CAN_114","114","","","","","","null","<button class=""jspsych-btn""><img src=""stimuli/white_square.png"" style=""width: 200px;height: 200px;""></button>","null","neonyellow","pink","[""neonyellow"",""pink"",""low nameability""]","left-right","[""neonyellow"",""pink"",""low nameability""]","1","low nameability","7","left","iti",""
"html-button-response","49","71143","0.0-38.0","CAN_114","114","","","","","","455","","0","blue","brown","[""blue"",""brown"",""high nameability""]","right-left","[""brown"",""blue""]","1","high nameability","8","right","trigger",""
"html-button-response","50","71652","0.0-39.0-0.0","CAN_114","114","","","","","","500","<button class=""jspsych-btn""><img src=""stimuli/blue.png"" style=""width: 200px;height: 200px;""></button>","1","blue","brown","[""blue"",""brown"",""high nameability""]","right-left","[""brown"",""blue""]","1","high nameability","8","right","response","1"
"html-audio-button-response","51","71856","0.0-39.0-1.0","CAN_114","114","","","","","","null","stimuli/bleep.m4a","null","blue","brown","[""blue"",""brown"",""high nameability""]","right-left","[""brown"",""blue""]","1","high nameability","8","right","audio_feedback","1"
"html-button-response","52","72376","0.0-40.0","CAN_114","114","","","","","","null","<button class=""jspsych-btn""><img src=""stimuli/white_square.png"" style=""width: 200px;height: 200px;""></button>","null","blue","brown","[""blue"",""brown"",""high nameability""]","right-left","[""brown"",""blue""]","1","high nameability","8","right","iti",""
"html-button-response","53","72841","0.0-41.0","CAN_114","114","","","","","","447","","0","neonyellow","turquoise","[""neonyellow"",""turquoise"",""low nameability""]","left-right","[""neonyellow"",""turquoise"",""low nameability""]","1","low nameability","9","left","trigger",""
"html-button-response","54","73397","0.0-42.0-0.0","CAN_114","114","","","","","","547","<button class=""jspsych-btn""><img src=""stimuli/neonyellow.png"" style=""width: 200px;height: 200px;""></button>","0","neonyellow","turquoise","[""neonyellow"",""turquoise"",""low nameability""]","left-right","[""neonyellow"",""turquoise"",""low nameability""]","1","low nameability","9","left","response","1"
"html-audio-button-response","55","73599","0.0-42.0-1.0","CAN_114","114","","","","","","null","stimuli/bleep.m4a","null","neonyellow","turquoise","[""neonyellow"",""turquoise"",""low nameability""]","left-right","[""neonyellow"",""turquoise"",""low nameability""]","1","low nameability","9","left","audio_feedback","1"
"html-button-response","56","74116","0.0-43.0","CAN_114","114","","","","","","null","<button class=""jspsych-btn""><img src=""stimuli/white_square.png"" style=""width: 200px;height: 200px;""></button>","null","neonyellow","turquoise","[""neonyellow"",""turquoise"",""low nameability""]","left-right","[""neonyellow"",""turquoise"",""low nameability""]","1","low nameability","9","left","iti",""
"html-button-response","57","74548","0.0-44.0","CAN_114","114","","","","","","415","","0","orange","purple","[""orange"",""purple"",""high nameability""]","right-left","[""purple"",""orange""]","1","high nameability","10","right","trigger",""
"html-button-response","58","75104","0.0-45.0-0.0","CAN_114","114","","","","","","549","<button class=""jspsych-btn""><img src=""stimuli/orange.png"" style=""width: 200px;height: 200px;""></button>","1","orange","purple","[""orange"",""purple"",""high nameability""]","right-left","[""purple"",""orange""]","1","high nameability","10","right","response","1"
"html-audio-button-response","59","75313","0.0-45.0-1.0","CAN_114","114","","","","","","null","stimuli/bleep.m4a","null","orange","purple","[""orange"",""purple"",""high nameability""]","right-left","[""purple"",""orange""]","1","high nameability","10","right","audio_feedback","1"
"html-button-response","60","75828","0.0-46.0","CAN_114","114","","","","","","null","<button class=""jspsych-btn""><img src=""stimuli/white_square.png"" style=""width: 200px;height: 200px;""></button>","null","orange","purple","[""orange"",""purple"",""high nameability""]","right-left","[""purple"",""orange""]","1","high nameability","10","right","iti",""
"pavlovia","61","75936","0.0-47.0","CAN_114","114","","","","","","","","","","","","","","","","","","",""
"pavlovia","62","75947","0.0-48.0","CAN_114","114","","","","","","","","","","","","","","","","","","",""
"html-audio-button-response","63","77757","0.0-49.0","CAN_114","114","","","","","","1923","stimuli/tada.m4a","0","","","","","","","","","","",""
"html-button-response","64","78513","0.0-50.0","CAN_114","114","","","","","","749","","0","","","","","","","","","","",""
"html-button-response","65","79356","0.0-51.0","CAN_114","114","","","","","","836","","0","yellow","blue","[""yellow"",""blue"",""high nameability""]","right-left","[""blue"",""yellow""]","2","high nameability","11","right","trigger",""
"html-button-response","66","79849","0.0-52.0-0.0","CAN_114","114","","","","","","484","<button class=""jspsych-btn""><img src=""stimuli/yellow.png"" style=""width: 200px;height: 200px;""></button>","1","yellow","blue","[""yellow"",""blue"",""high nameability""]","right-left","[""blue"",""yellow""]","2","high nameability","11","right","response","1"
"html-audio-button-response","67","80053","0.0-52.0-1.0","CAN_114","114","","","","","","null","stimuli/bleep.m4a","null","yellow","blue","[""yellow"",""blue"",""high nameability""]","right-left","[""blue"",""yellow""]","2","high nameability","11","right","audio_feedback","1"
"html-button-response","68","80571","0.0-53.0","CAN_114","114","","","","","","null","<button class=""jspsych-btn""><img src=""stimuli/white_square.png"" style=""width: 200px;height: 200px;""></button>","null","yellow","blue","[""yellow"",""blue"",""high nameability""]","right-left","[""blue"",""yellow""]","2","high nameability","11","right","iti",""
"html-button-response","69","81029","0.0-54.0","CAN_114","114","","","","","","440","","0","brown","blue","[""brown"",""blue"",""high nameability""]","right-left","[""blue"",""brown""]","2","high nameability","12","right","trigger",""
"html-button-response","70","81681","0.0-55.0-0.0","CAN_114","114","","","","","","642","<button class=""jspsych-btn""><img src=""stimuli/brown.png"" style=""width: 200px;height: 200px;""></button>","1","brown","blue","[""brown"",""blue"",""high nameability""]","right-left","[""blue"",""brown""]","2","high nameability","12","right","response","1"
"html-audio-button-response","71","81884","0.0-55.0-1.0","CAN_114","114","","","","","","null","stimuli/bleep.m4a","null","brown","blue","[""brown"",""blue"",""high nameability""]","right-left","[""blue"",""brown""]","2","high nameability","12","right","audio_feedback","1"
"html-button-response","72","82400","0.0-56.0","CAN_114","114","","","","","","null","<button class=""jspsych-btn""><img src=""stimuli/white_square.png"" style=""width: 200px;height: 200px;""></button>","null","brown","blue","[""brown"",""blue"",""high nameability""]","right-left","[""blue"",""brown""]","2","high nameability","12","right","iti",""
"html-button-response","73","82812","0.0-57.0","CAN_114","114","","","","","","391","","0","red","brown","[""red"",""brown"",""high nameability""]","right-left","[""brown"",""red""]","2","high nameability","13","right","trigger",""
"html-button-response","74","83305","0.0-58.0-0.0","CAN_114","114","","","","","","487","<button class=""jspsych-btn""><img src=""stimuli/red.png"" style=""width: 200px;height: 200px;""></button>","1","red","brown","[""red"",""brown"",""high nameability""]","right-left","[""brown"",""red""]","2","high nameability","13","right","response","1"
"html-audio-button-response","75","83513","0.0-58.0-1.0","CAN_114","114","","","","","","null","stimuli/bleep.m4a","null","red","brown","[""red"",""brown"",""high nameability""]","right-left","[""brown"",""red""]","2","high nameability","13","right","audio_feedback","1"
"html-button-response","76","84028","0.0-59.0","CAN_114","114","","","","","","null","<button class=""jspsych-btn""><img src=""stimuli/white_square.png"" style=""width: 200px;height: 200px;""></button>","null","red","brown","[""red"",""brown"",""high nameability""]","right-left","[""brown"",""red""]","2","high nameability","13","right","iti",""
"html-button-response","77","84415","0.0-60.0","CAN_114","114","","","","","","370","","0","darkgreenblue","pink","[""darkgreenblue"",""pink"",""low nameability""]","right-left","[""pink"",""darkgreenblue""]","2","low nameability","14","right","trigger",""
"html-button-response","78","85017","0.0-61.0-0.0","CAN_114","114","","","","","","594","<button class=""jspsych-btn""><img src=""stimuli/darkgreenblue.png"" style=""width: 200px;height: 200px;""></button>","1","darkgreenblue","pink","[""darkgreenblue"",""pink"",""low nameability""]","right-left","[""pink"",""darkgreenblue""]","2","low nameability","14","right","response","1"
"html-audio-button-response","79","85221","0.0-61.0-1.0","CAN_114","114","","","","","","null","stimuli/bleep.m4a","null","darkgreenblue","pink","[""darkgreenblue"",""pink"",""low nameability""]","right-left","[""pink"",""darkgreenblue""]","2","low nameability","14","right","audio_feedback","1"
"html-button-response","80","85740","0.0-62.0","CAN_114","114","","","","","","null","<button class=""jspsych-btn""><img src=""stimuli/white_square.png"" style=""width: 200px;height: 200px;""></button>","null","darkgreenblue","pink","[""darkgreenblue"",""pink"",""low nameability""]","right-left","[""pink"",""darkgreenblue""]","2","low nameability","14","right","iti",""
"html-button-response","81","86146","0.0-63.0","CAN_114","114","","","","","","387","","0","brown","red","[""brown"",""red"",""high nameability""]","right-left","[""red"",""brown""]","2","high nameability","15","right","trigger",""
"html-button-response","82","86668","0.0-64.0-0.0","CAN_114","114","","","","","","515","<button class=""jspsych-btn""><img src=""stimuli/brown.png"" style=""width: 200px;height: 200px;""></button>","1","brown","red","[""brown"",""red"",""high nameability""]","right-left","[""red"",""brown""]","2","high nameability","15","right","response","1"
"html-audio-button-response","83","86873","0.0-64.0-1.0","CAN_114","114","","","","","","null","stimuli/bleep.m4a","null","brown","red","[""brown"",""red"",""high nameability""]","right-left","[""red"",""brown""]","2","high nameability","15","right","audio_feedback","1"
"html-button-response","84","87393","0.0-65.0","CAN_114","114","","","","","","null","<button class=""jspsych-btn""><img src=""stimuli/white_square.png"" style=""width: 200px;height: 200px;""></button>","null","brown","red","[""brown"",""red"",""high nameability""]","right-left","[""red"",""brown""]","2","high nameability","15","right","iti",""
"html-button-response","85","87720","0.0-66.0","CAN_114","114","","","","","","310","","0","darkgreenblue","mustard","[""darkgreenblue"",""mustard"",""low nameability""]","right-left","[""mustard"",""darkgreenblue""]","2","low nameability","16","right","trigger",""
"html-button-response","86","88235","0.0-67.0-0.0","CAN_114","114","","","","","","507","<button class=""jspsych-btn""><img src=""stimuli/darkgreenblue.png"" style=""width: 200px;height: 200px;""></button>","0","darkgreenblue","mustard","[""darkgreenblue"",""mustard"",""low nameability""]","right-left","[""mustard"",""darkgreenblue""]","2","low nameability","16","right","response","0"
"html-audio-button-response","87","88869","0.0-67.0-1.0","CAN_114","114","","","","","","null","stimuli/boing.m4a","null","darkgreenblue","mustard","[""darkgreenblue"",""mustard"",""low nameability""]","right-left","[""mustard"",""darkgreenblue""]","2","low nameability","16","right","audio_feedback","0"
"html-button-response","88","90123","0.0-67.1-0.1","CAN_114","114","","","","","","1237","<button class=""jspsych-btn""><img src=""stimuli/darkgreenblue.png"" style=""width: 200px;height: 200px;""></button>","1","darkgreenblue","mustard","[""darkgreenblue"",""mustard"",""low nameability""]","right-left","[""mustard"",""darkgreenblue""]","2","low nameability","16","right","response","1"
"html-audio-button-response","89","90329","0.0-67.1-1.1","CAN_114","114","","","","","","null","stimuli/bleep.m4a","null","darkgreenblue","mustard","[""darkgreenblue"",""mustard"",""low nameability""]","right-left","[""mustard"",""darkgreenblue""]","2","low nameability","16","right","audio_feedback","1"
"html-button-response","90","90853","0.0-68.0","CAN_114","114","","","","","","null","<button class=""jspsych-btn""><img src=""stimuli/white_square.png"" style=""width: 200px;height: 200px;""></button>","null","darkgreenblue","mustard","[""darkgreenblue"",""mustard"",""low nameability""]","right-left","[""mustard"",""darkgreenblue""]","2","low nameability","16","right","iti",""
"html-button-response","91","91272","0.0-69.0","CAN_114","114","","","","","","397","","0","turquoise","mustard","[""turquoise"",""mustard"",""low nameability""]","left-right","[""turquoise"",""mustard"",""low nameability""]","2","low nameability","17","left","trigger",""
"html-button-response","92","91931","0.0-70.0-0.0","CAN_114","114","","","","","","649","<button class=""jspsych-btn""><img src=""stimuli/turquoise.png"" style=""width: 200px;height: 200px;""></button>","0","turquoise","mustard","[""turquoise"",""mustard"",""low nameability""]","left-right","[""turquoise"",""mustard"",""low nameability""]","2","low nameability","17","left","response","1"
"html-audio-button-response","93","92137","0.0-70.0-1.0","CAN_114","114","","","","","","null","stimuli/bleep.m4a","null","turquoise","mustard","[""turquoise"",""mustard"",""low nameability""]","left-right","[""turquoise"",""mustard"",""low nameability""]","2","low nameability","17","left","audio_feedback","1"
"html-button-response","94","92657","0.0-71.0","CAN_114","114","","","","","","null","<button class=""jspsych-btn""><img src=""stimuli/white_square.png"" style=""width: 200px;height: 200px;""></button>","null","turquoise","mustard","[""turquoise"",""mustard"",""low nameability""]","left-right","[""turquoise"",""mustard"",""low nameability""]","2","low nameability","17","left","iti",""
"html-button-response","95","93159","0.0-72.0","CAN_114","114","","","","","","486","","0","purple","blue","[""purple"",""blue"",""high nameability""]","left-right","[""purple"",""blue"",""high nameability""]","2","high nameability","18","left","trigger",""
"html-button-response","96","93925","0.0-73.0-0.0","CAN_114","114","","","","","","760","<button class=""jspsych-btn""><img src=""stimuli/purple.png"" style=""width: 200px;height: 200px;""></button>","0","purple","blue","[""purple"",""blue"",""high nameability""]","left-right","[""purple"",""blue"",""high nameability""]","2","high nameability","18","left","response","1"
"html-audio-button-response","97","94132","0.0-73.0-1.0","CAN_114","114","","","","","","null","stimuli/bleep.m4a","null","purple","blue","[""purple"",""blue"",""high nameability""]","left-right","[""purple"",""blue"",""high nameability""]","2","high nameability","18","left","audio_feedback","1"
"html-button-response","98","94652","0.0-74.0","CAN_114","114","","","","","","null","<button class=""jspsych-btn""><img src=""stimuli/white_square.png"" style=""width: 200px;height: 200px;""></button>","null","purple","blue","[""purple"",""blue"",""high nameability""]","left-right","[""purple"",""blue"",""high nameability""]","2","high nameability","18","left","iti",""
"html-button-response","99","95117","0.0-75.0","CAN_114","114","","","","","","448","","0","brown","purple","[""brown"",""purple"",""high nameability""]","right-left","[""purple"",""brown""]","2","high nameability","19","right","trigger",""
"html-button-response","100","95728","0.0-76.0-0.0","CAN_114","114","","","","","","603","<button class=""jspsych-btn""><img src=""stimuli/brown.png"" style=""width: 200px;height: 200px;""></button>","1","brown","purple","[""brown"",""purple"",""high nameability""]","right-left","[""purple"",""brown""]","2","high nameability","19","right","response","1"
"html-audio-button-response","101","95932","0.0-76.0-1.0","CAN_114","114","","","","","","null","stimuli/bleep.m4a","null","brown","purple","[""brown"",""purple"",""high nameability""]","right-left","[""purple"",""brown""]","2","high nameability","19","right","audio_feedback","1"
"html-button-response","102","96449","0.0-77.0","CAN_114","114","","","","","","null","<button class=""jspsych-btn""><img src=""stimuli/white_square.png"" style=""width: 200px;height: 200px;""></button>","null","brown","purple","[""brown"",""purple"",""high nameability""]","right-left","[""purple"",""brown""]","2","high nameability","19","right","iti",""
"html-button-response","103","96911","0.0-78.0","CAN_114","114","","","","","","444","","0","mustard","lightred","[""mustard"",""lightred"",""low nameability""]","left-right","[""mustard"",""lightred"",""low nameability""]","2","low nameability","20","left","trigger",""
"html-button-response","104","97527","0.0-79.0-0.0","CAN_114","114","","","","","","607","<button class=""jspsych-btn""><img src=""stimuli/mustard.png"" style=""width: 200px;height: 200px;""></button>","0","mustard","lightred","[""mustard"",""lightred"",""low nameability""]","left-right","[""mustard"",""lightred"",""low nameability""]","2","low nameability","20","left","response","1"
"html-audio-button-response","105","97733","0.0-79.0-1.0","CAN_114","114","","","","","","null","stimuli/bleep.m4a","null","mustard","lightred","[""mustard"",""lightred"",""low nameability""]","left-right","[""mustard"",""lightred"",""low nameability""]","2","low nameability","20","left","audio_feedback","1"
"html-button-response","106","98253","0.0-80.0","CAN_114","114","","","","","","null","<button class=""jspsych-btn""><img src=""stimuli/white_square.png"" style=""width: 200px;height: 200px;""></button>","null","mustard","lightred","[""mustard"",""lightred"",""low nameability""]","left-right","[""mustard"",""lightred"",""low nameability""]","2","low nameability","20","left","iti",""
"pavlovia","107","98316","0.0-81.0","CAN_114","114","","","","","","","","","","","","","","","","","","",""
"pavlovia","108","98325","0.0-82.0","CAN_114","114","","","","","","","","","","","","","","","","","","",""
"html-audio-button-response","109","99764","0.0-83.0","CAN_114","114","","","","","","1512","stimuli/tada.m4a","0","","","","","","","","","","",""
"html-button-response","110","100752","0.0-84.0","CAN_114","114","","","","","","981","","0","","","","","","","","","","",""
"html-button-response","111","101690","0.0-85.0","CAN_114","114","","","","","","929","","0","red","orange","[""red"",""orange"",""high nameability""]","left-right","[""red"",""orange"",""high nameability""]","3","high nameability","21","left","trigger",""
"html-button-response","112","102327","0.0-86.0-0.0","CAN_114","114","","","","","","629","<button class=""jspsych-btn""><img src=""stimuli/red.png"" style=""width: 200px;height: 200px;""></button>","0","red","orange","[""red"",""orange"",""high nameability""]","left-right","[""red"",""orange"",""high nameability""]","3","high nameability","21","left","response","1"
"html-audio-button-response","113","102532","0.0-86.0-1.0","CAN_114","114","","","","","","null","stimuli/bleep.m4a","null","red","orange","[""red"",""orange"",""high nameability""]","left-right","[""red"",""orange"",""high nameability""]","3","high nameability","21","left","audio_feedback","1"
"html-button-response","114","103049","0.0-87.0","CAN_114","114","","","","","","null","<button class=""jspsych-btn""><img src=""stimuli/white_square.png"" style=""width: 200px;height: 200px;""></button>","null","red","orange","[""red"",""orange"",""high nameability""]","left-right","[""red"",""orange"",""high nameability""]","3","high nameability","21","left","iti",""
"html-button-response","115","103471","0.0-88.0","CAN_114","114","","","","","","403","","0","brown","yellow","[""brown"",""yellow"",""high nameability""]","right-left","[""yellow"",""brown""]","3","high nameability","22","right","trigger",""
"html-button-response","116","104016","0.0-89.0-0.0","CAN_114","114","","","","","","536","<button class=""jspsych-btn""><img src=""stimuli/brown.png"" style=""width: 200px;height: 200px;""></button>","1","brown","yellow","[""brown"",""yellow"",""high nameability""]","right-left","[""yellow"",""brown""]","3","high nameability","22","right","response","1"
"html-audio-button-response","117","104220","0.0-89.0-1.0","CAN_114","114","","","","","","null","stimuli/bleep.m4a","null","brown","yellow","[""brown"",""yellow"",""high nameability""]","right-left","[""yellow"",""brown""]","3","high nameability","22","right","audio_feedback","1"
"html-button-response","118","104736","0.0-90.0","CAN_114","114","","","","","","null","<button class=""jspsych-btn""><img src=""stimuli/white_square.png"" style=""width: 200px;height: 200px;""></button>","null","brown","yellow","[""brown"",""yellow"",""high nameability""]","right-left","[""yellow"",""brown""]","3","high nameability","22","right","iti",""
"html-button-response","119","105181","0.0-91.0","CAN_114","114","","","","","","426","","0","yellow","purple","[""yellow"",""purple"",""high nameability""]","left-right","[""yellow"",""purple"",""high nameability""]","3","high nameability","23","left","trigger",""
"html-button-response","120","105725","0.0-92.0-0.0","CAN_114","114","","","","","","535","<button class=""jspsych-btn""><img src=""stimuli/yellow.png"" style=""width: 200px;height: 200px;""></button>","0","yellow","purple","[""yellow"",""purple"",""high nameability""]","left-right","[""yellow"",""purple"",""high nameability""]","3","high nameability","23","left","response","1"
"html-audio-button-response","121","105933","0.0-92.0-1.0","CAN_114","114","","","","","","null","stimuli/bleep.m4a","null","yellow","purple","[""yellow"",""purple"",""high nameability""]","left-right","[""yellow"",""purple"",""high nameability""]","3","high nameability","23","left","audio_feedback","1"
"html-button-response","122","106450","0.0-93.0","CAN_114","114","","","","","","null","<button class=""jspsych-btn""><img src=""stimuli/white_square.png"" style=""width: 200px;height: 200px;""></button>","null","yellow","purple","[""yellow"",""purple"",""high nameability""]","left-right","[""yellow"",""purple"",""high nameability""]","3","high nameability","23","left","iti",""
"html-button-response","123","106927","0.0-94.0","CAN_114","114","","","","","","457","","0","red","purple","[""red"",""purple"",""high nameability""]","right-left","[""purple"",""red""]","3","high nameability","24","right","trigger",""
"html-button-response","124","107434","0.0-95.0-0.0","CAN_114","114","","","","","","497","<button class=""jspsych-btn""><img src=""stimuli/red.png"" style=""width: 200px;height: 200px;""></button>","1","red","purple","[""red"",""purple"",""high nameability""]","right-left","[""purple"",""red""]","3","high nameability","24","right","response","1"
"html-audio-button-response","125","107639","0.0-95.0-1.0","CAN_114","114","","","","","","null","stimuli/bleep.m4a","null","red","purple","[""red"",""purple"",""high nameability""]","right-left","[""purple"",""red""]","3","high nameability","24","right","audio_feedback","1"
"html-button-response","126","108154","0.0-96.0","CAN_114","114","","","","","","null","<button class=""jspsych-btn""><img src=""stimuli/white_square.png"" style=""width: 200px;height: 200px;""></button>","null","red","purple","[""red"",""purple"",""high nameability""]","right-left","[""purple"",""red""]","3","high nameability","24","right","iti",""
"html-button-response","127","108588","0.0-97.0","CAN_114","114","","","","","","412","","0","blue","yellow","[""blue"",""yellow"",""high nameability""]","left-right","[""blue"",""yellow"",""high nameability""]","3","high nameability","25","left","trigger",""
"html-button-response","128","109145","0.0-98.0-0.0","CAN_114","114","","","","","","546","<button class=""jspsych-btn""><img src=""stimuli/blue.png"" style=""width: 200px;height: 200px;""></button>","0","blue","yellow","[""blue"",""yellow"",""high nameability""]","left-right","[""blue"",""yellow"",""high nameability""]","3","high nameability","25","left","response","1"
"html-audio-button-response","129","109350","0.0-98.0-1.0","CAN_114","114","","","","","","null","stimuli/bleep.m4a","null","blue","yellow","[""blue"",""yellow"",""high nameability""]","left-right","[""blue"",""yellow"",""high nameability""]","3","high nameability","25","left","audio_feedback","1"
"html-button-response","130","109873","0.0-99.0","CAN_114","114","","","","","","null","<button class=""jspsych-btn""><img src=""stimuli/white_square.png"" style=""width: 200px;height: 200px;""></button>","null","blue","yellow","[""blue"",""yellow"",""high nameability""]","left-right","[""blue"",""yellow"",""high nameability""]","3","high nameability","25","left","iti",""
"html-button-response","131","110355","0.0-100.0","CAN_114","114","","","","","","461","","0","lightred","neonyellow","[""lightred"",""neonyellow"",""low nameability""]","left-right","[""lightred"",""neonyellow"",""low nameability""]","3","low nameability","26","left","trigger",""
"html-button-response","132","110948","0.0-101.0-0.0","CAN_114","114","","","","","","586","<button class=""jspsych-btn""><img src=""stimuli/lightred.png"" style=""width: 200px;height: 200px;""></button>","0","lightred","neonyellow","[""lightred"",""neonyellow"",""low nameability""]","left-right","[""lightred"",""neonyellow"",""low nameability""]","3","low nameability","26","left","response","1"
"html-audio-button-response","133","111153","0.0-101.0-1.0","CAN_114","114","","","","","","null","stimuli/bleep.m4a","null","lightred","neonyellow","[""lightred"",""neonyellow"",""low nameability""]","left-right","[""lightred"",""neonyellow"",""low nameability""]","3","low nameability","26","left","audio_feedback","1"
"html-button-response","134","111668","0.0-102.0","CAN_114","114","","","","","","null","<button class=""jspsych-btn""><img src=""stimuli/white_square.png"" style=""width: 200px;height: 200px;""></button>","null","lightred","neonyellow","[""lightred"",""neonyellow"",""low nameability""]","left-right","[""lightred"",""neonyellow"",""low nameability""]","3","low nameability","26","left","iti",""
"html-button-response","135","112089","0.0-103.0","CAN_114","114","","","","","","405","","0","brown","orange","[""brown"",""orange"",""high nameability""]","right-left","[""orange"",""brown""]","3","high nameability","27","right","trigger",""
"html-button-response","136","112668","0.0-104.0-0.0","CAN_114","114","","","","","","570","<button class=""jspsych-btn""><img src=""stimuli/brown.png"" style=""width: 200px;height: 200px;""></button>","1","brown","orange","[""brown"",""orange"",""high nameability""]","right-left","[""orange"",""brown""]","3","high nameability","27","right","response","1"
"html-audio-button-response","137","112875","0.0-104.0-1.0","CAN_114","114","","","","","","null","stimuli/bleep.m4a","null","brown","orange","[""brown"",""orange"",""high nameability""]","right-left","[""orange"",""brown""]","3","high nameability","27","right","audio_feedback","1"
"html-button-response","138","113393","0.0-105.0","CAN_114","114","","","","","","null","<button class=""jspsych-btn""><img src=""stimuli/white_square.png"" style=""width: 200px;height: 200px;""></button>","null","brown","orange","[""brown"",""orange"",""high nameability""]","right-left","[""orange"",""brown""]","3","high nameability","27","right","iti",""
"html-button-response","139","113839","0.0-106.0","CAN_114","114","","","","","","427","","0","darkgreenblue","turquoise","[""darkgreenblue"",""turquoise"",""low nameability""]","right-left","[""turquoise"",""darkgreenblue""]","3","low nameability","28","right","trigger",""
"html-button-response","140","114376","0.0-107.0-0.0","CAN_114","114","","","","","","530","<button class=""jspsych-btn""><img src=""stimuli/darkgreenblue.png"" style=""width: 200px;height: 200px;""></button>","1","darkgreenblue","turquoise","[""darkgreenblue"",""turquoise"",""low nameability""]","right-left","[""turquoise"",""darkgreenblue""]","3","low nameability","28","right","response","1"
"html-audio-button-response","141","114576","0.0-107.0-1.0","CAN_114","114","","","","","","null","stimuli/bleep.m4a","null","darkgreenblue","turquoise","[""darkgreenblue"",""turquoise"",""low nameability""]","right-left","[""turquoise"",""darkgreenblue""]","3","low nameability","28","right","audio_feedback","1"
"html-button-response","142","115094","0.0-108.0","CAN_114","114","","","","","","null","<button class=""jspsych-btn""><img src=""stimuli/white_square.png"" style=""width: 200px;height: 200px;""></button>","null","darkgreenblue","turquoise","[""darkgreenblue"",""turquoise"",""low nameability""]","right-left","[""turquoise"",""darkgreenblue""]","3","low nameability","28","right","iti",""
"html-button-response","143","115551","0.0-109.0","CAN_114","114","","","","","","436","","0","lightred","pink","[""lightred"",""pink"",""low nameability""]","left-right","[""lightred"",""pink"",""low nameability""]","3","low nameability","29","left","trigger",""
"html-button-response","144","116129","0.0-110.0-0.0","CAN_114","114","","","","","","570","<button class=""jspsych-btn""><img src=""stimuli/lightred.png"" style=""width: 200px;height: 200px;""></button>","0","lightred","pink","[""lightred"",""pink"",""low nameability""]","left-right","[""lightred"",""pink"",""low nameability""]","3","low nameability","29","left","response","1"
"html-audio-button-response","145","116334","0.0-110.0-1.0","CAN_114","114","","","","","","null","stimuli/bleep.m4a","null","lightred","pink","[""lightred"",""pink"",""low nameability""]","left-right","[""lightred"",""pink"",""low nameability""]","3","low nameability","29","left","audio_feedback","1"
"html-button-response","146","116850","0.0-111.0","CAN_114","114","","","","","","null","<button class=""jspsych-btn""><img src=""stimuli/white_square.png"" style=""width: 200px;height: 200px;""></button>","null","lightred","pink","[""lightred"",""pink"",""low nameability""]","left-right","[""lightred"",""pink"",""low nameability""]","3","low nameability","29","left","iti",""
"html-button-response","147","117307","0.0-112.0","CAN_114","114","","","","","","446","","0","mustard","turquoise","[""mustard"",""turquoise"",""low nameability""]","left-right","[""mustard"",""turquoise"",""low nameability""]","3","low nameability","30","left","trigger",""
"html-button-response","148","118641","0.0-113.0-0.0","CAN_114","114","","","","","","1327","<button class=""jspsych-btn""><img src=""stimuli/mustard.png"" style=""width: 200px;height: 200px;""></button>","0","mustard","turquoise","[""mustard"",""turquoise"",""low nameability""]","left-right","[""mustard"",""turquoise"",""low nameability""]","3","low nameability","30","left","response","1"
"html-audio-button-response","149","118846","0.0-113.0-1.0","CAN_114","114","","","","","","null","stimuli/bleep.m4a","null","mustard","turquoise","[""mustard"",""turquoise"",""low nameability""]","left-right","[""mustard"",""turquoise"",""low nameability""]","3","low nameability","30","left","audio_feedback","1"
"html-button-response","150","119368","0.0-114.0","CAN_114","114","","","","","","null","<button class=""jspsych-btn""><img src=""stimuli/white_square.png"" style=""width: 200px;height: 200px;""></button>","null","mustard","turquoise","[""mustard"",""turquoise"",""low nameability""]","left-right","[""mustard"",""turquoise"",""low nameability""]","3","low nameability","30","left","iti",""
"pavlovia","151","119455","0.0-115.0","CAN_114","114","","","","","","","","","","","","","","","","","","",""
"pavlovia","152","119469","0.0-116.0","CAN_114","114","","","","","","","","","","","","","","","","","","",""
"html-audio-button-response","153","121150","0.0-117.0","CAN_114","114","","","","","","1789","stimuli/tada.m4a","0","","","","","","","","","","",""
"html-button-response","154","123656","0.0-118.0","CAN_114","114","","","","","","2499","","0","","","","","","","","","","",""
"html-button-response","155","124523","0.0-119.0","CAN_114","114","","","","","","857","","0","red","blue","[""red"",""blue"",""high nameability""]","right-left","[""blue"",""red""]","4","high nameability","31","right","trigger",""
"html-button-response","156","125118","0.0-120.0-0.0","CAN_114","114","","","","","","587","<button class=""jspsych-btn""><img src=""stimuli/red.png"" style=""width: 200px;height: 200px;""></button>","1","red","blue","[""red"",""blue"",""high nameability""]","right-left","[""blue"",""red""]","4","high nameability","31","right","response","1"
"html-audio-button-response","157","125325","0.0-120.0-1.0","CAN_114","114","","","","","","null","stimuli/bleep.m4a","null","red","blue","[""red"",""blue"",""high nameability""]","right-left","[""blue"",""red""]","4","high nameability","31","right","audio_feedback","1"
"html-button-response","158","125849","0.0-121.0","CAN_114","114","","","","","","null","<button class=""jspsych-btn""><img src=""stimuli/white_square.png"" style=""width: 200px;height: 200px;""></button>","null","red","blue","[""red"",""blue"",""high nameability""]","right-left","[""blue"",""red""]","4","high nameability","31","right","iti",""
"html-button-response","159","126268","0.0-122.0","CAN_114","114","","","","","","407","","0","mustard","darkgreenblue","[""mustard"",""darkgreenblue"",""low nameability""]","left-right","[""mustard"",""darkgreenblue"",""low nameability""]","4","low nameability","32","left","trigger",""
"html-button-response","160","126815","0.0-123.0-0.0","CAN_114","114","","","","","","538","<button class=""jspsych-btn""><img src=""stimuli/mustard.png"" style=""width: 200px;height: 200px;""></button>","0","mustard","darkgreenblue","[""mustard"",""darkgreenblue"",""low nameability""]","left-right","[""mustard"",""darkgreenblue"",""low nameability""]","4","low nameability","32","left","response","1"
"html-audio-button-response","161","127021","0.0-123.0-1.0","CAN_114","114","","","","","","null","stimuli/bleep.m4a","null","mustard","darkgreenblue","[""mustard"",""darkgreenblue"",""low nameability""]","left-right","[""mustard"",""darkgreenblue"",""low nameability""]","4","low nameability","32","left","audio_feedback","1"
"html-button-response","162","127549","0.0-124.0","CAN_114","114","","","","","","null","<button class=""jspsych-btn""><img src=""stimuli/white_square.png"" style=""width: 200px;height: 200px;""></button>","null","mustard","darkgreenblue","[""mustard"",""darkgreenblue"",""low nameability""]","left-right","[""mustard"",""darkgreenblue"",""low nameability""]","4","low nameability","32","left","iti",""
"html-button-response","163","128003","0.0-125.0","CAN_114","114","","","","","","432","","0","purple","red","[""purple"",""red"",""high nameability""]","right-left","[""red"",""purple""]","4","high nameability","33","right","trigger",""
"html-button-response","164","128510","0.0-126.0-0.0","CAN_114","114","","","","","","500","<button class=""jspsych-btn""><img src=""stimuli/purple.png"" style=""width: 200px;height: 200px;""></button>","1","purple","red","[""purple"",""red"",""high nameability""]","right-left","[""red"",""purple""]","4","high nameability","33","right","response","1"
"html-audio-button-response","165","128713","0.0-126.0-1.0","CAN_114","114","","","","","","null","stimuli/bleep.m4a","null","purple","red","[""purple"",""red"",""high nameability""]","right-left","[""red"",""purple""]","4","high nameability","33","right","audio_feedback","1"
"html-button-response","166","129232","0.0-127.0","CAN_114","114","","","","","","null","<button class=""jspsych-btn""><img src=""stimuli/white_square.png"" style=""width: 200px;height: 200px;""></button>","null","purple","red","[""purple"",""red"",""high nameability""]","right-left","[""red"",""purple""]","4","high nameability","33","right","iti",""
"html-button-response","167","129689","0.0-128.0","CAN_114","114","","","","","","411","","0","blue","red","[""blue"",""red"",""high nameability""]","left-right","[""blue"",""red"",""high nameability""]","4","high nameability","34","left","trigger",""
"html-button-response","168","130233","0.0-129.0-0.0","CAN_114","114","","","","","","532","<button class=""jspsych-btn""><img src=""stimuli/blue.png"" style=""width: 200px;height: 200px;""></button>","0","blue","red","[""blue"",""red"",""high nameability""]","left-right","[""blue"",""red"",""high nameability""]","4","high nameability","34","left","response","1"
"html-audio-button-response","169","130439","0.0-129.0-1.0","CAN_114","114","","","","","","null","stimuli/bleep.m4a","null","blue","red","[""blue"",""red"",""high nameability""]","left-right","[""blue"",""red"",""high nameability""]","4","high nameability","34","left","audio_feedback","1"
"html-button-response","170","130955","0.0-130.0","CAN_114","114","","","","","","null","<button class=""jspsych-btn""><img src=""stimuli/white_square.png"" style=""width: 200px;height: 200px;""></button>","null","blue","red","[""blue"",""red"",""high nameability""]","left-right","[""blue"",""red"",""high nameability""]","4","high nameability","34","left","iti",""
"html-button-response","171","131435","0.0-131.0","CAN_114","114","","","","","","461","","0","purple","brown","[""purple"",""brown"",""high nameability""]","right-left","[""brown"",""purple""]","4","high nameability","35","right","trigger",""
"html-button-response","172","131964","0.0-132.0-0.0","CAN_114","114","","","","","","519","<button class=""jspsych-btn""><img src=""stimuli/purple.png"" style=""width: 200px;height: 200px;""></button>","1","purple","brown","[""purple"",""brown"",""high nameability""]","right-left","[""brown"",""purple""]","4","high nameability","35","right","response","1"
"html-audio-button-response","173","132168","0.0-132.0-1.0","CAN_114","114","","","","","","null","stimuli/bleep.m4a","null","purple","brown","[""purple"",""brown"",""high nameability""]","right-left","[""brown"",""purple""]","4","high nameability","35","right","audio_feedback","1"
"html-button-response","174","132682","0.0-133.0","CAN_114","114","","","","","","null","<button class=""jspsych-btn""><img src=""stimuli/white_square.png"" style=""width: 200px;height: 200px;""></button>","null","purple","brown","[""purple"",""brown"",""high nameability""]","right-left","[""brown"",""purple""]","4","high nameability","35","right","iti",""
"html-button-response","175","133112","0.0-134.0","CAN_114","114","","","","","","413","","0","orange","blue","[""orange"",""blue"",""high nameability""]","right-left","[""blue"",""orange""]","4","high nameability","36","right","trigger",""
"html-button-response","176","133654","0.0-135.0-0.0","CAN_114","114","","","","","","533","<button class=""jspsych-btn""><img src=""stimuli/orange.png"" style=""width: 200px;height: 200px;""></button>","1","orange","blue","[""orange"",""blue"",""high nameability""]","right-left","[""blue"",""orange""]","4","high nameability","36","right","response","1"
"html-audio-button-response","177","133857","0.0-135.0-1.0","CAN_114","114","","","","","","null","stimuli/bleep.m4a","null","orange","blue","[""orange"",""blue"",""high nameability""]","right-left","[""blue"",""orange""]","4","high nameability","36","right","audio_feedback","1"
"html-button-response","178","134373","0.0-136.0","CAN_114","114","","","","","","null","<button class=""jspsych-btn""><img src=""stimuli/white_square.png"" style=""width: 200px;height: 200px;""></button>","null","orange","blue","[""orange"",""blue"",""high nameability""]","right-left","[""blue"",""orange""]","4","high nameability","36","right","iti",""
"html-button-response","179","134753","0.0-137.0","CAN_114","114","","","","","","358","","0","pink","lightred","[""pink"",""lightred"",""low nameability""]","right-left","[""lightred"",""pink""]","4","low nameability","37","right","trigger",""
"html-button-response","180","135368","0.0-138.0-0.0","CAN_114","114","","","","","","600","<button class=""jspsych-btn""><img src=""stimuli/pink.png"" style=""width: 200px;height: 200px;""></button>","1","pink","lightred","[""pink"",""lightred"",""low nameability""]","right-left","[""lightred"",""pink""]","4","low nameability","37","right","response","1"
"html-audio-button-response","181","135580","0.0-138.0-1.0","CAN_114","114","","","","","","null","stimuli/bleep.m4a","null","pink","lightred","[""pink"",""lightred"",""low nameability""]","right-left","[""lightred"",""pink""]","4","low nameability","37","right","audio_feedback","1"
"html-button-response","182","136103","0.0-139.0","CAN_114","114","","","","","","null","<button class=""jspsych-btn""><img src=""stimuli/white_square.png"" style=""width: 200px;height: 200px;""></button>","null","pink","lightred","[""pink"",""lightred"",""low nameability""]","right-left","[""lightred"",""pink""]","4","low nameability","37","right","iti",""
"html-button-response","183","136499","0.0-140.0","CAN_114","114","","","","","","375","","0","purple","orange","[""purple"",""orange"",""high nameability""]","right-left","[""orange"",""purple""]","4","high nameability","38","right","trigger",""
"html-button-response","184","137124","0.0-141.0-0.0","CAN_114","114","","","","","","615","<button class=""jspsych-btn""><img src=""stimuli/purple.png"" style=""width: 200px;height: 200px;""></button>","1","purple","orange","[""purple"",""orange"",""high nameability""]","right-left","[""orange"",""purple""]","4","high nameability","38","right","response","1"
"html-audio-button-response","185","137333","0.0-141.0-1.0","CAN_114","114","","","","","","null","stimuli/bleep.m4a","null","purple","orange","[""purple"",""orange"",""high nameability""]","right-left","[""orange"",""purple""]","4","high nameability","38","right","audio_feedback","1"
"html-button-response","186","137855","0.0-142.0","CAN_114","114","","","","","","null","<button class=""jspsych-btn""><img src=""stimuli/white_square.png"" style=""width: 200px;height: 200px;""></button>","null","purple","orange","[""purple"",""orange"",""high nameability""]","right-left","[""orange"",""purple""]","4","high nameability","38","right","iti",""
"html-button-response","187","138304","0.0-143.0","CAN_114","114","","","","","","432","","0","lightred","mustard","[""lightred"",""mustard"",""low nameability""]","right-left","[""mustard"",""lightred""]","4","low nameability","39","right","trigger",""
"html-button-response","188","138872","0.0-144.0-0.0","CAN_114","114","","","","","","559","<button class=""jspsych-btn""><img src=""stimuli/lightred.png"" style=""width: 200px;height: 200px;""></button>","1","lightred","mustard","[""lightred"",""mustard"",""low nameability""]","right-left","[""mustard"",""lightred""]","4","low nameability","39","right","response","1"
"html-audio-button-response","189","139078","0.0-144.0-1.0","CAN_114","114","","","","","","null","stimuli/bleep.m4a","null","lightred","mustard","[""lightred"",""mustard"",""low nameability""]","right-left","[""mustard"",""lightred""]","4","low nameability","39","right","audio_feedback","1"
"html-button-response","190","139597","0.0-145.0","CAN_114","114","","","","","","null","<button class=""jspsych-btn""><img src=""stimuli/white_square.png"" style=""width: 200px;height: 200px;""></button>","null","lightred","mustard","[""lightred"",""mustard"",""low nameability""]","right-left","[""mustard"",""lightred""]","4","low nameability","39","right","iti",""
"html-button-response","191","140026","0.0-146.0","CAN_114","114","","","","","","411","","0","neonyellow","mustard","[""neonyellow"",""mustard"",""low nameability""]","left-right","[""neonyellow"",""mustard"",""low nameability""]","4","low nameability","40","left","trigger",""
"html-button-response","192","140608","0.0-147.0-0.0","CAN_114","114","","","","","","575","<button class=""jspsych-btn""><img src=""stimuli/neonyellow.png"" style=""width: 200px;height: 200px;""></button>","0","neonyellow","mustard","[""neonyellow"",""mustard"",""low nameability""]","left-right","[""neonyellow"",""mustard"",""low nameability""]","4","low nameability","40","left","response","1"
"html-audio-button-response","193","140813","0.0-147.0-1.0","CAN_114","114","","","","","","null","stimuli/bleep.m4a","null","neonyellow","mustard","[""neonyellow"",""mustard"",""low nameability""]","left-right","[""neonyellow"",""mustard"",""low nameability""]","4","low nameability","40","left","audio_feedback","1"
"html-button-response","194","141331","0.0-148.0","CAN_114","114","","","","","","null","<button class=""jspsych-btn""><img src=""stimuli/white_square.png"" style=""width: 200px;height: 200px;""></button>","null","neonyellow","mustard","[""neonyellow"",""mustard"",""low nameability""]","left-right","[""neonyellow"",""mustard"",""low nameability""]","4","low nameability","40","left","iti",""
"pavlovia","195","141411","0.0-149.0","CAN_114","114","","","","","","","","","","","","","","","","","","",""
"pavlovia","196","141418","0.0-150.0","CAN_114","114","","","","","","","","","","","","","","","","","","",""
"html-audio-button-response","197","143517","0.0-151.0","CAN_114","114","","","","","","2181","stimuli/tada.m4a","0","","","","","","","","","","",""
"html-button-response","198","144124","0.0-152.0","CAN_114","114","","","","","","600","","0","","","","","","","","","","",""
"html-button-response","199","145246","0.0-153.0","CAN_114","114","","","","","","1112","","0","turquoise","neonyellow","[""turquoise"",""neonyellow"",""low nameability""]","right-left","[""neonyellow"",""turquoise""]","5","low nameability","41","right","trigger",""
"html-button-response","200","145763","0.0-154.0-0.0","CAN_114","114","","","","","","511","<button class=""jspsych-btn""><img src=""stimuli/turquoise.png"" style=""width: 200px;height: 200px;""></button>","1","turquoise","neonyellow","[""turquoise"",""neonyellow"",""low nameability""]","right-left","[""neonyellow"",""turquoise""]","5","low nameability","41","right","response","1"
"html-audio-button-response","201","145968","0.0-154.0-1.0","CAN_114","114","","","","","","null","stimuli/bleep.m4a","null","turquoise","neonyellow","[""turquoise"",""neonyellow"",""low nameability""]","right-left","[""neonyellow"",""turquoise""]","5","low nameability","41","right","audio_feedback","1"
"html-button-response","202","146487","0.0-155.0","CAN_114","114","","","","","","null","<button class=""jspsych-btn""><img src=""stimuli/white_square.png"" style=""width: 200px;height: 200px;""></button>","null","turquoise","neonyellow","[""turquoise"",""neonyellow"",""low nameability""]","right-left","[""neonyellow"",""turquoise""]","5","low nameability","41","right","iti",""
"html-button-response","203","146944","0.0-156.0","CAN_114","114","","","","","","443","","0","mustard","pink","[""mustard"",""pink"",""low nameability""]","right-left","[""pink"",""mustard""]","5","low nameability","42","right","trigger",""
"html-button-response","204","147559","0.0-157.0-0.0","CAN_114","114","","","","","","607","<button class=""jspsych-btn""><img src=""stimuli/mustard.png"" style=""width: 200px;height: 200px;""></button>","1","mustard","pink","[""mustard"",""pink"",""low nameability""]","right-left","[""pink"",""mustard""]","5","low nameability","42","right","response","1"
"html-audio-button-response","205","147765","0.0-157.0-1.0","CAN_114","114","","","","","","null","stimuli/bleep.m4a","null","mustard","pink","[""mustard"",""pink"",""low nameability""]","right-left","[""pink"",""mustard""]","5","low nameability","42","right","audio_feedback","1"
"html-button-response","206","148280","0.0-158.0","CAN_114","114","","","","","","null","<button class=""jspsych-btn""><img src=""stimuli/white_square.png"" style=""width: 200px;height: 200px;""></button>","null","mustard","pink","[""mustard"",""pink"",""low nameability""]","right-left","[""pink"",""mustard""]","5","low nameability","42","right","iti",""
"html-button-response","207","148632","0.0-159.0","CAN_114","114","","","","","","338","","0","orange","red","[""orange"",""red"",""high nameability""]","left-right","[""orange"",""red"",""high nameability""]","5","high nameability","43","left","trigger",""
"html-button-response","208","149247","0.0-160.0-0.0","CAN_114","114","","","","","","607","<button class=""jspsych-btn""><img src=""stimuli/orange.png"" style=""width: 200px;height: 200px;""></button>","0","orange","red","[""orange"",""red"",""high nameability""]","left-right","[""orange"",""red"",""high nameability""]","5","high nameability","43","left","response","1"
"html-audio-button-response","209","149452","0.0-160.0-1.0","CAN_114","114","","","","","","null","stimuli/bleep.m4a","null","orange","red","[""orange"",""red"",""high nameability""]","left-right","[""orange"",""red"",""high nameability""]","5","high nameability","43","left","audio_feedback","1"
"html-button-response","210","149968","0.0-161.0","CAN_114","114","","","","","","null","<button class=""jspsych-btn""><img src=""stimuli/white_square.png"" style=""width: 200px;height: 200px;""></button>","null","orange","red","[""orange"",""red"",""high nameability""]","left-right","[""orange"",""red"",""high nameability""]","5","high nameability","43","left","iti",""
"html-button-response","211","150404","0.0-162.0","CAN_114","114","","","","","","419","","0","mustard","neonyellow","[""mustard"",""neonyellow"",""low nameability""]","right-left","[""neonyellow"",""mustard""]","5","low nameability","44","right","trigger",""
"html-button-response","212","150972","0.0-163.0-0.0","CAN_114","114","","","","","","557","<button class=""jspsych-btn""><img src=""stimuli/mustard.png"" style=""width: 200px;height: 200px;""></button>","1","mustard","neonyellow","[""mustard"",""neonyellow"",""low nameability""]","right-left","[""neonyellow"",""mustard""]","5","low nameability","44","right","response","1"
"html-audio-button-response","213","151176","0.0-163.0-1.0","CAN_114","114","","","","","","null","stimuli/bleep.m4a","null","mustard","neonyellow","[""mustard"",""neonyellow"",""low nameability""]","right-left","[""neonyellow"",""mustard""]","5","low nameability","44","right","audio_feedback","1"
"html-button-response","214","151701","0.0-164.0","CAN_114","114","","","","","","null","<button class=""jspsych-btn""><img src=""stimuli/white_square.png"" style=""width: 200px;height: 200px;""></button>","null","mustard","neonyellow","[""mustard"",""neonyellow"",""low nameability""]","right-left","[""neonyellow"",""mustard""]","5","low nameability","44","right","iti",""
"html-button-response","215","152138","0.0-165.0","CAN_114","114","","","","","","421","","0","orange","yellow","[""orange"",""yellow"",""high nameability""]","left-right","[""orange"",""yellow"",""high nameability""]","5","high nameability","45","left","trigger",""
"html-button-response","216","153312","0.0-166.0-0.0","CAN_114","114","","","","","","1165","<button class=""jspsych-btn""><img src=""stimuli/orange.png"" style=""width: 200px;height: 200px;""></button>","0","orange","yellow","[""orange"",""yellow"",""high nameability""]","left-right","[""orange"",""yellow"",""high nameability""]","5","high nameability","45","left","response","1"
"html-audio-button-response","217","153517","0.0-166.0-1.0","CAN_114","114","","","","","","null","stimuli/bleep.m4a","null","orange","yellow","[""orange"",""yellow"",""high nameability""]","left-right","[""orange"",""yellow"",""high nameability""]","5","high nameability","45","left","audio_feedback","1"
"html-button-response","218","154032","0.0-167.0","CAN_114","114","","","","","","null","<button class=""jspsych-btn""><img src=""stimuli/white_square.png"" style=""width: 200px;height: 200px;""></button>","null","orange","yellow","[""orange"",""yellow"",""high nameability""]","left-right","[""orange"",""yellow"",""high nameability""]","5","high nameability","45","left","iti",""
"html-button-response","219","154471","0.0-168.0","CAN_114","114","","","","","","431","","0","purple","yellow","[""purple"",""yellow"",""high nameability""]","right-left","[""yellow"",""purple""]","5","high nameability","46","right","trigger",""
"html-button-response","220","154957","0.0-169.0-0.0","CAN_114","114","","","","","","477","<button class=""jspsych-btn""><img src=""stimuli/purple.png"" style=""width: 200px;height: 200px;""></button>","1","purple","yellow","[""purple"",""yellow"",""high nameability""]","right-left","[""yellow"",""purple""]","5","high nameability","46","right","response","1"
"html-audio-button-response","221","155161","0.0-169.0-1.0","CAN_114","114","","","","","","null","stimuli/bleep.m4a","null","purple","yellow","[""purple"",""yellow"",""high nameability""]","right-left","[""yellow"",""purple""]","5","high nameability","46","right","audio_feedback","1"
"html-button-response","222","155683","0.0-170.0","CAN_114","114","","","","","","null","<button class=""jspsych-btn""><img src=""stimuli/white_square.png"" style=""width: 200px;height: 200px;""></button>","null","purple","yellow","[""purple"",""yellow"",""high nameability""]","right-left","[""yellow"",""purple""]","5","high nameability","46","right","iti",""
"html-button-response","223","156075","0.0-171.0","CAN_114","114","","","","","","377","","0","blue","orange","[""blue"",""orange"",""high nameability""]","left-right","[""blue"",""orange"",""high nameability""]","5","high nameability","47","left","trigger",""
"html-button-response","224","156580","0.0-172.0-0.0","CAN_114","114","","","","","","500","<button class=""jspsych-btn""><img src=""stimuli/blue.png"" style=""width: 200px;height: 200px;""></button>","0","blue","orange","[""blue"",""orange"",""high nameability""]","left-right","[""blue"",""orange"",""high nameability""]","5","high nameability","47","left","response","1"
"html-audio-button-response","225","156785","0.0-172.0-1.0","CAN_114","114","","","","","","null","stimuli/bleep.m4a","null","blue","orange","[""blue"",""orange"",""high nameability""]","left-right","[""blue"",""orange"",""high nameability""]","5","high nameability","47","left","audio_feedback","1"
"html-button-response","226","157300","0.0-173.0","CAN_114","114","","","","","","null","<button class=""jspsych-btn""><img src=""stimuli/white_square.png"" style=""width: 200px;height: 200px;""></button>","null","blue","orange","[""blue"",""orange"",""high nameability""]","left-right","[""blue"",""orange"",""high nameability""]","5","high nameability","47","left","iti",""
"html-button-response","227","157525","0.0-174.0","CAN_114","114","","","","","","210","","0","lightred","darkgreenblue","[""lightred"",""darkgreenblue"",""low nameability""]","left-right","[""lightred"",""darkgreenblue"",""low nameability""]","5","low nameability","48","left","trigger",""
"html-button-response","228","158132","0.0-175.0-0.0","CAN_114","114","","","","","","600","<button class=""jspsych-btn""><img src=""stimuli/lightred.png"" style=""width: 200px;height: 200px;""></button>","0","lightred","darkgreenblue","[""lightred"",""darkgreenblue"",""low nameability""]","left-right","[""lightred"",""darkgreenblue"",""low nameability""]","5","low nameability","48","left","response","1"
"html-audio-button-response","229","158333","0.0-175.0-1.0","CAN_114","114","","","","","","null","stimuli/bleep.m4a","null","lightred","darkgreenblue","[""lightred"",""darkgreenblue"",""low nameability""]","left-right","[""lightred"",""darkgreenblue"",""low nameability""]","5","low nameability","48","left","audio_feedback","1"
"html-button-response","230","158855","0.0-176.0","CAN_114","114","","","","","","null","<button class=""jspsych-btn""><img src=""stimuli/white_square.png"" style=""width: 200px;height: 200px;""></button>","null","lightred","darkgreenblue","[""lightred"",""darkgreenblue"",""low nameability""]","left-right","[""lightred"",""darkgreenblue"",""low nameability""]","5","low nameability","48","left","iti",""
"html-button-response","231","159264","0.0-177.0","CAN_114","114","","","","","","393","","0","pink","mustard","[""pink"",""mustard"",""low nameability""]","right-left","[""mustard"",""pink""]","5","low nameability","49","right","trigger",""
"html-button-response","232","159794","0.0-178.0-0.0","CAN_114","114","","","","","","522","<button class=""jspsych-btn""><img src=""stimuli/pink.png"" style=""width: 200px;height: 200px;""></button>","1","pink","mustard","[""pink"",""mustard"",""low nameability""]","right-left","[""mustard"",""pink""]","5","low nameability","49","right","response","1"
"html-audio-button-response","233","159999","0.0-178.0-1.0","CAN_114","114","","","","","","null","stimuli/bleep.m4a","null","pink","mustard","[""pink"",""mustard"",""low nameability""]","right-left","[""mustard"",""pink""]","5","low nameability","49","right","audio_feedback","1"
"html-button-response","234","160520","0.0-179.0","CAN_114","114","","","","","","null","<button class=""jspsych-btn""><img src=""stimuli/white_square.png"" style=""width: 200px;height: 200px;""></button>","null","pink","mustard","[""pink"",""mustard"",""low nameability""]","right-left","[""mustard"",""pink""]","5","low nameability","49","right","iti",""
"html-button-response","235","160961","0.0-180.0","CAN_114","114","","","","","","424","","0","darkgreenblue","lightred","[""darkgreenblue"",""lightred"",""low nameability""]","left-right","[""darkgreenblue"",""lightred"",""low nameability""]","5","low nameability","50","left","trigger",""
"html-button-response","236","162098","0.0-181.0-0.0","CAN_114","114","","","","","","1130","<button class=""jspsych-btn""><img src=""stimuli/darkgreenblue.png"" style=""width: 200px;height: 200px;""></button>","0","darkgreenblue","lightred","[""darkgreenblue"",""lightred"",""low nameability""]","left-right","[""darkgreenblue"",""lightred"",""low nameability""]","5","low nameability","50","left","response","1"
"html-audio-button-response","237","162304","0.0-181.0-1.0","CAN_114","114","","","","","","null","stimuli/bleep.m4a","null","darkgreenblue","lightred","[""darkgreenblue"",""lightred"",""low nameability""]","left-right","[""darkgreenblue"",""lightred"",""low nameability""]","5","low nameability","50","left","audio_feedback","1"
"html-button-response","238","162821","0.0-182.0","CAN_114","114","","","","","","null","<button class=""jspsych-btn""><img src=""stimuli/white_square.png"" style=""width: 200px;height: 200px;""></button>","null","darkgreenblue","lightred","[""darkgreenblue"",""lightred"",""low nameability""]","left-right","[""darkgreenblue"",""lightred"",""low nameability""]","5","low nameability","50","left","iti",""
"pavlovia","239","162869","0.0-183.0","CAN_114","114","","","","","","","","","","","","","","","","","","",""
"pavlovia","240","162878","0.0-184.0","CAN_114","114","","","","","","","","","","","","","","","","","","",""
"html-audio-button-response","241","164587","0.0-185.0","CAN_114","114","","","","","","1765","stimuli/tada.m4a","0","","","","","","","","","","",""
"html-button-response","242","165361","0.0-186.0","CAN_114","114","","","","","","767","","0","","","","","","","","","","",""
"html-button-response","243","166181","0.0-187.0","CAN_114","114","","","","","","811","","0","lightred","turquoise","[""lightred"",""turquoise"",""low nameability""]","left-right","[""lightred"",""turquoise"",""low nameability""]","6","low nameability","51","left","trigger",""
"html-button-response","244","166758","0.0-188.0-0.0","CAN_114","114","","","","","","568","<button class=""jspsych-btn""><img src=""stimuli/lightred.png"" style=""width: 200px;height: 200px;""></button>","0","lightred","turquoise","[""lightred"",""turquoise"",""low nameability""]","left-right","[""lightred"",""turquoise"",""low nameability""]","6","low nameability","51","left","response","1"
"html-audio-button-response","245","166961","0.0-188.0-1.0","CAN_114","114","","","","","","null","stimuli/bleep.m4a","null","lightred","turquoise","[""lightred"",""turquoise"",""low nameability""]","left-right","[""lightred"",""turquoise"",""low nameability""]","6","low nameability","51","left","audio_feedback","1"
"html-button-response","246","167476","0.0-189.0","CAN_114","114","","","","","","null","<button class=""jspsych-btn""><img src=""stimuli/white_square.png"" style=""width: 200px;height: 200px;""></button>","null","lightred","turquoise","[""lightred"",""turquoise"",""low nameability""]","left-right","[""lightred"",""turquoise"",""low nameability""]","6","low nameability","51","left","iti",""
"html-button-response","247","167887","0.0-190.0","CAN_114","114","","","","","","392","","0","turquoise","pink","[""turquoise"",""pink"",""low nameability""]","left-right","[""turquoise"",""pink"",""low nameability""]","6","low nameability","52","left","trigger",""
"html-button-response","248","168494","0.0-191.0-0.0","CAN_114","114","","","","","","600","<button class=""jspsych-btn""><img src=""stimuli/turquoise.png"" style=""width: 200px;height: 200px;""></button>","0","turquoise","pink","[""turquoise"",""pink"",""low nameability""]","left-right","[""turquoise"",""pink"",""low nameability""]","6","low nameability","52","left","response","1"
"html-audio-button-response","249","168698","0.0-191.0-1.0","CAN_114","114","","","","","","null","stimuli/bleep.m4a","null","turquoise","pink","[""turquoise"",""pink"",""low nameability""]","left-right","[""turquoise"",""pink"",""low nameability""]","6","low nameability","52","left","audio_feedback","1"
"html-button-response","250","169218","0.0-192.0","CAN_114","114","","","","","","null","<button class=""jspsych-btn""><img src=""stimuli/white_square.png"" style=""width: 200px;height: 200px;""></button>","null","turquoise","pink","[""turquoise"",""pink"",""low nameability""]","left-right","[""turquoise"",""pink"",""low nameability""]","6","low nameability","52","left","iti",""
"html-button-response","251","169616","0.0-193.0","CAN_114","114","","","","","","387","","0","yellow","red","[""yellow"",""red"",""high nameability""]","right-left","[""red"",""yellow""]","6","high nameability","53","right","trigger",""
"html-button-response","252","170145","0.0-194.0-0.0","CAN_114","114","","","","","","521","<button class=""jspsych-btn""><img src=""stimuli/yellow.png"" style=""width: 200px;height: 200px;""></button>","1","yellow","red","[""yellow"",""red"",""high nameability""]","right-left","[""red"",""yellow""]","6","high nameability","53","right","response","1"
"html-audio-button-response","253","170350","0.0-194.0-1.0","CAN_114","114","","","","","","null","stimuli/bleep.m4a","null","yellow","red","[""yellow"",""red"",""high nameability""]","right-left","[""red"",""yellow""]","6","high nameability","53","right","audio_feedback","1"
"html-button-response","254","170868","0.0-195.0","CAN_114","114","","","","","","null","<button class=""jspsych-btn""><img src=""stimuli/white_square.png"" style=""width: 200px;height: 200px;""></button>","null","yellow","red","[""yellow"",""red"",""high nameability""]","right-left","[""red"",""yellow""]","6","high nameability","53","right","iti",""
"html-button-response","255","171252","0.0-196.0","CAN_114","114","","","","","","367","","0","red","yellow","[""red"",""yellow"",""high nameability""]","right-left","[""yellow"",""red""]","6","high nameability","54","right","trigger",""
"html-button-response","256","171764","0.0-197.0-0.0","CAN_114","114","","","","","","504","<button class=""jspsych-btn""><img src=""stimuli/red.png"" style=""width: 200px;height: 200px;""></button>","0","red","yellow","[""red"",""yellow"",""high nameability""]","right-left","[""yellow"",""red""]","6","high nameability","54","right","response","0"
"html-audio-button-response","257","172384","0.0-197.0-1.0","CAN_114","114","","","","","","null","stimuli/boing.m4a","null","red","yellow","[""red"",""yellow"",""high nameability""]","right-left","[""yellow"",""red""]","6","high nameability","54","right","audio_feedback","0"
"html-button-response","258","172599","0.0-197.1-0.1","CAN_114","114","","","","","","205","<button class=""jspsych-btn""><img src=""stimuli/red.png"" style=""width: 200px;height: 200px;""></button>","1","red","yellow","[""red"",""yellow"",""high nameability""]","right-left","[""yellow"",""red""]","6","high nameability","54","right","response","1"
"html-audio-button-response","259","172804","0.0-197.1-1.1","CAN_114","114","","","","","","null","stimuli/bleep.m4a","null","red","yellow","[""red"",""yellow"",""high nameability""]","right-left","[""yellow"",""red""]","6","high nameability","54","right","audio_feedback","1"
"html-button-response","260","173317","0.0-198.0","CAN_114","114","","","","","","7","<button class=""jspsych-btn""><img src=""stimuli/white_square.png"" style=""width: 200px;height: 200px;""></button>","1","red","yellow","[""red"",""yellow"",""high nameability""]","right-left","[""yellow"",""red""]","6","high nameability","54","right","iti",""
"html-button-response","261","173781","0.0-199.0","CAN_114","114","","","","","","456","","0","orange","brown","[""orange"",""brown"",""high nameability""]","left-right","[""orange"",""brown"",""high nameability""]","6","high nameability","55","left","trigger",""
"html-button-response","262","174349","0.0-200.0-0.0","CAN_114","114","","","","","","558","<button class=""jspsych-btn""><img src=""stimuli/orange.png"" style=""width: 200px;height: 200px;""></button>","0","orange","brown","[""orange"",""brown"",""high nameability""]","left-right","[""orange"",""brown"",""high nameability""]","6","high nameability","55","left","response","1"
"html-audio-button-response","263","174553","0.0-200.0-1.0","CAN_114","114","","","","","","null","stimuli/bleep.m4a","null","orange","brown","[""orange"",""brown"",""high nameability""]","left-right","[""orange"",""brown"",""high nameability""]","6","high nameability","55","left","audio_feedback","1"
"html-button-response","264","175070","0.0-201.0","CAN_114","114","","","","","","null","<button class=""jspsych-btn""><img src=""stimuli/white_square.png"" style=""width: 200px;height: 200px;""></button>","null","orange","brown","[""orange"",""brown"",""high nameability""]","left-right","[""orange"",""brown"",""high nameability""]","6","high nameability","55","left","iti",""
"html-button-response","265","175525","0.0-202.0","CAN_114","114","","","","","","439","","0","turquoise","lightred","[""turquoise"",""lightred"",""low nameability""]","left-right","[""turquoise"",""lightred"",""low nameability""]","6","low nameability","56","left","trigger",""
"html-button-response","266","176120","0.0-203.0-0.0","CAN_114","114","","","","","","587","<button class=""jspsych-btn""><img src=""stimuli/turquoise.png"" style=""width: 200px;height: 200px;""></button>","0","turquoise","lightred","[""turquoise"",""lightred"",""low nameability""]","left-right","[""turquoise"",""lightred"",""low nameability""]","6","low nameability","56","left","response","1"
"html-audio-button-response","267","176324","0.0-203.0-1.0","CAN_114","114","","","","","","null","stimuli/bleep.m4a","null","turquoise","lightred","[""turquoise"",""lightred"",""low nameability""]","left-right","[""turquoise"",""lightred"",""low nameability""]","6","low nameability","56","left","audio_feedback","1"
"html-button-response","268","176840","0.0-204.0","CAN_114","114","","","","","","null","<button class=""jspsych-btn""><img src=""stimuli/white_square.png"" style=""width: 200px;height: 200px;""></button>","null","turquoise","lightred","[""turquoise"",""lightred"",""low nameability""]","left-right","[""turquoise"",""lightred"",""low nameability""]","6","low nameability","56","left","iti",""
"html-button-response","269","177288","0.0-205.0","CAN_114","114","","","","","","429","","0","yellow","brown","[""yellow"",""brown"",""high nameability""]","left-right","[""yellow"",""brown"",""high nameability""]","6","high nameability","57","left","trigger",""
"html-button-response","270","177889","0.0-206.0-0.0","CAN_114","114","","","","","","589","<button class=""jspsych-btn""><img src=""stimuli/yellow.png"" style=""width: 200px;height: 200px;""></button>","0","yellow","brown","[""yellow"",""brown"",""high nameability""]","left-right","[""yellow"",""brown"",""high nameability""]","6","high nameability","57","left","response","1"
"html-audio-button-response","271","178092","0.0-206.0-1.0","CAN_114","114","","","","","","null","stimuli/bleep.m4a","null","yellow","brown","[""yellow"",""brown"",""high nameability""]","left-right","[""yellow"",""brown"",""high nameability""]","6","high nameability","57","left","audio_feedback","1"
"html-button-response","272","178608","0.0-207.0","CAN_114","114","","","","","","null","<button class=""jspsych-btn""><img src=""stimuli/white_square.png"" style=""width: 200px;height: 200px;""></button>","null","yellow","brown","[""yellow"",""brown"",""high nameability""]","left-right","[""yellow"",""brown"",""high nameability""]","6","high nameability","57","left","iti",""
"html-button-response","273","179055","0.0-208.0","CAN_114","114","","","","","","426","","0","darkgreenblue","neonyellow","[""darkgreenblue"",""neonyellow"",""low nameability""]","right-left","[""neonyellow"",""darkgreenblue""]","6","low nameability","58","right","trigger",""
"html-button-response","274","179633","0.0-209.0-0.0","CAN_114","114","","","","","","572","<button class=""jspsych-btn""><img src=""stimuli/darkgreenblue.png"" style=""width: 200px;height: 200px;""></button>","1","darkgreenblue","neonyellow","[""darkgreenblue"",""neonyellow"",""low nameability""]","right-left","[""neonyellow"",""darkgreenblue""]","6","low nameability","58","right","response","1"
"html-audio-button-response","275","179836","0.0-209.0-1.0","CAN_114","114","","","","","","null","stimuli/bleep.m4a","null","darkgreenblue","neonyellow","[""darkgreenblue"",""neonyellow"",""low nameability""]","right-left","[""neonyellow"",""darkgreenblue""]","6","low nameability","58","right","audio_feedback","1"
"html-button-response","276","180352","0.0-210.0","CAN_114","114","","","","","","null","<button class=""jspsych-btn""><img src=""stimuli/white_square.png"" style=""width: 200px;height: 200px;""></button>","null","darkgreenblue","neonyellow","[""darkgreenblue"",""neonyellow"",""low nameability""]","right-left","[""neonyellow"",""darkgreenblue""]","6","low nameability","58","right","iti",""
"html-button-response","277","180767","0.0-211.0","CAN_114","114","","","","","","397","","0","pink","neonyellow","[""pink"",""neonyellow"",""low nameability""]","left-right","[""pink"",""neonyellow"",""low nameability""]","6","low nameability","59","left","trigger",""
"html-button-response","278","181370","0.0-212.0-0.0","CAN_114","114","","","","","","595","<button class=""jspsych-btn""><img src=""stimuli/pink.png"" style=""width: 200px;height: 200px;""></button>","0","pink","neonyellow","[""pink"",""neonyellow"",""low nameability""]","left-right","[""pink"",""neonyellow"",""low nameability""]","6","low nameability","59","left","response","1"
"html-audio-button-response","279","181572","0.0-212.0-1.0","CAN_114","114","","","","","","null","stimuli/bleep.m4a","null","pink","neonyellow","[""pink"",""neonyellow"",""low nameability""]","left-right","[""pink"",""neonyellow"",""low nameability""]","6","low nameability","59","left","audio_feedback","1"
"html-button-response","280","182093","0.0-213.0","CAN_114","114","","","","","","null","<button class=""jspsych-btn""><img src=""stimuli/white_square.png"" style=""width: 200px;height: 200px;""></button>","null","pink","neonyellow","[""pink"",""neonyellow"",""low nameability""]","left-right","[""pink"",""neonyellow"",""low nameability""]","6","low nameability","59","left","iti",""
"html-button-response","281","182629","0.0-214.0","CAN_114","114","","","","","","520","","0","neonyellow","lightred","[""neonyellow"",""lightred"",""low nameability""]","left-right","[""neonyellow"",""lightred"",""low nameability""]","6","low nameability","60","left","trigger",""
"html-button-response","282","183231","0.0-215.0-0.0","CAN_114","114","","","","","","594","<button class=""jspsych-btn""><img src=""stimuli/neonyellow.png"" style=""width: 200px;height: 200px;""></button>","0","neonyellow","lightred","[""neonyellow"",""lightred"",""low nameability""]","left-right","[""neonyellow"",""lightred"",""low nameability""]","6","low nameability","60","left","response","1"
"html-audio-button-response","283","183432","0.0-215.0-1.0","CAN_114","114","","","","","","null","stimuli/bleep.m4a","null","neonyellow","lightred","[""neonyellow"",""lightred"",""low nameability""]","left-right","[""neonyellow"",""lightred"",""low nameability""]","6","low nameability","60","left","audio_feedback","1"
"html-button-response","284","183954","0.0-216.0","CAN_114","114","","","","","","null","<button class=""jspsych-btn""><img src=""stimuli/white_square.png"" style=""width: 200px;height: 200px;""></button>","null","neonyellow","lightred","[""neonyellow"",""lightred"",""low nameability""]","left-right","[""neonyellow"",""lightred"",""low nameability""]","6","low nameability","60","left","iti",""
