"trial_type","trial_index","time_elapsed","internal_node_id","subject_id","seed","success","timeout","failed_images","failed_audio","failed_video","rt","stimulus","response","target","foil","choices","combination_order","choices_in_order","round","condition","trial_counter","target_location","trial_kind","correct"
"pavlovia","0","21","0.0-0.0","CAN_111","111","","","","","","","","","","","","","","","","","","",""
"preload","1","713","0.0-1.0","CAN_111","111","true","false","[]","[]","[]","","","","","","","","","","","","","",""
"fullscreen","2","981076","0.0-2.0","CAN_111","111","true","","","","","","","","","","","","","","","","","",""
"html-button-response","3","986628","0.0-3.0","CAN_111","111","","","","","","5516","","0","","","","","","","","","","",""
"html-button-response","4","990634","0.0-4.0","CAN_111","111","","","","","","3992","","0","star","square","[""square"",""star""]","left-right","[""square"",""star""]","1","practice","1","right","trigger",""
"html-button-response","5","997681","0.0-5.0-0.0","CAN_111","111","","","","","","7033","<button class=""jspsych-btn""><img src=""stimuli/star.png"" style=""width: 200px;height: 200px;""></button>","1","star","square","[""square"",""star""]","left-right","[""square"",""star""]","1","practice","1","right","response","1"
"html-audio-button-response","6","997889","0.0-5.0-1.0","CAN_111","111","","","","","","null","stimuli/bleep.m4a","null","star","square","[""square"",""star""]","left-right","[""square"",""star""]","1","practice","1","right","audio_feedback","1"
"html-button-response","7","998423","0.0-6.0","CAN_111","111","","","","","","null","<button class=""jspsych-btn""><img src=""stimuli/white_square.png"" style=""width: 200px;height: 200px;""></button>","null","star","square","[""square"",""star""]","left-right","[""square"",""star""]","1","practice","1","right","iti",""
"html-button-response","8","999775","0.0-7.0","CAN_111","111","","","","","","1333","","0","triangle","pentagram","[""triangle"",""pentagram""]","left-right","[""triangle"",""pentagram""]","1","practice","1","left","trigger",""
"html-button-response","9","1000797","0.0-8.0-0.0","CAN_111","111","","","","","","1012","<button class=""jspsych-btn""><img src=""stimuli/triangle.png"" style=""width: 200px;height: 200px;""></button>","0","triangle","pentagram","[""triangle"",""pentagram""]","left-right","[""triangle"",""pentagram""]","1","practice","1","left","response","1"
"html-audio-button-response","10","1001005","0.0-8.0-1.0","CAN_111","111","","","","","","null","stimuli/bleep.m4a","null","triangle","pentagram","[""triangle"",""pentagram""]","left-right","[""triangle"",""pentagram""]","1","practice","1","left","audio_feedback","1"
"html-button-response","11","1001534","0.0-9.0","CAN_111","111","","","","","","null","<button class=""jspsych-btn""><img src=""stimuli/white_square.png"" style=""width: 200px;height: 200px;""></button>","null","triangle","pentagram","[""triangle"",""pentagram""]","left-right","[""triangle"",""pentagram""]","1","practice","1","left","iti",""
"html-button-response","12","1002278","0.0-10.0","CAN_111","111","","","","","","718","","0","diamond","rectangle","[""rectangle"",""diamond""]","left-right","[""rectangle"",""diamond""]","1","practice","1","right","trigger",""
"html-button-response","13","1003085","0.0-11.0-0.0","CAN_111","111","","","","","","796","<button class=""jspsych-btn""><img src=""stimuli/diamond.png"" style=""width: 200px;height: 200px;""></button>","1","diamond","rectangle","[""rectangle"",""diamond""]","left-right","[""rectangle"",""diamond""]","1","practice","1","right","response","1"
"html-audio-button-response","14","1003290","0.0-11.0-1.0","CAN_111","111","","","","","","null","stimuli/bleep.m4a","null","diamond","rectangle","[""rectangle"",""diamond""]","left-right","[""rectangle"",""diamond""]","1","practice","1","right","audio_feedback","1"
"html-button-response","15","1003805","0.0-12.0","CAN_111","111","","","","","","null","<button class=""jspsych-btn""><img src=""stimuli/white_square.png"" style=""width: 200px;height: 200px;""></button>","null","diamond","rectangle","[""rectangle"",""diamond""]","left-right","[""rectangle"",""diamond""]","1","practice","1","right","iti",""
"html-button-response","16","1004475","0.0-13.0","CAN_111","111","","","","","","654","","0","pentagram","star","[""pentagram"",""star""]","left-right","[""pentagram"",""star""]","1","practice","1","left","trigger",""
"html-button-response","17","1005404","0.0-14.0-0.0","CAN_111","111","","","","","","918","<button class=""jspsych-btn""><img src=""stimuli/pentagram.png"" style=""width: 200px;height: 200px;""></button>","0","pentagram","star","[""pentagram"",""star""]","left-right","[""pentagram"",""star""]","1","practice","1","left","response","1"
"html-audio-button-response","18","1005610","0.0-14.0-1.0","CAN_111","111","","","","","","null","stimuli/bleep.m4a","null","pentagram","star","[""pentagram"",""star""]","left-right","[""pentagram"",""star""]","1","practice","1","left","audio_feedback","1"
"html-button-response","19","1006129","0.0-15.0","CAN_111","111","","","","","","null","<button class=""jspsych-btn""><img src=""stimuli/white_square.png"" style=""width: 200px;height: 200px;""></button>","null","pentagram","star","[""pentagram"",""star""]","left-right","[""pentagram"",""star""]","1","practice","1","left","iti",""
"html-button-response","20","1018288","0.0-16.0","CAN_111","111","","","","","","12130","","0","","","","","","","","","","",""
"html-button-response","21","1019157","0.0-17.0","CAN_111","111","","","","","","860","","0","lightred","darkgreenblue","[""lightred"",""darkgreenblue"",""low nameability""]","left-right","[""lightred"",""darkgreenblue"",""low nameability""]","1","low nameability","1","left","trigger",""
"html-button-response","22","1019894","0.0-18.0-0.0","CAN_111","111","","","","","","724","<button class=""jspsych-btn""><img src=""stimuli/lightred.png"" style=""width: 200px;height: 200px;""></button>","0","lightred","darkgreenblue","[""lightred"",""darkgreenblue"",""low nameability""]","left-right","[""lightred"",""darkgreenblue"",""low nameability""]","1","low nameability","1","left","response","1"
"html-audio-button-response","23","1020102","0.0-18.0-1.0","CAN_111","111","","","","","","null","stimuli/bleep.m4a","null","lightred","darkgreenblue","[""lightred"",""darkgreenblue"",""low nameability""]","left-right","[""lightred"",""darkgreenblue"",""low nameability""]","1","low nameability","1","left","audio_feedback","1"
"html-button-response","24","1020632","0.0-19.0","CAN_111","111","","","","","","null","<button class=""jspsych-btn""><img src=""stimuli/white_square.png"" style=""width: 200px;height: 200px;""></button>","null","lightred","darkgreenblue","[""lightred"",""darkgreenblue"",""low nameability""]","left-right","[""lightred"",""darkgreenblue"",""low nameability""]","1","low nameability","1","left","iti",""
"html-button-response","25","1021365","0.0-20.0","CAN_111","111","","","","","","717","","0","neonyellow","lightred","[""neonyellow"",""lightred"",""low nameability""]","right-left","[""lightred"",""neonyellow""]","1","low nameability","2","right","trigger",""
"html-button-response","26","1022078","0.0-21.0-0.0","CAN_111","111","","","","","","707","<button class=""jspsych-btn""><img src=""stimuli/neonyellow.png"" style=""width: 200px;height: 200px;""></button>","1","neonyellow","lightred","[""neonyellow"",""lightred"",""low nameability""]","right-left","[""lightred"",""neonyellow""]","1","low nameability","2","right","response","1"
"html-audio-button-response","27","1022286","0.0-21.0-1.0","CAN_111","111","","","","","","null","stimuli/bleep.m4a","null","neonyellow","lightred","[""neonyellow"",""lightred"",""low nameability""]","right-left","[""lightred"",""neonyellow""]","1","low nameability","2","right","audio_feedback","1"
"html-button-response","28","1022816","0.0-22.0","CAN_111","111","","","","","","null","<button class=""jspsych-btn""><img src=""stimuli/white_square.png"" style=""width: 200px;height: 200px;""></button>","null","neonyellow","lightred","[""neonyellow"",""lightred"",""low nameability""]","right-left","[""lightred"",""neonyellow""]","1","low nameability","2","right","iti",""
"html-button-response","29","1023451","0.0-23.0","CAN_111","111","","","","","","620","","0","yellow","orange","[""yellow"",""orange"",""high nameability""]","right-left","[""orange"",""yellow""]","1","high nameability","3","right","trigger",""
"html-button-response","30","1024105","0.0-24.0-0.0","CAN_111","111","","","","","","646","<button class=""jspsych-btn""><img src=""stimuli/yellow.png"" style=""width: 200px;height: 200px;""></button>","1","yellow","orange","[""yellow"",""orange"",""high nameability""]","right-left","[""orange"",""yellow""]","1","high nameability","3","right","response","1"
"html-audio-button-response","31","1024310","0.0-24.0-1.0","CAN_111","111","","","","","","null","stimuli/bleep.m4a","null","yellow","orange","[""yellow"",""orange"",""high nameability""]","right-left","[""orange"",""yellow""]","1","high nameability","3","right","audio_feedback","1"
"html-button-response","32","1024833","0.0-25.0","CAN_111","111","","","","","","null","<button class=""jspsych-btn""><img src=""stimuli/white_square.png"" style=""width: 200px;height: 200px;""></button>","null","yellow","orange","[""yellow"",""orange"",""high nameability""]","right-left","[""orange"",""yellow""]","1","high nameability","3","right","iti",""
"html-button-response","33","1025474","0.0-26.0","CAN_111","111","","","","","","612","","0","mustard","darkgreenblue","[""mustard"",""darkgreenblue"",""low nameability""]","left-right","[""mustard"",""darkgreenblue"",""low nameability""]","1","low nameability","4","left","trigger",""
"html-button-response","34","1026362","0.0-27.0-0.0","CAN_111","111","","","","","","878","<button class=""jspsych-btn""><img src=""stimuli/mustard.png"" style=""width: 200px;height: 200px;""></button>","0","mustard","darkgreenblue","[""mustard"",""darkgreenblue"",""low nameability""]","left-right","[""mustard"",""darkgreenblue"",""low nameability""]","1","low nameability","4","left","response","1"
"html-audio-button-response","35","1026570","0.0-27.0-1.0","CAN_111","111","","","","","","null","stimuli/bleep.m4a","null","mustard","darkgreenblue","[""mustard"",""darkgreenblue"",""low nameability""]","left-right","[""mustard"",""darkgreenblue"",""low nameability""]","1","low nameability","4","left","audio_feedback","1"
"html-button-response","36","1027096","0.0-28.0","CAN_111","111","","","","","","null","<button class=""jspsych-btn""><img src=""stimuli/white_square.png"" style=""width: 200px;height: 200px;""></button>","null","mustard","darkgreenblue","[""mustard"",""darkgreenblue"",""low nameability""]","left-right","[""mustard"",""darkgreenblue"",""low nameability""]","1","low nameability","4","left","iti",""
"html-button-response","37","1027620","0.0-29.0","CAN_111","111","","","","","","506","","0","purple","yellow","[""purple"",""yellow"",""high nameability""]","right-left","[""yellow"",""purple""]","1","high nameability","5","right","trigger",""
"html-button-response","38","1028303","0.0-30.0-0.0","CAN_111","111","","","","","","672","<button class=""jspsych-btn""><img src=""stimuli/purple.png"" style=""width: 200px;height: 200px;""></button>","1","purple","yellow","[""purple"",""yellow"",""high nameability""]","right-left","[""yellow"",""purple""]","1","high nameability","5","right","response","1"
"html-audio-button-response","39","1028510","0.0-30.0-1.0","CAN_111","111","","","","","","null","stimuli/bleep.m4a","null","purple","yellow","[""purple"",""yellow"",""high nameability""]","right-left","[""yellow"",""purple""]","1","high nameability","5","right","audio_feedback","1"
"html-button-response","40","1029029","0.0-31.0","CAN_111","111","","","","","","null","<button class=""jspsych-btn""><img src=""stimuli/white_square.png"" style=""width: 200px;height: 200px;""></button>","null","purple","yellow","[""purple"",""yellow"",""high nameability""]","right-left","[""yellow"",""purple""]","1","high nameability","5","right","iti",""
"html-button-response","41","1029503","0.0-32.0","CAN_111","111","","","","","","451","","0","pink","mustard","[""pink"",""mustard"",""low nameability""]","right-left","[""mustard"",""pink""]","1","low nameability","6","right","trigger",""
"html-button-response","42","1030151","0.0-33.0-0.0","CAN_111","111","","","","","","640","<button class=""jspsych-btn""><img src=""stimuli/pink.png"" style=""width: 200px;height: 200px;""></button>","1","pink","mustard","[""pink"",""mustard"",""low nameability""]","right-left","[""mustard"",""pink""]","1","low nameability","6","right","response","1"
"html-audio-button-response","43","1030359","0.0-33.0-1.0","CAN_111","111","","","","","","null","stimuli/bleep.m4a","null","pink","mustard","[""pink"",""mustard"",""low nameability""]","right-left","[""mustard"",""pink""]","1","low nameability","6","right","audio_feedback","1"
"html-button-response","44","1030887","0.0-34.0","CAN_111","111","","","","","","null","<button class=""jspsych-btn""><img src=""stimuli/white_square.png"" style=""width: 200px;height: 200px;""></button>","null","pink","mustard","[""pink"",""mustard"",""low nameability""]","right-left","[""mustard"",""pink""]","1","low nameability","6","right","iti",""
"html-button-response","45","1031345","0.0-35.0","CAN_111","111","","","","","","438","","0","red","yellow","[""red"",""yellow"",""high nameability""]","left-right","[""red"",""yellow"",""high nameability""]","1","high nameability","7","left","trigger",""
"html-button-response","46","1031998","0.0-36.0-0.0","CAN_111","111","","","","","","642","<button class=""jspsych-btn""><img src=""stimuli/red.png"" style=""width: 200px;height: 200px;""></button>","0","red","yellow","[""red"",""yellow"",""high nameability""]","left-right","[""red"",""yellow"",""high nameability""]","1","high nameability","7","left","response","1"
"html-audio-button-response","47","1032206","0.0-36.0-1.0","CAN_111","111","","","","","","null","stimuli/bleep.m4a","null","red","yellow","[""red"",""yellow"",""high nameability""]","left-right","[""red"",""yellow"",""high nameability""]","1","high nameability","7","left","audio_feedback","1"
"html-button-response","48","1032725","0.0-37.0","CAN_111","111","","","","","","null","<button class=""jspsych-btn""><img src=""stimuli/white_square.png"" style=""width: 200px;height: 200px;""></button>","null","red","yellow","[""red"",""yellow"",""high nameability""]","left-right","[""red"",""yellow"",""high nameability""]","1","high nameability","7","left","iti",""
"html-button-response","49","1033148","0.0-38.0","CAN_111","111","","","","","","407","","0","blue","brown","[""blue"",""brown"",""high nameability""]","left-right","[""blue"",""brown"",""high nameability""]","1","high nameability","8","left","trigger",""
"html-button-response","50","1033816","0.0-39.0-0.0","CAN_111","111","","","","","","662","<button class=""jspsych-btn""><img src=""stimuli/blue.png"" style=""width: 200px;height: 200px;""></button>","0","blue","brown","[""blue"",""brown"",""high nameability""]","left-right","[""blue"",""brown"",""high nameability""]","1","high nameability","8","left","response","1"
"html-audio-button-response","51","1034019","0.0-39.0-1.0","CAN_111","111","","","","","","null","stimuli/bleep.m4a","null","blue","brown","[""blue"",""brown"",""high nameability""]","left-right","[""blue"",""brown"",""high nameability""]","1","high nameability","8","left","audio_feedback","1"
"html-button-response","52","1034541","0.0-40.0","CAN_111","111","","","","","","null","<button class=""jspsych-btn""><img src=""stimuli/white_square.png"" style=""width: 200px;height: 200px;""></button>","null","blue","brown","[""blue"",""brown"",""high nameability""]","left-right","[""blue"",""brown"",""high nameability""]","1","high nameability","8","left","iti",""
"html-button-response","53","1034996","0.0-41.0","CAN_111","111","","","","","","432","","0","darkgreenblue","neonyellow","[""darkgreenblue"",""neonyellow"",""low nameability""]","left-right","[""darkgreenblue"",""neonyellow"",""low nameability""]","1","low nameability","9","left","trigger",""
"html-button-response","54","1035621","0.0-42.0-0.0","CAN_111","111","","","","","","617","<button class=""jspsych-btn""><img src=""stimuli/darkgreenblue.png"" style=""width: 200px;height: 200px;""></button>","0","darkgreenblue","neonyellow","[""darkgreenblue"",""neonyellow"",""low nameability""]","left-right","[""darkgreenblue"",""neonyellow"",""low nameability""]","1","low nameability","9","left","response","1"
"html-audio-button-response","55","1035824","0.0-42.0-1.0","CAN_111","111","","","","","","null","stimuli/bleep.m4a","null","darkgreenblue","neonyellow","[""darkgreenblue"",""neonyellow"",""low nameability""]","left-right","[""darkgreenblue"",""neonyellow"",""low nameability""]","1","low nameability","9","left","audio_feedback","1"
"html-button-response","56","1036347","0.0-43.0","CAN_111","111","","","","","","null","<button class=""jspsych-btn""><img src=""stimuli/white_square.png"" style=""width: 200px;height: 200px;""></button>","null","darkgreenblue","neonyellow","[""darkgreenblue"",""neonyellow"",""low nameability""]","left-right","[""darkgreenblue"",""neonyellow"",""low nameability""]","1","low nameability","9","left","iti",""
"html-button-response","57","1036772","0.0-44.0","CAN_111","111","","","","","","408","","0","pink","lightred","[""pink"",""lightred"",""low nameability""]","right-left","[""lightred"",""pink""]","1","low nameability","10","right","trigger",""
"html-button-response","58","1037318","0.0-45.0-0.0","CAN_111","111","","","","","","539","<button class=""jspsych-btn""><img src=""stimuli/pink.png"" style=""width: 200px;height: 200px;""></button>","1","pink","lightred","[""pink"",""lightred"",""low nameability""]","right-left","[""lightred"",""pink""]","1","low nameability","10","right","response","1"
"html-audio-button-response","59","1037525","0.0-45.0-1.0","CAN_111","111","","","","","","null","stimuli/bleep.m4a","null","pink","lightred","[""pink"",""lightred"",""low nameability""]","right-left","[""lightred"",""pink""]","1","low nameability","10","right","audio_feedback","1"
"html-button-response","60","1038044","0.0-46.0","CAN_111","111","","","","","","null","<button class=""jspsych-btn""><img src=""stimuli/white_square.png"" style=""width: 200px;height: 200px;""></button>","null","pink","lightred","[""pink"",""lightred"",""low nameability""]","right-left","[""lightred"",""pink""]","1","low nameability","10","right","iti",""
"pavlovia","61","1038141","0.0-47.0","CAN_111","111","","","","","","","","","","","","","","","","","","",""
"pavlovia","62","1038156","0.0-48.0","CAN_111","111","","","","","","","","","","","","","","","","","","",""
"html-audio-button-response","63","1040473","0.0-49.0","CAN_111","111","","","","","","2429","stimuli/tada.m4a","0","","","","","","","","","","",""
"html-button-response","64","1041532","0.0-50.0","CAN_111","111","","","","","","1052","","0","","","","","","","","","","",""
"html-button-response","65","1042269","0.0-51.0","CAN_111","111","","","","","","731","","0","orange","yellow","[""orange"",""yellow"",""high nameability""]","right-left","[""yellow"",""orange""]","2","high nameability","11","right","trigger",""
"html-button-response","66","1042822","0.0-52.0-0.0","CAN_111","111","","","","","","544","<button class=""jspsych-btn""><img src=""stimuli/orange.png"" style=""width: 200px;height: 200px;""></button>","1","orange","yellow","[""orange"",""yellow"",""high nameability""]","right-left","[""yellow"",""orange""]","2","high nameability","11","right","response","1"
"html-audio-button-response","67","1043025","0.0-52.0-1.0","CAN_111","111","","","","","","null","stimuli/bleep.m4a","null","orange","yellow","[""orange"",""yellow"",""high nameability""]","right-left","[""yellow"",""orange""]","2","high nameability","11","right","audio_feedback","1"
"html-button-response","68","1043548","0.0-53.0","CAN_111","111","","","","","","null","<button class=""jspsych-btn""><img src=""stimuli/white_square.png"" style=""width: 200px;height: 200px;""></button>","null","orange","yellow","[""orange"",""yellow"",""high nameability""]","right-left","[""yellow"",""orange""]","2","high nameability","11","right","iti",""
"html-button-response","69","1043617","0.0-54.0","CAN_111","111","","","","","","50","","0","brown","orange","[""brown"",""orange"",""high nameability""]","right-left","[""orange"",""brown""]","2","high nameability","12","right","trigger",""
"html-button-response","70","1044346","0.0-55.0-0.0","CAN_111","111","","","","","","721","<button class=""jspsych-btn""><img src=""stimuli/brown.png"" style=""width: 200px;height: 200px;""></button>","1","brown","orange","[""brown"",""orange"",""high nameability""]","right-left","[""orange"",""brown""]","2","high nameability","12","right","response","1"
"html-audio-button-response","71","1044550","0.0-55.0-1.0","CAN_111","111","","","","","","null","stimuli/bleep.m4a","null","brown","orange","[""brown"",""orange"",""high nameability""]","right-left","[""orange"",""brown""]","2","high nameability","12","right","audio_feedback","1"
"html-button-response","72","1045073","0.0-56.0","CAN_111","111","","","","","","null","<button class=""jspsych-btn""><img src=""stimuli/white_square.png"" style=""width: 200px;height: 200px;""></button>","null","brown","orange","[""brown"",""orange"",""high nameability""]","right-left","[""orange"",""brown""]","2","high nameability","12","right","iti",""
"html-button-response","73","1045236","0.0-57.0","CAN_111","111","","","","","","142","","0","turquoise","darkgreenblue","[""turquoise"",""darkgreenblue"",""low nameability""]","right-left","[""darkgreenblue"",""turquoise""]","2","low nameability","13","right","trigger",""
"html-button-response","74","1045839","0.0-58.0-0.0","CAN_111","111","","","","","","594","<button class=""jspsych-btn""><img src=""stimuli/turquoise.png"" style=""width: 200px;height: 200px;""></button>","1","turquoise","darkgreenblue","[""turquoise"",""darkgreenblue"",""low nameability""]","right-left","[""darkgreenblue"",""turquoise""]","2","low nameability","13","right","response","1"
"html-audio-button-response","75","1046045","0.0-58.0-1.0","CAN_111","111","","","","","","null","stimuli/bleep.m4a","null","turquoise","darkgreenblue","[""turquoise"",""darkgreenblue"",""low nameability""]","right-left","[""darkgreenblue"",""turquoise""]","2","low nameability","13","right","audio_feedback","1"
"html-button-response","76","1046570","0.0-59.0","CAN_111","111","","","","","","null","<button class=""jspsych-btn""><img src=""stimuli/white_square.png"" style=""width: 200px;height: 200px;""></button>","null","turquoise","darkgreenblue","[""turquoise"",""darkgreenblue"",""low nameability""]","right-left","[""darkgreenblue"",""turquoise""]","2","low nameability","13","right","iti",""
"html-button-response","77","1046818","0.0-60.0","CAN_111","111","","","","","","227","","0","brown","red","[""brown"",""red"",""high nameability""]","right-left","[""red"",""brown""]","2","high nameability","14","right","trigger",""
"html-button-response","78","1047481","0.0-61.0-0.0","CAN_111","111","","","","","","654","<button class=""jspsych-btn""><img src=""stimuli/brown.png"" style=""width: 200px;height: 200px;""></button>","1","brown","red","[""brown"",""red"",""high nameability""]","right-left","[""red"",""brown""]","2","high nameability","14","right","response","1"
"html-audio-button-response","79","1047685","0.0-61.0-1.0","CAN_111","111","","","","","","null","stimuli/bleep.m4a","null","brown","red","[""brown"",""red"",""high nameability""]","right-left","[""red"",""brown""]","2","high nameability","14","right","audio_feedback","1"
"html-button-response","80","1048208","0.0-62.0","CAN_111","111","","","","","","null","<button class=""jspsych-btn""><img src=""stimuli/white_square.png"" style=""width: 200px;height: 200px;""></button>","null","brown","red","[""brown"",""red"",""high nameability""]","right-left","[""red"",""brown""]","2","high nameability","14","right","iti",""
"html-button-response","81","1048423","0.0-63.0","CAN_111","111","","","","","","197","","0","orange","brown","[""orange"",""brown"",""high nameability""]","left-right","[""orange"",""brown"",""high nameability""]","2","high nameability","15","left","trigger",""
"html-button-response","82","1049075","0.0-64.0-0.0","CAN_111","111","","","","","","643","<button class=""jspsych-btn""><img src=""stimuli/orange.png"" style=""width: 200px;height: 200px;""></button>","0","orange","brown","[""orange"",""brown"",""high nameability""]","left-right","[""orange"",""brown"",""high nameability""]","2","high nameability","15","left","response","1"
"html-audio-button-response","83","1049274","0.0-64.0-1.0","CAN_111","111","","","","","","null","stimuli/bleep.m4a","null","orange","brown","[""orange"",""brown"",""high nameability""]","left-right","[""orange"",""brown"",""high nameability""]","2","high nameability","15","left","audio_feedback","1"
"html-button-response","84","1049797","0.0-65.0","CAN_111","111","","","","","","null","<button class=""jspsych-btn""><img src=""stimuli/white_square.png"" style=""width: 200px;height: 200px;""></button>","null","orange","brown","[""orange"",""brown"",""high nameability""]","left-right","[""orange"",""brown"",""high nameability""]","2","high nameability","15","left","iti",""
"html-button-response","85","1050189","0.0-66.0","CAN_111","111","","","","","","374","","0","blue","orange","[""blue"",""orange"",""high nameability""]","right-left","[""orange"",""blue""]","2","high nameability","16","right","trigger",""
"html-button-response","86","1050697","0.0-67.0-0.0","CAN_111","111","","","","","","502","<button class=""jspsych-btn""><img src=""stimuli/blue.png"" style=""width: 200px;height: 200px;""></button>","1","blue","orange","[""blue"",""orange"",""high nameability""]","right-left","[""orange"",""blue""]","2","high nameability","16","right","response","1"
"html-audio-button-response","87","1050903","0.0-67.0-1.0","CAN_111","111","","","","","","null","stimuli/bleep.m4a","null","blue","orange","[""blue"",""orange"",""high nameability""]","right-left","[""orange"",""blue""]","2","high nameability","16","right","audio_feedback","1"
"html-button-response","88","1051423","0.0-68.0","CAN_111","111","","","","","","null","<button class=""jspsych-btn""><img src=""stimuli/white_square.png"" style=""width: 200px;height: 200px;""></button>","null","blue","orange","[""blue"",""orange"",""high nameability""]","right-left","[""orange"",""blue""]","2","high nameability","16","right","iti",""
"html-button-response","89","1051624","0.0-69.0","CAN_111","111","","","","","","182","","0","brown","purple","[""brown"",""purple"",""high nameability""]","left-right","[""brown"",""purple"",""high nameability""]","2","high nameability","17","left","trigger",""
"html-button-response","90","1052301","0.0-70.0-0.0","CAN_111","111","","","","","","667","<button class=""jspsych-btn""><img src=""stimuli/brown.png"" style=""width: 200px;height: 200px;""></button>","0","brown","purple","[""brown"",""purple"",""high nameability""]","left-right","[""brown"",""purple"",""high nameability""]","2","high nameability","17","left","response","1"
"html-audio-button-response","91","1052507","0.0-70.0-1.0","CAN_111","111","","","","","","null","stimuli/bleep.m4a","null","brown","purple","[""brown"",""purple"",""high nameability""]","left-right","[""brown"",""purple"",""high nameability""]","2","high nameability","17","left","audio_feedback","1"
"html-button-response","92","1053024","0.0-71.0","CAN_111","111","","","","","","null","<button class=""jspsych-btn""><img src=""stimuli/white_square.png"" style=""width: 200px;height: 200px;""></button>","null","brown","purple","[""brown"",""purple"",""high nameability""]","left-right","[""brown"",""purple"",""high nameability""]","2","high nameability","17","left","iti",""
"html-button-response","93","1053417","0.0-72.0","CAN_111","111","","","","","","373","","0","mustard","lightred","[""mustard"",""lightred"",""low nameability""]","left-right","[""mustard"",""lightred"",""low nameability""]","2","low nameability","18","left","trigger",""
"html-button-response","94","1054059","0.0-73.0-0.0","CAN_111","111","","","","","","633","<button class=""jspsych-btn""><img src=""stimuli/mustard.png"" style=""width: 200px;height: 200px;""></button>","0","mustard","lightred","[""mustard"",""lightred"",""low nameability""]","left-right","[""mustard"",""lightred"",""low nameability""]","2","low nameability","18","left","response","1"
"html-audio-button-response","95","1054264","0.0-73.0-1.0","CAN_111","111","","","","","","null","stimuli/bleep.m4a","null","mustard","lightred","[""mustard"",""lightred"",""low nameability""]","left-right","[""mustard"",""lightred"",""low nameability""]","2","low nameability","18","left","audio_feedback","1"
"html-button-response","96","1054789","0.0-74.0","CAN_111","111","","","","","","null","<button class=""jspsych-btn""><img src=""stimuli/white_square.png"" style=""width: 200px;height: 200px;""></button>","null","mustard","lightred","[""mustard"",""lightred"",""low nameability""]","left-right","[""mustard"",""lightred"",""low nameability""]","2","low nameability","18","left","iti",""
"html-button-response","97","1055106","0.0-75.0","CAN_111","111","","","","","","299","","0","red","orange","[""red"",""orange"",""high nameability""]","left-right","[""red"",""orange"",""high nameability""]","2","high nameability","19","left","trigger",""
"html-button-response","98","1055731","0.0-76.0-0.0","CAN_111","111","","","","","","618","<button class=""jspsych-btn""><img src=""stimuli/red.png"" style=""width: 200px;height: 200px;""></button>","0","red","orange","[""red"",""orange"",""high nameability""]","left-right","[""red"",""orange"",""high nameability""]","2","high nameability","19","left","response","1"
"html-audio-button-response","99","1055933","0.0-76.0-1.0","CAN_111","111","","","","","","null","stimuli/bleep.m4a","null","red","orange","[""red"",""orange"",""high nameability""]","left-right","[""red"",""orange"",""high nameability""]","2","high nameability","19","left","audio_feedback","1"
"html-button-response","100","1056457","0.0-77.0","CAN_111","111","","","","","","null","<button class=""jspsych-btn""><img src=""stimuli/white_square.png"" style=""width: 200px;height: 200px;""></button>","null","red","orange","[""red"",""orange"",""high nameability""]","left-right","[""red"",""orange"",""high nameability""]","2","high nameability","19","left","iti",""
"html-button-response","101","1056851","0.0-78.0","CAN_111","111","","","","","","371","","0","purple","red","[""purple"",""red"",""high nameability""]","left-right","[""purple"",""red"",""high nameability""]","2","high nameability","20","left","trigger",""
"html-button-response","102","1057412","0.0-79.0-0.0","CAN_111","111","","","","","","554","<button class=""jspsych-btn""><img src=""stimuli/purple.png"" style=""width: 200px;height: 200px;""></button>","0","purple","red","[""purple"",""red"",""high nameability""]","left-right","[""purple"",""red"",""high nameability""]","2","high nameability","20","left","response","1"
"html-audio-button-response","103","1057613","0.0-79.0-1.0","CAN_111","111","","","","","","null","stimuli/bleep.m4a","null","purple","red","[""purple"",""red"",""high nameability""]","left-right","[""purple"",""red"",""high nameability""]","2","high nameability","20","left","audio_feedback","1"
"html-button-response","104","1058131","0.0-80.0","CAN_111","111","","","","","","null","<button class=""jspsych-btn""><img src=""stimuli/white_square.png"" style=""width: 200px;height: 200px;""></button>","null","purple","red","[""purple"",""red"",""high nameability""]","left-right","[""purple"",""red"",""high nameability""]","2","high nameability","20","left","iti",""
"pavlovia","105","1058203","0.0-81.0","CAN_111","111","","","","","","","","","","","","","","","","","","",""
"pavlovia","106","1058223","0.0-82.0","CAN_111","111","","","","","","","","","","","","","","","","","","",""
"html-audio-button-response","107","1059249","0.0-83.0","CAN_111","111","","","","","","1117","stimuli/tada.m4a","0","","","","","","","","","","",""
"html-button-response","108","1059954","0.0-84.0","CAN_111","111","","","","","","698","","0","","","","","","","","","","",""
"html-button-response","109","1060624","0.0-85.0","CAN_111","111","","","","","","663","","0","purple","brown","[""purple"",""brown"",""high nameability""]","right-left","[""brown"",""purple""]","3","high nameability","21","right","trigger",""
"html-button-response","110","1061183","0.0-86.0-0.0","CAN_111","111","","","","","","551","<button class=""jspsych-btn""><img src=""stimuli/purple.png"" style=""width: 200px;height: 200px;""></button>","1","purple","brown","[""purple"",""brown"",""high nameability""]","right-left","[""brown"",""purple""]","3","high nameability","21","right","response","1"
"html-audio-button-response","111","1061389","0.0-86.0-1.0","CAN_111","111","","","","","","null","stimuli/bleep.m4a","null","purple","brown","[""purple"",""brown"",""high nameability""]","right-left","[""brown"",""purple""]","3","high nameability","21","right","audio_feedback","1"
"html-button-response","112","1061914","0.0-87.0","CAN_111","111","","","","","","null","<button class=""jspsych-btn""><img src=""stimuli/white_square.png"" style=""width: 200px;height: 200px;""></button>","null","purple","brown","[""purple"",""brown"",""high nameability""]","right-left","[""brown"",""purple""]","3","high nameability","21","right","iti",""
"html-button-response","113","1062345","0.0-88.0","CAN_111","111","","","","","","410","","0","turquoise","neonyellow","[""turquoise"",""neonyellow"",""low nameability""]","left-right","[""turquoise"",""neonyellow"",""low nameability""]","3","low nameability","22","left","trigger",""
"html-button-response","114","1062935","0.0-89.0-0.0","CAN_111","111","","","","","","582","<button class=""jspsych-btn""><img src=""stimuli/turquoise.png"" style=""width: 200px;height: 200px;""></button>","0","turquoise","neonyellow","[""turquoise"",""neonyellow"",""low nameability""]","left-right","[""turquoise"",""neonyellow"",""low nameability""]","3","low nameability","22","left","response","1"
"html-audio-button-response","115","1063136","0.0-89.0-1.0","CAN_111","111","","","","","","null","stimuli/bleep.m4a","null","turquoise","neonyellow","[""turquoise"",""neonyellow"",""low nameability""]","left-right","[""turquoise"",""neonyellow"",""low nameability""]","3","low nameability","22","left","audio_feedback","1"
"html-button-response","116","1063654","0.0-90.0","CAN_111","111","","","","","","null","<button class=""jspsych-btn""><img src=""stimuli/white_square.png"" style=""width: 200px;height: 200px;""></button>","null","turquoise","neonyellow","[""turquoise"",""neonyellow"",""low nameability""]","left-right","[""turquoise"",""neonyellow"",""low nameability""]","3","low nameability","22","left","iti",""
"html-button-response","117","1063877","0.0-91.0","CAN_111","111","","","","","","197","","0","yellow","purple","[""yellow"",""purple"",""high nameability""]","left-right","[""yellow"",""purple"",""high nameability""]","3","high nameability","23","left","trigger",""
"html-button-response","118","1064501","0.0-92.0-0.0","CAN_111","111","","","","","","616","<button class=""jspsych-btn""><img src=""stimuli/yellow.png"" style=""width: 200px;height: 200px;""></button>","0","yellow","purple","[""yellow"",""purple"",""high nameability""]","left-right","[""yellow"",""purple"",""high nameability""]","3","high nameability","23","left","response","1"
"html-audio-button-response","119","1064705","0.0-92.0-1.0","CAN_111","111","","","","","","null","stimuli/bleep.m4a","null","yellow","purple","[""yellow"",""purple"",""high nameability""]","left-right","[""yellow"",""purple"",""high nameability""]","3","high nameability","23","left","audio_feedback","1"
"html-button-response","120","1065225","0.0-93.0","CAN_111","111","","","","","","null","<button class=""jspsych-btn""><img src=""stimuli/white_square.png"" style=""width: 200px;height: 200px;""></button>","null","yellow","purple","[""yellow"",""purple"",""high nameability""]","left-right","[""yellow"",""purple"",""high nameability""]","3","high nameability","23","left","iti",""
"html-button-response","121","1065620","0.0-94.0","CAN_111","111","","","","","","381","","0","darkgreenblue","turquoise","[""darkgreenblue"",""turquoise"",""low nameability""]","left-right","[""darkgreenblue"",""turquoise"",""low nameability""]","3","low nameability","24","left","trigger",""
"html-button-response","122","1066262","0.0-95.0-0.0","CAN_111","111","","","","","","635","<button class=""jspsych-btn""><img src=""stimuli/darkgreenblue.png"" style=""width: 200px;height: 200px;""></button>","0","darkgreenblue","turquoise","[""darkgreenblue"",""turquoise"",""low nameability""]","left-right","[""darkgreenblue"",""turquoise"",""low nameability""]","3","low nameability","24","left","response","1"
"html-audio-button-response","123","1066468","0.0-95.0-1.0","CAN_111","111","","","","","","null","stimuli/bleep.m4a","null","darkgreenblue","turquoise","[""darkgreenblue"",""turquoise"",""low nameability""]","left-right","[""darkgreenblue"",""turquoise"",""low nameability""]","3","low nameability","24","left","audio_feedback","1"
"html-button-response","124","1066995","0.0-96.0","CAN_111","111","","","","","","null","<button class=""jspsych-btn""><img src=""stimuli/white_square.png"" style=""width: 200px;height: 200px;""></button>","null","darkgreenblue","turquoise","[""darkgreenblue"",""turquoise"",""low nameability""]","left-right","[""darkgreenblue"",""turquoise"",""low nameability""]","3","low nameability","24","left","iti",""
"html-button-response","125","1067408","0.0-97.0","CAN_111","111","","","","","","393","","0","neonyellow","turquoise","[""neonyellow"",""turquoise"",""low nameability""]","right-left","[""turquoise"",""neonyellow""]","3","low nameability","25","right","trigger",""
"html-button-response","126","1068126","0.0-98.0-0.0","CAN_111","111","","","","","","709","<button class=""jspsych-btn""><img src=""stimuli/neonyellow.png"" style=""width: 200px;height: 200px;""></button>","1","neonyellow","turquoise","[""neonyellow"",""turquoise"",""low nameability""]","right-left","[""turquoise"",""neonyellow""]","3","low nameability","25","right","response","1"
"html-audio-button-response","127","1068328","0.0-98.0-1.0","CAN_111","111","","","","","","null","stimuli/bleep.m4a","null","neonyellow","turquoise","[""neonyellow"",""turquoise"",""low nameability""]","right-left","[""turquoise"",""neonyellow""]","3","low nameability","25","right","audio_feedback","1"
"html-button-response","128","1068850","0.0-99.0","CAN_111","111","","","","","","null","<button class=""jspsych-btn""><img src=""stimuli/white_square.png"" style=""width: 200px;height: 200px;""></button>","null","neonyellow","turquoise","[""neonyellow"",""turquoise"",""low nameability""]","right-left","[""turquoise"",""neonyellow""]","3","low nameability","25","right","iti",""
"html-button-response","129","1069294","0.0-100.0","CAN_111","111","","","","","","422","","0","neonyellow","mustard","[""neonyellow"",""mustard"",""low nameability""]","right-left","[""mustard"",""neonyellow""]","3","low nameability","26","right","trigger",""
"html-button-response","130","1069995","0.0-101.0-0.0","CAN_111","111","","","","","","691","<button class=""jspsych-btn""><img src=""stimuli/neonyellow.png"" style=""width: 200px;height: 200px;""></button>","1","neonyellow","mustard","[""neonyellow"",""mustard"",""low nameability""]","right-left","[""mustard"",""neonyellow""]","3","low nameability","26","right","response","1"
"html-audio-button-response","131","1070202","0.0-101.0-1.0","CAN_111","111","","","","","","null","stimuli/bleep.m4a","null","neonyellow","mustard","[""neonyellow"",""mustard"",""low nameability""]","right-left","[""mustard"",""neonyellow""]","3","low nameability","26","right","audio_feedback","1"
"html-button-response","132","1070721","0.0-102.0","CAN_111","111","","","","","","null","<button class=""jspsych-btn""><img src=""stimuli/white_square.png"" style=""width: 200px;height: 200px;""></button>","null","neonyellow","mustard","[""neonyellow"",""mustard"",""low nameability""]","right-left","[""mustard"",""neonyellow""]","3","low nameability","26","right","iti",""
"html-button-response","133","1071168","0.0-103.0","CAN_111","111","","","","","","426","","0","blue","red","[""blue"",""red"",""high nameability""]","right-left","[""red"",""blue""]","3","high nameability","27","right","trigger",""
"html-button-response","134","1071726","0.0-104.0-0.0","CAN_111","111","","","","","","549","<button class=""jspsych-btn""><img src=""stimuli/blue.png"" style=""width: 200px;height: 200px;""></button>","1","blue","red","[""blue"",""red"",""high nameability""]","right-left","[""red"",""blue""]","3","high nameability","27","right","response","1"
"html-audio-button-response","135","1071935","0.0-104.0-1.0","CAN_111","111","","","","","","null","stimuli/bleep.m4a","null","blue","red","[""blue"",""red"",""high nameability""]","right-left","[""red"",""blue""]","3","high nameability","27","right","audio_feedback","1"
"html-button-response","136","1072453","0.0-105.0","CAN_111","111","","","","","","null","<button class=""jspsych-btn""><img src=""stimuli/white_square.png"" style=""width: 200px;height: 200px;""></button>","null","blue","red","[""blue"",""red"",""high nameability""]","right-left","[""red"",""blue""]","3","high nameability","27","right","iti",""
"html-button-response","137","1073034","0.0-106.0","CAN_111","111","","","","","","555","","0","orange","purple","[""orange"",""purple"",""high nameability""]","right-left","[""purple"",""orange""]","3","high nameability","28","right","trigger",""
"html-button-response","138","1073720","0.0-107.0-0.0","CAN_111","111","","","","","","679","<button class=""jspsych-btn""><img src=""stimuli/orange.png"" style=""width: 200px;height: 200px;""></button>","1","orange","purple","[""orange"",""purple"",""high nameability""]","right-left","[""purple"",""orange""]","3","high nameability","28","right","response","1"
"html-audio-button-response","139","1073925","0.0-107.0-1.0","CAN_111","111","","","","","","null","stimuli/bleep.m4a","null","orange","purple","[""orange"",""purple"",""high nameability""]","right-left","[""purple"",""orange""]","3","high nameability","28","right","audio_feedback","1"
"html-button-response","140","1074443","0.0-108.0","CAN_111","111","","","","","","null","<button class=""jspsych-btn""><img src=""stimuli/white_square.png"" style=""width: 200px;height: 200px;""></button>","null","orange","purple","[""orange"",""purple"",""high nameability""]","right-left","[""purple"",""orange""]","3","high nameability","28","right","iti",""
"html-button-response","141","1074879","0.0-109.0","CAN_111","111","","","","","","417","","0","darkgreenblue","pink","[""darkgreenblue"",""pink"",""low nameability""]","left-right","[""darkgreenblue"",""pink"",""low nameability""]","3","low nameability","29","left","trigger",""
"html-button-response","142","1075430","0.0-110.0-0.0","CAN_111","111","","","","","","544","<button class=""jspsych-btn""><img src=""stimuli/darkgreenblue.png"" style=""width: 200px;height: 200px;""></button>","0","darkgreenblue","pink","[""darkgreenblue"",""pink"",""low nameability""]","left-right","[""darkgreenblue"",""pink"",""low nameability""]","3","low nameability","29","left","response","1"
"html-audio-button-response","143","1075634","0.0-110.0-1.0","CAN_111","111","","","","","","null","stimuli/bleep.m4a","null","darkgreenblue","pink","[""darkgreenblue"",""pink"",""low nameability""]","left-right","[""darkgreenblue"",""pink"",""low nameability""]","3","low nameability","29","left","audio_feedback","1"
"html-button-response","144","1076156","0.0-111.0","CAN_111","111","","","","","","null","<button class=""jspsych-btn""><img src=""stimuli/white_square.png"" style=""width: 200px;height: 200px;""></button>","null","darkgreenblue","pink","[""darkgreenblue"",""pink"",""low nameability""]","left-right","[""darkgreenblue"",""pink"",""low nameability""]","3","low nameability","29","left","iti",""
"html-button-response","145","1076458","0.0-112.0","CAN_111","111","","","","","","283","","0","purple","blue","[""purple"",""blue"",""high nameability""]","right-left","[""blue"",""purple""]","3","high nameability","30","right","trigger",""
"html-button-response","146","1077021","0.0-113.0-0.0","CAN_111","111","","","","","","555","<button class=""jspsych-btn""><img src=""stimuli/purple.png"" style=""width: 200px;height: 200px;""></button>","1","purple","blue","[""purple"",""blue"",""high nameability""]","right-left","[""blue"",""purple""]","3","high nameability","30","right","response","1"
"html-audio-button-response","147","1077224","0.0-113.0-1.0","CAN_111","111","","","","","","null","stimuli/bleep.m4a","null","purple","blue","[""purple"",""blue"",""high nameability""]","right-left","[""blue"",""purple""]","3","high nameability","30","right","audio_feedback","1"
"html-button-response","148","1077745","0.0-114.0","CAN_111","111","","","","","","null","<button class=""jspsych-btn""><img src=""stimuli/white_square.png"" style=""width: 200px;height: 200px;""></button>","null","purple","blue","[""purple"",""blue"",""high nameability""]","right-left","[""blue"",""purple""]","3","high nameability","30","right","iti",""
"pavlovia","149","1077825","0.0-115.0","CAN_111","111","","","","","","","","","","","","","","","","","","",""
"pavlovia","150","1077833","0.0-116.0","CAN_111","111","","","","","","","","","","","","","","","","","","",""
"html-audio-button-response","151","1078887","0.0-117.0","CAN_111","111","","","","","","1149","stimuli/tada.m4a","0","","","","","","","","","","",""
"html-button-response","152","1079533","0.0-118.0","CAN_111","111","","","","","","639","","0","","","","","","","","","","",""
"html-button-response","153","1080121","0.0-119.0","CAN_111","111","","","","","","579","","0","red","purple","[""red"",""purple"",""high nameability""]","left-right","[""red"",""purple"",""high nameability""]","4","high nameability","31","left","trigger",""
"html-button-response","154","1080736","0.0-120.0-0.0","CAN_111","111","","","","","","606","<button class=""jspsych-btn""><img src=""stimuli/red.png"" style=""width: 200px;height: 200px;""></button>","0","red","purple","[""red"",""purple"",""high nameability""]","left-right","[""red"",""purple"",""high nameability""]","4","high nameability","31","left","response","1"
"html-audio-button-response","155","1080941","0.0-120.0-1.0","CAN_111","111","","","","","","null","stimuli/bleep.m4a","null","red","purple","[""red"",""purple"",""high nameability""]","left-right","[""red"",""purple"",""high nameability""]","4","high nameability","31","left","audio_feedback","1"
"html-button-response","156","1081466","0.0-121.0","CAN_111","111","","","","","","null","<button class=""jspsych-btn""><img src=""stimuli/white_square.png"" style=""width: 200px;height: 200px;""></button>","null","red","purple","[""red"",""purple"",""high nameability""]","left-right","[""red"",""purple"",""high nameability""]","4","high nameability","31","left","iti",""
"html-button-response","157","1081567","0.0-122.0","CAN_111","111","","","","","","78","","0","brown","yellow","[""brown"",""yellow"",""high nameability""]","left-right","[""brown"",""yellow"",""high nameability""]","4","high nameability","32","left","trigger",""
"html-button-response","158","1082134","0.0-123.0-0.0","CAN_111","111","","","","","","561","<button class=""jspsych-btn""><img src=""stimuli/brown.png"" style=""width: 200px;height: 200px;""></button>","0","brown","yellow","[""brown"",""yellow"",""high nameability""]","left-right","[""brown"",""yellow"",""high nameability""]","4","high nameability","32","left","response","1"
"html-audio-button-response","159","1082336","0.0-123.0-1.0","CAN_111","111","","","","","","null","stimuli/bleep.m4a","null","brown","yellow","[""brown"",""yellow"",""high nameability""]","left-right","[""brown"",""yellow"",""high nameability""]","4","high nameability","32","left","audio_feedback","1"
"html-button-response","160","1082858","0.0-124.0","CAN_111","111","","","","","","null","<button class=""jspsych-btn""><img src=""stimuli/white_square.png"" style=""width: 200px;height: 200px;""></button>","null","brown","yellow","[""brown"",""yellow"",""high nameability""]","left-right","[""brown"",""yellow"",""high nameability""]","4","high nameability","32","left","iti",""
"html-button-response","161","1083278","0.0-125.0","CAN_111","111","","","","","","388","","0","orange","blue","[""orange"",""blue"",""high nameability""]","right-left","[""blue"",""orange""]","4","high nameability","33","right","trigger",""
"html-button-response","162","1083981","0.0-126.0-0.0","CAN_111","111","","","","","","694","<button class=""jspsych-btn""><img src=""stimuli/orange.png"" style=""width: 200px;height: 200px;""></button>","1","orange","blue","[""orange"",""blue"",""high nameability""]","right-left","[""blue"",""orange""]","4","high nameability","33","right","response","1"
"html-audio-button-response","163","1084184","0.0-126.0-1.0","CAN_111","111","","","","","","null","stimuli/bleep.m4a","null","orange","blue","[""orange"",""blue"",""high nameability""]","right-left","[""blue"",""orange""]","4","high nameability","33","right","audio_feedback","1"
"html-button-response","164","1084706","0.0-127.0","CAN_111","111","","","","","","null","<button class=""jspsych-btn""><img src=""stimuli/white_square.png"" style=""width: 200px;height: 200px;""></button>","null","orange","blue","[""orange"",""blue"",""high nameability""]","right-left","[""blue"",""orange""]","4","high nameability","33","right","iti",""
"html-button-response","165","1085167","0.0-128.0","CAN_111","111","","","","","","443","","0","blue","yellow","[""blue"",""yellow"",""high nameability""]","right-left","[""yellow"",""blue""]","4","high nameability","34","right","trigger",""
"html-button-response","166","1085664","0.0-129.0-0.0","CAN_111","111","","","","","","486","<button class=""jspsych-btn""><img src=""stimuli/blue.png"" style=""width: 200px;height: 200px;""></button>","1","blue","yellow","[""blue"",""yellow"",""high nameability""]","right-left","[""yellow"",""blue""]","4","high nameability","34","right","response","1"
"html-audio-button-response","167","1085867","0.0-129.0-1.0","CAN_111","111","","","","","","null","stimuli/bleep.m4a","null","blue","yellow","[""blue"",""yellow"",""high nameability""]","right-left","[""yellow"",""blue""]","4","high nameability","34","right","audio_feedback","1"
"html-button-response","168","1086384","0.0-130.0","CAN_111","111","","","","","","null","<button class=""jspsych-btn""><img src=""stimuli/white_square.png"" style=""width: 200px;height: 200px;""></button>","null","blue","yellow","[""blue"",""yellow"",""high nameability""]","right-left","[""yellow"",""blue""]","4","high nameability","34","right","iti",""
"html-button-response","169","1086843","0.0-131.0","CAN_111","111","","","","","","444","","0","turquoise","pink","[""turquoise"",""pink"",""low nameability""]","right-left","[""pink"",""turquoise""]","4","low nameability","35","right","trigger",""
"html-button-response","170","1087358","0.0-132.0-0.0","CAN_111","111","","","","","","508","<button class=""jspsych-btn""><img src=""stimuli/turquoise.png"" style=""width: 200px;height: 200px;""></button>","1","turquoise","pink","[""turquoise"",""pink"",""low nameability""]","right-left","[""pink"",""turquoise""]","4","low nameability","35","right","response","1"
"html-audio-button-response","171","1087564","0.0-132.0-1.0","CAN_111","111","","","","","","null","stimuli/bleep.m4a","null","turquoise","pink","[""turquoise"",""pink"",""low nameability""]","right-left","[""pink"",""turquoise""]","4","low nameability","35","right","audio_feedback","1"
"html-button-response","172","1088080","0.0-133.0","CAN_111","111","","","","","","null","<button class=""jspsych-btn""><img src=""stimuli/white_square.png"" style=""width: 200px;height: 200px;""></button>","null","turquoise","pink","[""turquoise"",""pink"",""low nameability""]","right-left","[""pink"",""turquoise""]","4","low nameability","35","right","iti",""
"html-button-response","173","1088511","0.0-134.0","CAN_111","111","","","","","","410","","0","yellow","red","[""yellow"",""red"",""high nameability""]","right-left","[""red"",""yellow""]","4","high nameability","36","right","trigger",""
"html-button-response","174","1089045","0.0-135.0-0.0","CAN_111","111","","","","","","526","<button class=""jspsych-btn""><img src=""stimuli/yellow.png"" style=""width: 200px;height: 200px;""></button>","1","yellow","red","[""yellow"",""red"",""high nameability""]","right-left","[""red"",""yellow""]","4","high nameability","36","right","response","1"
"html-audio-button-response","175","1089252","0.0-135.0-1.0","CAN_111","111","","","","","","null","stimuli/bleep.m4a","null","yellow","red","[""yellow"",""red"",""high nameability""]","right-left","[""red"",""yellow""]","4","high nameability","36","right","audio_feedback","1"
"html-button-response","176","1089773","0.0-136.0","CAN_111","111","","","","","","null","<button class=""jspsych-btn""><img src=""stimuli/white_square.png"" style=""width: 200px;height: 200px;""></button>","null","yellow","red","[""yellow"",""red"",""high nameability""]","right-left","[""red"",""yellow""]","4","high nameability","36","right","iti",""
"html-button-response","177","1090232","0.0-137.0","CAN_111","111","","","","","","417","","0","pink","neonyellow","[""pink"",""neonyellow"",""low nameability""]","left-right","[""pink"",""neonyellow"",""low nameability""]","4","low nameability","37","left","trigger",""
"html-button-response","178","1090981","0.0-138.0-0.0","CAN_111","111","","","","","","737","<button class=""jspsych-btn""><img src=""stimuli/pink.png"" style=""width: 200px;height: 200px;""></button>","0","pink","neonyellow","[""pink"",""neonyellow"",""low nameability""]","left-right","[""pink"",""neonyellow"",""low nameability""]","4","low nameability","37","left","response","1"
"html-audio-button-response","179","1091187","0.0-138.0-1.0","CAN_111","111","","","","","","null","stimuli/bleep.m4a","null","pink","neonyellow","[""pink"",""neonyellow"",""low nameability""]","left-right","[""pink"",""neonyellow"",""low nameability""]","4","low nameability","37","left","audio_feedback","1"
"html-button-response","180","1091704","0.0-139.0","CAN_111","111","","","","","","null","<button class=""jspsych-btn""><img src=""stimuli/white_square.png"" style=""width: 200px;height: 200px;""></button>","null","pink","neonyellow","[""pink"",""neonyellow"",""low nameability""]","left-right","[""pink"",""neonyellow"",""low nameability""]","4","low nameability","37","left","iti",""
"html-button-response","181","1092158","0.0-140.0","CAN_111","111","","","","","","435","","0","lightred","pink","[""lightred"",""pink"",""low nameability""]","left-right","[""lightred"",""pink"",""low nameability""]","4","low nameability","38","left","trigger",""
"html-button-response","182","1092846","0.0-141.0-0.0","CAN_111","111","","","","","","673","<button class=""jspsych-btn""><img src=""stimuli/lightred.png"" style=""width: 200px;height: 200px;""></button>","0","lightred","pink","[""lightred"",""pink"",""low nameability""]","left-right","[""lightred"",""pink"",""low nameability""]","4","low nameability","38","left","response","1"
"html-audio-button-response","183","1093057","0.0-141.0-1.0","CAN_111","111","","","","","","null","stimuli/bleep.m4a","null","lightred","pink","[""lightred"",""pink"",""low nameability""]","left-right","[""lightred"",""pink"",""low nameability""]","4","low nameability","38","left","audio_feedback","1"
"html-button-response","184","1093576","0.0-142.0","CAN_111","111","","","","","","null","<button class=""jspsych-btn""><img src=""stimuli/white_square.png"" style=""width: 200px;height: 200px;""></button>","null","lightred","pink","[""lightred"",""pink"",""low nameability""]","left-right","[""lightred"",""pink"",""low nameability""]","4","low nameability","38","left","iti",""
"html-button-response","185","1094042","0.0-143.0","CAN_111","111","","","","","","442","","0","lightred","mustard","[""lightred"",""mustard"",""low nameability""]","right-left","[""mustard"",""lightred""]","4","low nameability","39","right","trigger",""
"html-button-response","186","1094605","0.0-144.0-0.0","CAN_111","111","","","","","","552","<button class=""jspsych-btn""><img src=""stimuli/lightred.png"" style=""width: 200px;height: 200px;""></button>","1","lightred","mustard","[""lightred"",""mustard"",""low nameability""]","right-left","[""mustard"",""lightred""]","4","low nameability","39","right","response","1"
"html-audio-button-response","187","1094808","0.0-144.0-1.0","CAN_111","111","","","","","","null","stimuli/bleep.m4a","null","lightred","mustard","[""lightred"",""mustard"",""low nameability""]","right-left","[""mustard"",""lightred""]","4","low nameability","39","right","audio_feedback","1"
"html-button-response","188","1095334","0.0-145.0","CAN_111","111","","","","","","null","<button class=""jspsych-btn""><img src=""stimuli/white_square.png"" style=""width: 200px;height: 200px;""></button>","null","lightred","mustard","[""lightred"",""mustard"",""low nameability""]","right-left","[""mustard"",""lightred""]","4","low nameability","39","right","iti",""
"html-button-response","189","1095721","0.0-146.0","CAN_111","111","","","","","","372","","0","yellow","blue","[""yellow"",""blue"",""high nameability""]","left-right","[""yellow"",""blue"",""high nameability""]","4","high nameability","40","left","trigger",""
"html-button-response","190","1096300","0.0-147.0-0.0","CAN_111","111","","","","","","569","<button class=""jspsych-btn""><img src=""stimuli/yellow.png"" style=""width: 200px;height: 200px;""></button>","0","yellow","blue","[""yellow"",""blue"",""high nameability""]","left-right","[""yellow"",""blue"",""high nameability""]","4","high nameability","40","left","response","1"
"html-audio-button-response","191","1096506","0.0-147.0-1.0","CAN_111","111","","","","","","null","stimuli/bleep.m4a","null","yellow","blue","[""yellow"",""blue"",""high nameability""]","left-right","[""yellow"",""blue"",""high nameability""]","4","high nameability","40","left","audio_feedback","1"
"html-button-response","192","1097024","0.0-148.0","CAN_111","111","","","","","","null","<button class=""jspsych-btn""><img src=""stimuli/white_square.png"" style=""width: 200px;height: 200px;""></button>","null","yellow","blue","[""yellow"",""blue"",""high nameability""]","left-right","[""yellow"",""blue"",""high nameability""]","4","high nameability","40","left","iti",""
"pavlovia","193","1097101","0.0-149.0","CAN_111","111","","","","","","","","","","","","","","","","","","",""
"pavlovia","194","1097108","0.0-150.0","CAN_111","111","","","","","","","","","","","","","","","","","","",""
"html-audio-button-response","195","1098770","0.0-151.0","CAN_111","111","","","","","","1747","stimuli/tada.m4a","0","","","","","","","","","","",""
"html-button-response","196","1099484","0.0-152.0","CAN_111","111","","","","","","705","","0","","","","","","","","","","",""
"html-button-response","197","1100131","0.0-153.0","CAN_111","111","","","","","","639","","0","lightred","turquoise","[""lightred"",""turquoise"",""low nameability""]","right-left","[""turquoise"",""lightred""]","5","low nameability","41","right","trigger",""
"html-button-response","198","1100655","0.0-154.0-0.0","CAN_111","111","","","","","","518","<button class=""jspsych-btn""><img src=""stimuli/lightred.png"" style=""width: 200px;height: 200px;""></button>","1","lightred","turquoise","[""lightred"",""turquoise"",""low nameability""]","right-left","[""turquoise"",""lightred""]","5","low nameability","41","right","response","1"
"html-audio-button-response","199","1100856","0.0-154.0-1.0","CAN_111","111","","","","","","null","stimuli/bleep.m4a","null","lightred","turquoise","[""lightred"",""turquoise"",""low nameability""]","right-left","[""turquoise"",""lightred""]","5","low nameability","41","right","audio_feedback","1"
"html-button-response","200","1101370","0.0-155.0","CAN_111","111","","","","","","null","<button class=""jspsych-btn""><img src=""stimuli/white_square.png"" style=""width: 200px;height: 200px;""></button>","null","lightred","turquoise","[""lightred"",""turquoise"",""low nameability""]","right-left","[""turquoise"",""lightred""]","5","low nameability","41","right","iti",""
"html-button-response","201","1101412","0.0-156.0","CAN_111","111","","","","","","30","","0","pink","turquoise","[""pink"",""turquoise"",""low nameability""]","right-left","[""turquoise"",""pink""]","5","low nameability","42","right","trigger",""
"html-button-response","202","1102034","0.0-157.0-0.0","CAN_111","111","","","","","","612","<button class=""jspsych-btn""><img src=""stimuli/pink.png"" style=""width: 200px;height: 200px;""></button>","1","pink","turquoise","[""pink"",""turquoise"",""low nameability""]","right-left","[""turquoise"",""pink""]","5","low nameability","42","right","response","1"
"html-audio-button-response","203","1102236","0.0-157.0-1.0","CAN_111","111","","","","","","null","stimuli/bleep.m4a","null","pink","turquoise","[""pink"",""turquoise"",""low nameability""]","right-left","[""turquoise"",""pink""]","5","low nameability","42","right","audio_feedback","1"
"html-button-response","204","1102756","0.0-158.0","CAN_111","111","","","","","","null","<button class=""jspsych-btn""><img src=""stimuli/white_square.png"" style=""width: 200px;height: 200px;""></button>","null","pink","turquoise","[""pink"",""turquoise"",""low nameability""]","right-left","[""turquoise"",""pink""]","5","low nameability","42","right","iti",""
"html-button-response","205","1103160","0.0-159.0","CAN_111","111","","","","","","386","","0","darkgreenblue","lightred","[""darkgreenblue"",""lightred"",""low nameability""]","right-left","[""lightred"",""darkgreenblue""]","5","low nameability","43","right","trigger",""
"html-button-response","206","1103850","0.0-160.0-0.0","CAN_111","111","","","","","","680","<button class=""jspsych-btn""><img src=""stimuli/darkgreenblue.png"" style=""width: 200px;height: 200px;""></button>","1","darkgreenblue","lightred","[""darkgreenblue"",""lightred"",""low nameability""]","right-left","[""lightred"",""darkgreenblue""]","5","low nameability","43","right","response","1"
"html-audio-button-response","207","1104052","0.0-160.0-1.0","CAN_111","111","","","","","","null","stimuli/bleep.m4a","null","darkgreenblue","lightred","[""darkgreenblue"",""lightred"",""low nameability""]","right-left","[""lightred"",""darkgreenblue""]","5","low nameability","43","right","audio_feedback","1"
"html-button-response","208","1104571","0.0-161.0","CAN_111","111","","","","","","null","<button class=""jspsych-btn""><img src=""stimuli/white_square.png"" style=""width: 200px;height: 200px;""></button>","null","darkgreenblue","lightred","[""darkgreenblue"",""lightred"",""low nameability""]","right-left","[""lightred"",""darkgreenblue""]","5","low nameability","43","right","iti",""
"html-button-response","209","1105002","0.0-162.0","CAN_111","111","","","","","","400","","0","lightred","neonyellow","[""lightred"",""neonyellow"",""low nameability""]","left-right","[""lightred"",""neonyellow"",""low nameability""]","5","low nameability","44","left","trigger",""
"html-button-response","210","1105569","0.0-163.0-0.0","CAN_111","111","","","","","","559","<button class=""jspsych-btn""><img src=""stimuli/lightred.png"" style=""width: 200px;height: 200px;""></button>","0","lightred","neonyellow","[""lightred"",""neonyellow"",""low nameability""]","left-right","[""lightred"",""neonyellow"",""low nameability""]","5","low nameability","44","left","response","1"
"html-audio-button-response","211","1105772","0.0-163.0-1.0","CAN_111","111","","","","","","null","stimuli/bleep.m4a","null","lightred","neonyellow","[""lightred"",""neonyellow"",""low nameability""]","left-right","[""lightred"",""neonyellow"",""low nameability""]","5","low nameability","44","left","audio_feedback","1"
"html-button-response","212","1106294","0.0-164.0","CAN_111","111","","","","","","null","<button class=""jspsych-btn""><img src=""stimuli/white_square.png"" style=""width: 200px;height: 200px;""></button>","null","lightred","neonyellow","[""lightred"",""neonyellow"",""low nameability""]","left-right","[""lightred"",""neonyellow"",""low nameability""]","5","low nameability","44","left","iti",""
"html-button-response","213","1106715","0.0-165.0","CAN_111","111","","","","","","394","","0","purple","orange","[""purple"",""orange"",""high nameability""]","right-left","[""orange"",""purple""]","5","high nameability","45","right","trigger",""
"html-button-response","214","1107270","0.0-166.0-0.0","CAN_111","111","","","","","","547","<button class=""jspsych-btn""><img src=""stimuli/purple.png"" style=""width: 200px;height: 200px;""></button>","1","purple","orange","[""purple"",""orange"",""high nameability""]","right-left","[""orange"",""purple""]","5","high nameability","45","right","response","1"
"html-audio-button-response","215","1107477","0.0-166.0-1.0","CAN_111","111","","","","","","null","stimuli/bleep.m4a","null","purple","orange","[""purple"",""orange"",""high nameability""]","right-left","[""orange"",""purple""]","5","high nameability","45","right","audio_feedback","1"
"html-button-response","216","1107990","0.0-167.0","CAN_111","111","","","","","","null","<button class=""jspsych-btn""><img src=""stimuli/white_square.png"" style=""width: 200px;height: 200px;""></button>","null","purple","orange","[""purple"",""orange"",""high nameability""]","right-left","[""orange"",""purple""]","5","high nameability","45","right","iti",""
"html-button-response","217","1108458","0.0-168.0","CAN_111","111","","","","","","443","","0","red","blue","[""red"",""blue"",""high nameability""]","right-left","[""blue"",""red""]","5","high nameability","46","right","trigger",""
"html-button-response","218","1109170","0.0-169.0-0.0","CAN_111","111","","","","","","704","<button class=""jspsych-btn""><img src=""stimuli/red.png"" style=""width: 200px;height: 200px;""></button>","1","red","blue","[""red"",""blue"",""high nameability""]","right-left","[""blue"",""red""]","5","high nameability","46","right","response","1"
"html-audio-button-response","219","1109376","0.0-169.0-1.0","CAN_111","111","","","","","","null","stimuli/bleep.m4a","null","red","blue","[""red"",""blue"",""high nameability""]","right-left","[""blue"",""red""]","5","high nameability","46","right","audio_feedback","1"
"html-button-response","220","1109895","0.0-170.0","CAN_111","111","","","","","","null","<button class=""jspsych-btn""><img src=""stimuli/white_square.png"" style=""width: 200px;height: 200px;""></button>","null","red","blue","[""red"",""blue"",""high nameability""]","right-left","[""blue"",""red""]","5","high nameability","46","right","iti",""
"html-button-response","221","1110361","0.0-171.0","CAN_111","111","","","","","","450","","0","red","brown","[""red"",""brown"",""high nameability""]","left-right","[""red"",""brown"",""high nameability""]","5","high nameability","47","left","trigger",""
"html-button-response","222","1110941","0.0-172.0-0.0","CAN_111","111","","","","","","570","<button class=""jspsych-btn""><img src=""stimuli/red.png"" style=""width: 200px;height: 200px;""></button>","0","red","brown","[""red"",""brown"",""high nameability""]","left-right","[""red"",""brown"",""high nameability""]","5","high nameability","47","left","response","1"
"html-audio-button-response","223","1111145","0.0-172.0-1.0","CAN_111","111","","","","","","null","stimuli/bleep.m4a","null","red","brown","[""red"",""brown"",""high nameability""]","left-right","[""red"",""brown"",""high nameability""]","5","high nameability","47","left","audio_feedback","1"
"html-button-response","224","1111663","0.0-173.0","CAN_111","111","","","","","","null","<button class=""jspsych-btn""><img src=""stimuli/white_square.png"" style=""width: 200px;height: 200px;""></button>","null","red","brown","[""red"",""brown"",""high nameability""]","left-right","[""red"",""brown"",""high nameability""]","5","high nameability","47","left","iti",""
"html-button-response","225","1112127","0.0-174.0","CAN_111","111","","","","","","446","","0","yellow","brown","[""yellow"",""brown"",""high nameability""]","right-left","[""brown"",""yellow""]","5","high nameability","48","right","trigger",""
"html-button-response","226","1112757","0.0-175.0-0.0","CAN_111","111","","","","","","622","<button class=""jspsych-btn""><img src=""stimuli/yellow.png"" style=""width: 200px;height: 200px;""></button>","1","yellow","brown","[""yellow"",""brown"",""high nameability""]","right-left","[""brown"",""yellow""]","5","high nameability","48","right","response","1"
"html-audio-button-response","227","1112960","0.0-175.0-1.0","CAN_111","111","","","","","","null","stimuli/bleep.m4a","null","yellow","brown","[""yellow"",""brown"",""high nameability""]","right-left","[""brown"",""yellow""]","5","high nameability","48","right","audio_feedback","1"
"html-button-response","228","1113478","0.0-176.0","CAN_111","111","","","","","","null","<button class=""jspsych-btn""><img src=""stimuli/white_square.png"" style=""width: 200px;height: 200px;""></button>","null","yellow","brown","[""yellow"",""brown"",""high nameability""]","right-left","[""brown"",""yellow""]","5","high nameability","48","right","iti",""
"html-button-response","229","1113909","0.0-177.0","CAN_111","111","","","","","","414","","0","mustard","turquoise","[""mustard"",""turquoise"",""low nameability""]","left-right","[""mustard"",""turquoise"",""low nameability""]","5","low nameability","49","left","trigger",""
"html-button-response","230","1114538","0.0-178.0-0.0","CAN_111","111","","","","","","620","<button class=""jspsych-btn""><img src=""stimuli/mustard.png"" style=""width: 200px;height: 200px;""></button>","0","mustard","turquoise","[""mustard"",""turquoise"",""low nameability""]","left-right","[""mustard"",""turquoise"",""low nameability""]","5","low nameability","49","left","response","1"
"html-audio-button-response","231","1114743","0.0-178.0-1.0","CAN_111","111","","","","","","null","stimuli/bleep.m4a","null","mustard","turquoise","[""mustard"",""turquoise"",""low nameability""]","left-right","[""mustard"",""turquoise"",""low nameability""]","5","low nameability","49","left","audio_feedback","1"
"html-button-response","232","1115266","0.0-179.0","CAN_111","111","","","","","","null","<button class=""jspsych-btn""><img src=""stimuli/white_square.png"" style=""width: 200px;height: 200px;""></button>","null","mustard","turquoise","[""mustard"",""turquoise"",""low nameability""]","left-right","[""mustard"",""turquoise"",""low nameability""]","5","low nameability","49","left","iti",""
"html-button-response","233","1115691","0.0-180.0","CAN_111","111","","","","","","408","","0","darkgreenblue","mustard","[""darkgreenblue"",""mustard"",""low nameability""]","right-left","[""mustard"",""darkgreenblue""]","5","low nameability","50","right","trigger",""
"html-button-response","234","1116224","0.0-181.0-0.0","CAN_111","111","","","","","","525","<button class=""jspsych-btn""><img src=""stimuli/darkgreenblue.png"" style=""width: 200px;height: 200px;""></button>","1","darkgreenblue","mustard","[""darkgreenblue"",""mustard"",""low nameability""]","right-left","[""mustard"",""darkgreenblue""]","5","low nameability","50","right","response","1"
"html-audio-button-response","235","1116430","0.0-181.0-1.0","CAN_111","111","","","","","","null","stimuli/bleep.m4a","null","darkgreenblue","mustard","[""darkgreenblue"",""mustard"",""low nameability""]","right-left","[""mustard"",""darkgreenblue""]","5","low nameability","50","right","audio_feedback","1"
"html-button-response","236","1116956","0.0-182.0","CAN_111","111","","","","","","null","<button class=""jspsych-btn""><img src=""stimuli/white_square.png"" style=""width: 200px;height: 200px;""></button>","null","darkgreenblue","mustard","[""darkgreenblue"",""mustard"",""low nameability""]","right-left","[""mustard"",""darkgreenblue""]","5","low nameability","50","right","iti",""
"pavlovia","237","1117011","0.0-183.0","CAN_111","111","","","","","","","","","","","","","","","","","","",""
"pavlovia","238","1117019","0.0-184.0","CAN_111","111","","","","","","","","","","","","","","","","","","",""
"html-audio-button-response","239","1118650","0.0-185.0","CAN_111","111","","","","","","1696","stimuli/tada.m4a","0","","","","","","","","","","",""
"html-button-response","240","1119338","0.0-186.0","CAN_111","111","","","","","","682","","0","","","","","","","","","","",""
"html-button-response","241","1119984","0.0-187.0","CAN_111","111","","","","","","639","","0","turquoise","mustard","[""turquoise"",""mustard"",""low nameability""]","left-right","[""turquoise"",""mustard"",""low nameability""]","6","low nameability","51","left","trigger",""
"html-button-response","242","1120586","0.0-188.0-0.0","CAN_111","111","","","","","","595","<button class=""jspsych-btn""><img src=""stimuli/turquoise.png"" style=""width: 200px;height: 200px;""></button>","0","turquoise","mustard","[""turquoise"",""mustard"",""low nameability""]","left-right","[""turquoise"",""mustard"",""low nameability""]","6","low nameability","51","left","response","1"
"html-audio-button-response","243","1120788","0.0-188.0-1.0","CAN_111","111","","","","","","null","stimuli/bleep.m4a","null","turquoise","mustard","[""turquoise"",""mustard"",""low nameability""]","left-right","[""turquoise"",""mustard"",""low nameability""]","6","low nameability","51","left","audio_feedback","1"
"html-button-response","244","1121305","0.0-189.0","CAN_111","111","","","","","","null","<button class=""jspsych-btn""><img src=""stimuli/white_square.png"" style=""width: 200px;height: 200px;""></button>","null","turquoise","mustard","[""turquoise"",""mustard"",""low nameability""]","left-right","[""turquoise"",""mustard"",""low nameability""]","6","low nameability","51","left","iti",""
"html-button-response","245","1121725","0.0-190.0","CAN_111","111","","","","","","398","","0","mustard","pink","[""mustard"",""pink"",""low nameability""]","left-right","[""mustard"",""pink"",""low nameability""]","6","low nameability","52","left","trigger",""
"html-button-response","246","1122291","0.0-191.0-0.0","CAN_111","111","","","","","","558","<button class=""jspsych-btn""><img src=""stimuli/mustard.png"" style=""width: 200px;height: 200px;""></button>","0","mustard","pink","[""mustard"",""pink"",""low nameability""]","left-right","[""mustard"",""pink"",""low nameability""]","6","low nameability","52","left","response","1"
"html-audio-button-response","247","1122497","0.0-191.0-1.0","CAN_111","111","","","","","","null","stimuli/bleep.m4a","null","mustard","pink","[""mustard"",""pink"",""low nameability""]","left-right","[""mustard"",""pink"",""low nameability""]","6","low nameability","52","left","audio_feedback","1"
"html-button-response","248","1123016","0.0-192.0","CAN_111","111","","","","","","null","<button class=""jspsych-btn""><img src=""stimuli/white_square.png"" style=""width: 200px;height: 200px;""></button>","null","mustard","pink","[""mustard"",""pink"",""low nameability""]","left-right","[""mustard"",""pink"",""low nameability""]","6","low nameability","52","left","iti",""
"html-button-response","249","1123446","0.0-193.0","CAN_111","111","","","","","","418","","0","neonyellow","pink","[""neonyellow"",""pink"",""low nameability""]","right-left","[""pink"",""neonyellow""]","6","low nameability","53","right","trigger",""
"html-button-response","250","1123953","0.0-194.0-0.0","CAN_111","111","","","","","","498","<button class=""jspsych-btn""><img src=""stimuli/neonyellow.png"" style=""width: 200px;height: 200px;""></button>","1","neonyellow","pink","[""neonyellow"",""pink"",""low nameability""]","right-left","[""pink"",""neonyellow""]","6","low nameability","53","right","response","1"
"html-audio-button-response","251","1124161","0.0-194.0-1.0","CAN_111","111","","","","","","null","stimuli/bleep.m4a","null","neonyellow","pink","[""neonyellow"",""pink"",""low nameability""]","right-left","[""pink"",""neonyellow""]","6","low nameability","53","right","audio_feedback","1"
"html-button-response","252","1124681","0.0-195.0","CAN_111","111","","","","","","null","<button class=""jspsych-btn""><img src=""stimuli/white_square.png"" style=""width: 200px;height: 200px;""></button>","null","neonyellow","pink","[""neonyellow"",""pink"",""low nameability""]","right-left","[""pink"",""neonyellow""]","6","low nameability","53","right","iti",""
"html-button-response","253","1125095","0.0-196.0","CAN_111","111","","","","","","395","","0","turquoise","lightred","[""turquoise"",""lightred"",""low nameability""]","left-right","[""turquoise"",""lightred"",""low nameability""]","6","low nameability","54","left","trigger",""
"html-button-response","254","1125675","0.0-197.0-0.0","CAN_111","111","","","","","","574","<button class=""jspsych-btn""><img src=""stimuli/turquoise.png"" style=""width: 200px;height: 200px;""></button>","0","turquoise","lightred","[""turquoise"",""lightred"",""low nameability""]","left-right","[""turquoise"",""lightred"",""low nameability""]","6","low nameability","54","left","response","1"
"html-audio-button-response","255","1125877","0.0-197.0-1.0","CAN_111","111","","","","","","null","stimuli/bleep.m4a","null","turquoise","lightred","[""turquoise"",""lightred"",""low nameability""]","left-right","[""turquoise"",""lightred"",""low nameability""]","6","low nameability","54","left","audio_feedback","1"
"html-button-response","256","1126397","0.0-198.0","CAN_111","111","","","","","","null","<button class=""jspsych-btn""><img src=""stimuli/white_square.png"" style=""width: 200px;height: 200px;""></button>","null","turquoise","lightred","[""turquoise"",""lightred"",""low nameability""]","left-right","[""turquoise"",""lightred"",""low nameability""]","6","low nameability","54","left","iti",""
"html-button-response","257","1126878","0.0-199.0","CAN_111","111","","","","","","460","","0","pink","darkgreenblue","[""pink"",""darkgreenblue"",""low nameability""]","left-right","[""pink"",""darkgreenblue"",""low nameability""]","6","low nameability","55","left","trigger",""
"html-button-response","258","1128190","0.0-200.0-0.0","CAN_111","111","","","","","","1306","<button class=""jspsych-btn""><img src=""stimuli/pink.png"" style=""width: 200px;height: 200px;""></button>","0","pink","darkgreenblue","[""pink"",""darkgreenblue"",""low nameability""]","left-right","[""pink"",""darkgreenblue"",""low nameability""]","6","low nameability","55","left","response","1"
"html-audio-button-response","259","1128393","0.0-200.0-1.0","CAN_111","111","","","","","","null","stimuli/bleep.m4a","null","pink","darkgreenblue","[""pink"",""darkgreenblue"",""low nameability""]","left-right","[""pink"",""darkgreenblue"",""low nameability""]","6","low nameability","55","left","audio_feedback","1"
"html-button-response","260","1128907","0.0-201.0","CAN_111","111","","","","","","null","<button class=""jspsych-btn""><img src=""stimuli/white_square.png"" style=""width: 200px;height: 200px;""></button>","null","pink","darkgreenblue","[""pink"",""darkgreenblue"",""low nameability""]","left-right","[""pink"",""darkgreenblue"",""low nameability""]","6","low nameability","55","left","iti",""
"html-button-response","261","1129383","0.0-202.0","CAN_111","111","","","","","","456","","0","mustard","neonyellow","[""mustard"",""neonyellow"",""low nameability""]","left-right","[""mustard"",""neonyellow"",""low nameability""]","6","low nameability","56","left","trigger",""
"html-button-response","262","1130202","0.0-203.0-0.0","CAN_111","111","","","","","","812","<button class=""jspsych-btn""><img src=""stimuli/mustard.png"" style=""width: 200px;height: 200px;""></button>","0","mustard","neonyellow","[""mustard"",""neonyellow"",""low nameability""]","left-right","[""mustard"",""neonyellow"",""low nameability""]","6","low nameability","56","left","response","1"
"html-audio-button-response","263","1130409","0.0-203.0-1.0","CAN_111","111","","","","","","null","stimuli/bleep.m4a","null","mustard","neonyellow","[""mustard"",""neonyellow"",""low nameability""]","left-right","[""mustard"",""neonyellow"",""low nameability""]","6","low nameability","56","left","audio_feedback","1"
"html-button-response","264","1130934","0.0-204.0","CAN_111","111","","","","","","null","<button class=""jspsych-btn""><img src=""stimuli/white_square.png"" style=""width: 200px;height: 200px;""></button>","null","mustard","neonyellow","[""mustard"",""neonyellow"",""low nameability""]","left-right","[""mustard"",""neonyellow"",""low nameability""]","6","low nameability","56","left","iti",""
"html-button-response","265","1131356","0.0-205.0","CAN_111","111","","","","","","408","","0","brown","blue","[""brown"",""blue"",""high nameability""]","left-right","[""brown"",""blue"",""high nameability""]","6","high nameability","57","left","trigger",""
"html-button-response","266","1131922","0.0-206.0-0.0","CAN_111","111","","","","","","557","<button class=""jspsych-btn""><img src=""stimuli/brown.png"" style=""width: 200px;height: 200px;""></button>","0","brown","blue","[""brown"",""blue"",""high nameability""]","left-right","[""brown"",""blue"",""high nameability""]","6","high nameability","57","left","response","1"
"html-audio-button-response","267","1132124","0.0-206.0-1.0","CAN_111","111","","","","","","null","stimuli/bleep.m4a","null","brown","blue","[""brown"",""blue"",""high nameability""]","left-right","[""brown"",""blue"",""high nameability""]","6","high nameability","57","left","audio_feedback","1"
"html-button-response","268","1132637","0.0-207.0","CAN_111","111","","","","","","null","<button class=""jspsych-btn""><img src=""stimuli/white_square.png"" style=""width: 200px;height: 200px;""></button>","null","brown","blue","[""brown"",""blue"",""high nameability""]","left-right","[""brown"",""blue"",""high nameability""]","6","high nameability","57","left","iti",""
"html-button-response","269","1133062","0.0-208.0","CAN_111","111","","","","","","412","","0","neonyellow","darkgreenblue","[""neonyellow"",""darkgreenblue"",""low nameability""]","left-right","[""neonyellow"",""darkgreenblue"",""low nameability""]","6","low nameability","58","left","trigger",""
"html-button-response","270","1133667","0.0-209.0-0.0","CAN_111","111","","","","","","598","<button class=""jspsych-btn""><img src=""stimuli/neonyellow.png"" style=""width: 200px;height: 200px;""></button>","0","neonyellow","darkgreenblue","[""neonyellow"",""darkgreenblue"",""low nameability""]","left-right","[""neonyellow"",""darkgreenblue"",""low nameability""]","6","low nameability","58","left","response","1"
"html-audio-button-response","271","1133870","0.0-209.0-1.0","CAN_111","111","","","","","","null","stimuli/bleep.m4a","null","neonyellow","darkgreenblue","[""neonyellow"",""darkgreenblue"",""low nameability""]","left-right","[""neonyellow"",""darkgreenblue"",""low nameability""]","6","low nameability","58","left","audio_feedback","1"
"html-button-response","272","1134387","0.0-210.0","CAN_111","111","","","","","","null","<button class=""jspsych-btn""><img src=""stimuli/white_square.png"" style=""width: 200px;height: 200px;""></button>","null","neonyellow","darkgreenblue","[""neonyellow"",""darkgreenblue"",""low nameability""]","left-right","[""neonyellow"",""darkgreenblue"",""low nameability""]","6","low nameability","58","left","iti",""
"html-button-response","273","1134831","0.0-211.0","CAN_111","111","","","","","","423","","0","blue","purple","[""blue"",""purple"",""high nameability""]","right-left","[""purple"",""blue""]","6","high nameability","59","right","trigger",""
"html-button-response","274","1135404","0.0-212.0-0.0","CAN_111","111","","","","","","565","<button class=""jspsych-btn""><img src=""stimuli/blue.png"" style=""width: 200px;height: 200px;""></button>","1","blue","purple","[""blue"",""purple"",""high nameability""]","right-left","[""purple"",""blue""]","6","high nameability","59","right","response","1"
"html-audio-button-response","275","1135612","0.0-212.0-1.0","CAN_111","111","","","","","","null","stimuli/bleep.m4a","null","blue","purple","[""blue"",""purple"",""high nameability""]","right-left","[""purple"",""blue""]","6","high nameability","59","right","audio_feedback","1"
"html-button-response","276","1136131","0.0-213.0","CAN_111","111","","","","","","null","<button class=""jspsych-btn""><img src=""stimuli/white_square.png"" style=""width: 200px;height: 200px;""></button>","null","blue","purple","[""blue"",""purple"",""high nameability""]","right-left","[""purple"",""blue""]","6","high nameability","59","right","iti",""
"html-button-response","277","1136555","0.0-214.0","CAN_111","111","","","","","","406","","0","orange","red","[""orange"",""red"",""high nameability""]","left-right","[""orange"",""red"",""high nameability""]","6","high nameability","60","left","trigger",""
"html-button-response","278","1137096","0.0-215.0-0.0","CAN_111","111","","","","","","534","<button class=""jspsych-btn""><img src=""stimuli/orange.png"" style=""width: 200px;height: 200px;""></button>","0","orange","red","[""orange"",""red"",""high nameability""]","left-right","[""orange"",""red"",""high nameability""]","6","high nameability","60","left","response","1"
"html-audio-button-response","279","1137304","0.0-215.0-1.0","CAN_111","111","","","","","","null","stimuli/bleep.m4a","null","orange","red","[""orange"",""red"",""high nameability""]","left-right","[""orange"",""red"",""high nameability""]","6","high nameability","60","left","audio_feedback","1"
"html-button-response","280","1137818","0.0-216.0","CAN_111","111","","","","","","null","<button class=""jspsych-btn""><img src=""stimuli/white_square.png"" style=""width: 200px;height: 200px;""></button>","null","orange","red","[""orange"",""red"",""high nameability""]","left-right","[""orange"",""red"",""high nameability""]","6","high nameability","60","left","iti",""
