"trial_type","trial_index","time_elapsed","internal_node_id","subject_id","seed","success","timeout","failed_images","failed_audio","failed_video","rt","stimulus","response","target","foil","choices","combination_order","choices_in_order","round","condition","trial_counter","target_location","trial_kind","correct"
"pavlovia","0","26","0.0-0.0","CAN_133","133","","","","","","","","","","","","","","","","","","",""
"preload","1","700","0.0-1.0","CAN_133","133","true","false","[]","[]","[]","","","","","","","","","","","","","",""
"fullscreen","2","2857","0.0-2.0","CAN_133","133","true","","","","","","","","","","","","","","","","","",""
"html-button-response","3","79605","0.0-3.0","CAN_133","133","","","","","","76714","","0","","","","","","","","","","",""
"html-button-response","4","81038","0.0-4.0","CAN_133","133","","","","","","1420","","0","star","square","[""square"",""star""]","left-right","[""square"",""star""]","1","practice","1","right","trigger",""
"html-button-response","5","82132","0.0-5.0-0.0","CAN_133","133","","","","","","1077","<button class=""jspsych-btn""><img src=""stimuli/star.png"" style=""width: 200px;height: 200px;""></button>","1","star","square","[""square"",""star""]","left-right","[""square"",""star""]","1","practice","1","right","response","1"
"html-audio-button-response","6","82341","0.0-5.0-1.0","CAN_133","133","","","","","","null","stimuli/bleep.m4a","null","star","square","[""square"",""star""]","left-right","[""square"",""star""]","1","practice","1","right","audio_feedback","1"
"html-button-response","7","82876","0.0-6.0","CAN_133","133","","","","","","null","<button class=""jspsych-btn""><img src=""stimuli/white_square.png"" style=""width: 200px;height: 200px;""></button>","null","star","square","[""square"",""star""]","left-right","[""square"",""star""]","1","practice","1","right","iti",""
"html-button-response","8","84147","0.0-7.0","CAN_133","133","","","","","","1246","","0","triangle","pentagram","[""triangle"",""pentagram""]","left-right","[""triangle"",""pentagram""]","1","practice","1","left","trigger",""
"html-button-response","9","84926","0.0-8.0-0.0","CAN_133","133","","","","","","769","<button class=""jspsych-btn""><img src=""stimuli/triangle.png"" style=""width: 200px;height: 200px;""></button>","0","triangle","pentagram","[""triangle"",""pentagram""]","left-right","[""triangle"",""pentagram""]","1","practice","1","left","response","1"
"html-audio-button-response","10","85135","0.0-8.0-1.0","CAN_133","133","","","","","","null","stimuli/bleep.m4a","null","triangle","pentagram","[""triangle"",""pentagram""]","left-right","[""triangle"",""pentagram""]","1","practice","1","left","audio_feedback","1"
"html-button-response","11","85660","0.0-9.0","CAN_133","133","","","","","","null","<button class=""jspsych-btn""><img src=""stimuli/white_square.png"" style=""width: 200px;height: 200px;""></button>","null","triangle","pentagram","[""triangle"",""pentagram""]","left-right","[""triangle"",""pentagram""]","1","practice","1","left","iti",""
"html-button-response","12","86755","0.0-10.0","CAN_133","133","","","","","","1082","","0","diamond","rectangle","[""rectangle"",""diamond""]","left-right","[""rectangle"",""diamond""]","1","practice","1","right","trigger",""
"html-button-response","13","87393","0.0-11.0-0.0","CAN_133","133","","","","","","627","<button class=""jspsych-btn""><img src=""stimuli/diamond.png"" style=""width: 200px;height: 200px;""></button>","1","diamond","rectangle","[""rectangle"",""diamond""]","left-right","[""rectangle"",""diamond""]","1","practice","1","right","response","1"
"html-audio-button-response","14","87600","0.0-11.0-1.0","CAN_133","133","","","","","","null","stimuli/bleep.m4a","null","diamond","rectangle","[""rectangle"",""diamond""]","left-right","[""rectangle"",""diamond""]","1","practice","1","right","audio_feedback","1"
"html-button-response","15","88119","0.0-12.0","CAN_133","133","","","","","","null","<button class=""jspsych-btn""><img src=""stimuli/white_square.png"" style=""width: 200px;height: 200px;""></button>","null","diamond","rectangle","[""rectangle"",""diamond""]","left-right","[""rectangle"",""diamond""]","1","practice","1","right","iti",""
"html-button-response","16","88865","0.0-13.0","CAN_133","133","","","","","","728","","0","pentagram","star","[""pentagram"",""star""]","left-right","[""pentagram"",""star""]","1","practice","1","left","trigger",""
"html-button-response","17","89578","0.0-14.0-0.0","CAN_133","133","","","","","","701","<button class=""jspsych-btn""><img src=""stimuli/pentagram.png"" style=""width: 200px;height: 200px;""></button>","0","pentagram","star","[""pentagram"",""star""]","left-right","[""pentagram"",""star""]","1","practice","1","left","response","1"
"html-audio-button-response","18","89784","0.0-14.0-1.0","CAN_133","133","","","","","","null","stimuli/bleep.m4a","null","pentagram","star","[""pentagram"",""star""]","left-right","[""pentagram"",""star""]","1","practice","1","left","audio_feedback","1"
"html-button-response","19","90309","0.0-15.0","CAN_133","133","","","","","","null","<button class=""jspsych-btn""><img src=""stimuli/white_square.png"" style=""width: 200px;height: 200px;""></button>","null","pentagram","star","[""pentagram"",""star""]","left-right","[""pentagram"",""star""]","1","practice","1","left","iti",""
"html-button-response","20","97408","0.0-16.0","CAN_133","133","","","","","","7092","","0","","","","","","","","","","",""
"html-button-response","21","98782","0.0-17.0","CAN_133","133","","","","","","1364","","0","darkgreenblue","pink","[""darkgreenblue"",""pink"",""low nameability""]","right-left","[""pink"",""darkgreenblue""]","1","low nameability","1","right","trigger",""
"html-button-response","22","99323","0.0-18.0-0.0","CAN_133","133","","","","","","528","<button class=""jspsych-btn""><img src=""stimuli/darkgreenblue.png"" style=""width: 200px;height: 200px;""></button>","1","darkgreenblue","pink","[""darkgreenblue"",""pink"",""low nameability""]","right-left","[""pink"",""darkgreenblue""]","1","low nameability","1","right","response","1"
"html-audio-button-response","23","99527","0.0-18.0-1.0","CAN_133","133","","","","","","null","stimuli/bleep.m4a","null","darkgreenblue","pink","[""darkgreenblue"",""pink"",""low nameability""]","right-left","[""pink"",""darkgreenblue""]","1","low nameability","1","right","audio_feedback","1"
"html-button-response","24","100049","0.0-19.0","CAN_133","133","","","","","","null","<button class=""jspsych-btn""><img src=""stimuli/white_square.png"" style=""width: 200px;height: 200px;""></button>","null","darkgreenblue","pink","[""darkgreenblue"",""pink"",""low nameability""]","right-left","[""pink"",""darkgreenblue""]","1","low nameability","1","right","iti",""
"html-button-response","25","101121","0.0-20.0","CAN_133","133","","","","","","1055","","0","mustard","lightred","[""mustard"",""lightred"",""low nameability""]","left-right","[""mustard"",""lightred"",""low nameability""]","1","low nameability","2","left","trigger",""
"html-button-response","26","101688","0.0-21.0-0.0","CAN_133","133","","","","","","559","<button class=""jspsych-btn""><img src=""stimuli/mustard.png"" style=""width: 200px;height: 200px;""></button>","0","mustard","lightred","[""mustard"",""lightred"",""low nameability""]","left-right","[""mustard"",""lightred"",""low nameability""]","1","low nameability","2","left","response","1"
"html-audio-button-response","27","101894","0.0-21.0-1.0","CAN_133","133","","","","","","null","stimuli/bleep.m4a","null","mustard","lightred","[""mustard"",""lightred"",""low nameability""]","left-right","[""mustard"",""lightred"",""low nameability""]","1","low nameability","2","left","audio_feedback","1"
"html-button-response","28","102414","0.0-22.0","CAN_133","133","","","","","","null","<button class=""jspsych-btn""><img src=""stimuli/white_square.png"" style=""width: 200px;height: 200px;""></button>","null","mustard","lightred","[""mustard"",""lightred"",""low nameability""]","left-right","[""mustard"",""lightred"",""low nameability""]","1","low nameability","2","left","iti",""
"html-button-response","29","103319","0.0-23.0","CAN_133","133","","","","","","884","","0","red","yellow","[""red"",""yellow"",""high nameability""]","right-left","[""yellow"",""red""]","1","high nameability","3","right","trigger",""
"html-button-response","30","103922","0.0-24.0-0.0","CAN_133","133","","","","","","592","<button class=""jspsych-btn""><img src=""stimuli/red.png"" style=""width: 200px;height: 200px;""></button>","1","red","yellow","[""red"",""yellow"",""high nameability""]","right-left","[""yellow"",""red""]","1","high nameability","3","right","response","1"
"html-audio-button-response","31","104127","0.0-24.0-1.0","CAN_133","133","","","","","","null","stimuli/bleep.m4a","null","red","yellow","[""red"",""yellow"",""high nameability""]","right-left","[""yellow"",""red""]","1","high nameability","3","right","audio_feedback","1"
"html-button-response","32","104645","0.0-25.0","CAN_133","133","","","","","","null","<button class=""jspsych-btn""><img src=""stimuli/white_square.png"" style=""width: 200px;height: 200px;""></button>","null","red","yellow","[""red"",""yellow"",""high nameability""]","right-left","[""yellow"",""red""]","1","high nameability","3","right","iti",""
"html-button-response","33","105496","0.0-26.0","CAN_133","133","","","","","","824","","0","darkgreenblue","mustard","[""darkgreenblue"",""mustard"",""low nameability""]","left-right","[""darkgreenblue"",""mustard"",""low nameability""]","1","low nameability","4","left","trigger",""
"html-button-response","34","106050","0.0-27.0-0.0","CAN_133","133","","","","","","545","<button class=""jspsych-btn""><img src=""stimuli/darkgreenblue.png"" style=""width: 200px;height: 200px;""></button>","0","darkgreenblue","mustard","[""darkgreenblue"",""mustard"",""low nameability""]","left-right","[""darkgreenblue"",""mustard"",""low nameability""]","1","low nameability","4","left","response","1"
"html-audio-button-response","35","106256","0.0-27.0-1.0","CAN_133","133","","","","","","null","stimuli/bleep.m4a","null","darkgreenblue","mustard","[""darkgreenblue"",""mustard"",""low nameability""]","left-right","[""darkgreenblue"",""mustard"",""low nameability""]","1","low nameability","4","left","audio_feedback","1"
"html-button-response","36","106777","0.0-28.0","CAN_133","133","","","","","","null","<button class=""jspsych-btn""><img src=""stimuli/white_square.png"" style=""width: 200px;height: 200px;""></button>","null","darkgreenblue","mustard","[""darkgreenblue"",""mustard"",""low nameability""]","left-right","[""darkgreenblue"",""mustard"",""low nameability""]","1","low nameability","4","left","iti",""
"html-button-response","37","107699","0.0-29.0","CAN_133","133","","","","","","906","","0","purple","yellow","[""purple"",""yellow"",""high nameability""]","left-right","[""purple"",""yellow"",""high nameability""]","1","high nameability","5","left","trigger",""
"html-button-response","38","108212","0.0-30.0-0.0","CAN_133","133","","","","","","504","<button class=""jspsych-btn""><img src=""stimuli/purple.png"" style=""width: 200px;height: 200px;""></button>","0","purple","yellow","[""purple"",""yellow"",""high nameability""]","left-right","[""purple"",""yellow"",""high nameability""]","1","high nameability","5","left","response","1"
"html-audio-button-response","39","108419","0.0-30.0-1.0","CAN_133","133","","","","","","null","stimuli/bleep.m4a","null","purple","yellow","[""purple"",""yellow"",""high nameability""]","left-right","[""purple"",""yellow"",""high nameability""]","1","high nameability","5","left","audio_feedback","1"
"html-button-response","40","108937","0.0-31.0","CAN_133","133","","","","","","null","<button class=""jspsych-btn""><img src=""stimuli/white_square.png"" style=""width: 200px;height: 200px;""></button>","null","purple","yellow","[""purple"",""yellow"",""high nameability""]","left-right","[""purple"",""yellow"",""high nameability""]","1","high nameability","5","left","iti",""
"html-button-response","41","109810","0.0-32.0","CAN_133","133","","","","","","856","","0","blue","red","[""blue"",""red"",""high nameability""]","left-right","[""blue"",""red"",""high nameability""]","1","high nameability","6","left","trigger",""
"html-button-response","42","110354","0.0-33.0-0.0","CAN_133","133","","","","","","537","<button class=""jspsych-btn""><img src=""stimuli/blue.png"" style=""width: 200px;height: 200px;""></button>","0","blue","red","[""blue"",""red"",""high nameability""]","left-right","[""blue"",""red"",""high nameability""]","1","high nameability","6","left","response","1"
"html-audio-button-response","43","110559","0.0-33.0-1.0","CAN_133","133","","","","","","null","stimuli/bleep.m4a","null","blue","red","[""blue"",""red"",""high nameability""]","left-right","[""blue"",""red"",""high nameability""]","1","high nameability","6","left","audio_feedback","1"
"html-button-response","44","111075","0.0-34.0","CAN_133","133","","","","","","null","<button class=""jspsych-btn""><img src=""stimuli/white_square.png"" style=""width: 200px;height: 200px;""></button>","null","blue","red","[""blue"",""red"",""high nameability""]","left-right","[""blue"",""red"",""high nameability""]","1","high nameability","6","left","iti",""
"html-button-response","45","111895","0.0-35.0","CAN_133","133","","","","","","794","","0","blue","orange","[""blue"",""orange"",""high nameability""]","left-right","[""blue"",""orange"",""high nameability""]","1","high nameability","7","left","trigger",""
"html-button-response","46","112424","0.0-36.0-0.0","CAN_133","133","","","","","","518","<button class=""jspsych-btn""><img src=""stimuli/blue.png"" style=""width: 200px;height: 200px;""></button>","0","blue","orange","[""blue"",""orange"",""high nameability""]","left-right","[""blue"",""orange"",""high nameability""]","1","high nameability","7","left","response","1"
"html-audio-button-response","47","112633","0.0-36.0-1.0","CAN_133","133","","","","","","null","stimuli/bleep.m4a","null","blue","orange","[""blue"",""orange"",""high nameability""]","left-right","[""blue"",""orange"",""high nameability""]","1","high nameability","7","left","audio_feedback","1"
"html-button-response","48","113152","0.0-37.0","CAN_133","133","","","","","","null","<button class=""jspsych-btn""><img src=""stimuli/white_square.png"" style=""width: 200px;height: 200px;""></button>","null","blue","orange","[""blue"",""orange"",""high nameability""]","left-right","[""blue"",""orange"",""high nameability""]","1","high nameability","7","left","iti",""
"html-button-response","49","114009","0.0-38.0","CAN_133","133","","","","","","839","","0","mustard","turquoise","[""mustard"",""turquoise"",""low nameability""]","left-right","[""mustard"",""turquoise"",""low nameability""]","1","low nameability","8","left","trigger",""
"html-button-response","50","114588","0.0-39.0-0.0","CAN_133","133","","","","","","570","<button class=""jspsych-btn""><img src=""stimuli/mustard.png"" style=""width: 200px;height: 200px;""></button>","0","mustard","turquoise","[""mustard"",""turquoise"",""low nameability""]","left-right","[""mustard"",""turquoise"",""low nameability""]","1","low nameability","8","left","response","1"
"html-audio-button-response","51","114795","0.0-39.0-1.0","CAN_133","133","","","","","","null","stimuli/bleep.m4a","null","mustard","turquoise","[""mustard"",""turquoise"",""low nameability""]","left-right","[""mustard"",""turquoise"",""low nameability""]","1","low nameability","8","left","audio_feedback","1"
"html-button-response","52","115312","0.0-40.0","CAN_133","133","","","","","","null","<button class=""jspsych-btn""><img src=""stimuli/white_square.png"" style=""width: 200px;height: 200px;""></button>","null","mustard","turquoise","[""mustard"",""turquoise"",""low nameability""]","left-right","[""mustard"",""turquoise"",""low nameability""]","1","low nameability","8","left","iti",""
"html-button-response","53","116161","0.0-41.0","CAN_133","133","","","","","","820","","0","lightred","mustard","[""lightred"",""mustard"",""low nameability""]","left-right","[""lightred"",""mustard"",""low nameability""]","1","low nameability","9","left","trigger",""
"html-button-response","54","116776","0.0-42.0-0.0","CAN_133","133","","","","","","606","<button class=""jspsych-btn""><img src=""stimuli/lightred.png"" style=""width: 200px;height: 200px;""></button>","0","lightred","mustard","[""lightred"",""mustard"",""low nameability""]","left-right","[""lightred"",""mustard"",""low nameability""]","1","low nameability","9","left","response","1"
"html-audio-button-response","55","116985","0.0-42.0-1.0","CAN_133","133","","","","","","null","stimuli/bleep.m4a","null","lightred","mustard","[""lightred"",""mustard"",""low nameability""]","left-right","[""lightred"",""mustard"",""low nameability""]","1","low nameability","9","left","audio_feedback","1"
"html-button-response","56","117510","0.0-43.0","CAN_133","133","","","","","","null","<button class=""jspsych-btn""><img src=""stimuli/white_square.png"" style=""width: 200px;height: 200px;""></button>","null","lightred","mustard","[""lightred"",""mustard"",""low nameability""]","left-right","[""lightred"",""mustard"",""low nameability""]","1","low nameability","9","left","iti",""
"html-button-response","57","118195","0.0-44.0","CAN_133","133","","","","","","669","","0","red","purple","[""red"",""purple"",""high nameability""]","right-left","[""purple"",""red""]","1","high nameability","10","right","trigger",""
"html-button-response","58","118725","0.0-45.0-0.0","CAN_133","133","","","","","","521","<button class=""jspsych-btn""><img src=""stimuli/red.png"" style=""width: 200px;height: 200px;""></button>","1","red","purple","[""red"",""purple"",""high nameability""]","right-left","[""purple"",""red""]","1","high nameability","10","right","response","1"
"html-audio-button-response","59","118932","0.0-45.0-1.0","CAN_133","133","","","","","","null","stimuli/bleep.m4a","null","red","purple","[""red"",""purple"",""high nameability""]","right-left","[""purple"",""red""]","1","high nameability","10","right","audio_feedback","1"
"html-button-response","60","119453","0.0-46.0","CAN_133","133","","","","","","null","<button class=""jspsych-btn""><img src=""stimuli/white_square.png"" style=""width: 200px;height: 200px;""></button>","null","red","purple","[""red"",""purple"",""high nameability""]","right-left","[""purple"",""red""]","1","high nameability","10","right","iti",""
"pavlovia","61","119567","0.0-47.0","CAN_133","133","","","","","","","","","","","","","","","","","","",""
"pavlovia","62","119581","0.0-48.0","CAN_133","133","","","","","","","","","","","","","","","","","","",""
"html-audio-button-response","63","121045","0.0-49.0","CAN_133","133","","","","","","1584","stimuli/tada.m4a","0","","","","","","","","","","",""
"html-button-response","64","121640","0.0-50.0","CAN_133","133","","","","","","588","","0","","","","","","","","","","",""
"html-button-response","65","123634","0.0-51.0","CAN_133","133","","","","","","1985","","0","red","blue","[""red"",""blue"",""high nameability""]","right-left","[""blue"",""red""]","2","high nameability","11","right","trigger",""
"html-button-response","66","124180","0.0-52.0-0.0","CAN_133","133","","","","","","537","<button class=""jspsych-btn""><img src=""stimuli/red.png"" style=""width: 200px;height: 200px;""></button>","1","red","blue","[""red"",""blue"",""high nameability""]","right-left","[""blue"",""red""]","2","high nameability","11","right","response","1"
"html-audio-button-response","67","124383","0.0-52.0-1.0","CAN_133","133","","","","","","null","stimuli/bleep.m4a","null","red","blue","[""red"",""blue"",""high nameability""]","right-left","[""blue"",""red""]","2","high nameability","11","right","audio_feedback","1"
"html-button-response","68","124900","0.0-53.0","CAN_133","133","","","","","","null","<button class=""jspsych-btn""><img src=""stimuli/white_square.png"" style=""width: 200px;height: 200px;""></button>","null","red","blue","[""red"",""blue"",""high nameability""]","right-left","[""blue"",""red""]","2","high nameability","11","right","iti",""
"html-button-response","69","125773","0.0-54.0","CAN_133","133","","","","","","852","","0","turquoise","neonyellow","[""turquoise"",""neonyellow"",""low nameability""]","right-left","[""neonyellow"",""turquoise""]","2","low nameability","12","right","trigger",""
"html-button-response","70","126380","0.0-55.0-0.0","CAN_133","133","","","","","","599","<button class=""jspsych-btn""><img src=""stimuli/turquoise.png"" style=""width: 200px;height: 200px;""></button>","1","turquoise","neonyellow","[""turquoise"",""neonyellow"",""low nameability""]","right-left","[""neonyellow"",""turquoise""]","2","low nameability","12","right","response","1"
"html-audio-button-response","71","126587","0.0-55.0-1.0","CAN_133","133","","","","","","null","stimuli/bleep.m4a","null","turquoise","neonyellow","[""turquoise"",""neonyellow"",""low nameability""]","right-left","[""neonyellow"",""turquoise""]","2","low nameability","12","right","audio_feedback","1"
"html-button-response","72","127104","0.0-56.0","CAN_133","133","","","","","","null","<button class=""jspsych-btn""><img src=""stimuli/white_square.png"" style=""width: 200px;height: 200px;""></button>","null","turquoise","neonyellow","[""turquoise"",""neonyellow"",""low nameability""]","right-left","[""neonyellow"",""turquoise""]","2","low nameability","12","right","iti",""
"html-button-response","73","127842","0.0-57.0","CAN_133","133","","","","","","721","","0","yellow","orange","[""yellow"",""orange"",""high nameability""]","left-right","[""yellow"",""orange"",""high nameability""]","2","high nameability","13","left","trigger",""
"html-button-response","74","128375","0.0-58.0-0.0","CAN_133","133","","","","","","523","<button class=""jspsych-btn""><img src=""stimuli/yellow.png"" style=""width: 200px;height: 200px;""></button>","0","yellow","orange","[""yellow"",""orange"",""high nameability""]","left-right","[""yellow"",""orange"",""high nameability""]","2","high nameability","13","left","response","1"
"html-audio-button-response","75","128583","0.0-58.0-1.0","CAN_133","133","","","","","","null","stimuli/bleep.m4a","null","yellow","orange","[""yellow"",""orange"",""high nameability""]","left-right","[""yellow"",""orange"",""high nameability""]","2","high nameability","13","left","audio_feedback","1"
"html-button-response","76","129101","0.0-59.0","CAN_133","133","","","","","","null","<button class=""jspsych-btn""><img src=""stimuli/white_square.png"" style=""width: 200px;height: 200px;""></button>","null","yellow","orange","[""yellow"",""orange"",""high nameability""]","left-right","[""yellow"",""orange"",""high nameability""]","2","high nameability","13","left","iti",""
"html-button-response","77","130009","0.0-60.0","CAN_133","133","","","","","","890","","0","pink","lightred","[""pink"",""lightred"",""low nameability""]","right-left","[""lightred"",""pink""]","2","low nameability","14","right","trigger",""
"html-button-response","78","130889","0.0-61.0-0.0","CAN_133","133","","","","","","869","<button class=""jspsych-btn""><img src=""stimuli/pink.png"" style=""width: 200px;height: 200px;""></button>","1","pink","lightred","[""pink"",""lightred"",""low nameability""]","right-left","[""lightred"",""pink""]","2","low nameability","14","right","response","1"
"html-audio-button-response","79","131091","0.0-61.0-1.0","CAN_133","133","","","","","","null","stimuli/bleep.m4a","null","pink","lightred","[""pink"",""lightred"",""low nameability""]","right-left","[""lightred"",""pink""]","2","low nameability","14","right","audio_feedback","1"
"html-button-response","80","131606","0.0-62.0","CAN_133","133","","","","","","null","<button class=""jspsych-btn""><img src=""stimuli/white_square.png"" style=""width: 200px;height: 200px;""></button>","null","pink","lightred","[""pink"",""lightred"",""low nameability""]","right-left","[""lightred"",""pink""]","2","low nameability","14","right","iti",""
"html-button-response","81","132604","0.0-63.0","CAN_133","133","","","","","","980","","0","orange","yellow","[""orange"",""yellow"",""high nameability""]","left-right","[""orange"",""yellow"",""high nameability""]","2","high nameability","15","left","trigger",""
"html-button-response","82","133172","0.0-64.0-0.0","CAN_133","133","","","","","","561","<button class=""jspsych-btn""><img src=""stimuli/orange.png"" style=""width: 200px;height: 200px;""></button>","0","orange","yellow","[""orange"",""yellow"",""high nameability""]","left-right","[""orange"",""yellow"",""high nameability""]","2","high nameability","15","left","response","1"
"html-audio-button-response","83","133377","0.0-64.0-1.0","CAN_133","133","","","","","","null","stimuli/bleep.m4a","null","orange","yellow","[""orange"",""yellow"",""high nameability""]","left-right","[""orange"",""yellow"",""high nameability""]","2","high nameability","15","left","audio_feedback","1"
"html-button-response","84","133896","0.0-65.0","CAN_133","133","","","","","","null","<button class=""jspsych-btn""><img src=""stimuli/white_square.png"" style=""width: 200px;height: 200px;""></button>","null","orange","yellow","[""orange"",""yellow"",""high nameability""]","left-right","[""orange"",""yellow"",""high nameability""]","2","high nameability","15","left","iti",""
"html-button-response","85","135183","0.0-66.0","CAN_133","133","","","","","","1273","","0","pink","mustard","[""pink"",""mustard"",""low nameability""]","right-left","[""mustard"",""pink""]","2","low nameability","16","right","trigger",""
"html-button-response","86","135717","0.0-67.0-0.0","CAN_133","133","","","","","","527","<button class=""jspsych-btn""><img src=""stimuli/pink.png"" style=""width: 200px;height: 200px;""></button>","1","pink","mustard","[""pink"",""mustard"",""low nameability""]","right-left","[""mustard"",""pink""]","2","low nameability","16","right","response","1"
"html-audio-button-response","87","135923","0.0-67.0-1.0","CAN_133","133","","","","","","null","stimuli/bleep.m4a","null","pink","mustard","[""pink"",""mustard"",""low nameability""]","right-left","[""mustard"",""pink""]","2","low nameability","16","right","audio_feedback","1"
"html-button-response","88","136444","0.0-68.0","CAN_133","133","","","","","","null","<button class=""jspsych-btn""><img src=""stimuli/white_square.png"" style=""width: 200px;height: 200px;""></button>","null","pink","mustard","[""pink"",""mustard"",""low nameability""]","right-left","[""mustard"",""pink""]","2","low nameability","16","right","iti",""
"html-button-response","89","137160","0.0-69.0","CAN_133","133","","","","","","699","","0","neonyellow","darkgreenblue","[""neonyellow"",""darkgreenblue"",""low nameability""]","left-right","[""neonyellow"",""darkgreenblue"",""low nameability""]","2","low nameability","17","left","trigger",""
"html-button-response","90","137725","0.0-70.0-0.0","CAN_133","133","","","","","","556","<button class=""jspsych-btn""><img src=""stimuli/neonyellow.png"" style=""width: 200px;height: 200px;""></button>","0","neonyellow","darkgreenblue","[""neonyellow"",""darkgreenblue"",""low nameability""]","left-right","[""neonyellow"",""darkgreenblue"",""low nameability""]","2","low nameability","17","left","response","1"
"html-audio-button-response","91","137932","0.0-70.0-1.0","CAN_133","133","","","","","","null","stimuli/bleep.m4a","null","neonyellow","darkgreenblue","[""neonyellow"",""darkgreenblue"",""low nameability""]","left-right","[""neonyellow"",""darkgreenblue"",""low nameability""]","2","low nameability","17","left","audio_feedback","1"
"html-button-response","92","138455","0.0-71.0","CAN_133","133","","","","","","null","<button class=""jspsych-btn""><img src=""stimuli/white_square.png"" style=""width: 200px;height: 200px;""></button>","null","neonyellow","darkgreenblue","[""neonyellow"",""darkgreenblue"",""low nameability""]","left-right","[""neonyellow"",""darkgreenblue"",""low nameability""]","2","low nameability","17","left","iti",""
"html-button-response","93","139299","0.0-72.0","CAN_133","133","","","","","","825","","0","neonyellow","pink","[""neonyellow"",""pink"",""low nameability""]","right-left","[""pink"",""neonyellow""]","2","low nameability","18","right","trigger",""
"html-button-response","94","139825","0.0-73.0-0.0","CAN_133","133","","","","","","513","<button class=""jspsych-btn""><img src=""stimuli/neonyellow.png"" style=""width: 200px;height: 200px;""></button>","1","neonyellow","pink","[""neonyellow"",""pink"",""low nameability""]","right-left","[""pink"",""neonyellow""]","2","low nameability","18","right","response","1"
"html-audio-button-response","95","140031","0.0-73.0-1.0","CAN_133","133","","","","","","null","stimuli/bleep.m4a","null","neonyellow","pink","[""neonyellow"",""pink"",""low nameability""]","right-left","[""pink"",""neonyellow""]","2","low nameability","18","right","audio_feedback","1"
"html-button-response","96","140556","0.0-74.0","CAN_133","133","","","","","","null","<button class=""jspsych-btn""><img src=""stimuli/white_square.png"" style=""width: 200px;height: 200px;""></button>","null","neonyellow","pink","[""neonyellow"",""pink"",""low nameability""]","right-left","[""pink"",""neonyellow""]","2","low nameability","18","right","iti",""
"html-button-response","97","141308","0.0-75.0","CAN_133","133","","","","","","734","","0","neonyellow","turquoise","[""neonyellow"",""turquoise"",""low nameability""]","left-right","[""neonyellow"",""turquoise"",""low nameability""]","2","low nameability","19","left","trigger",""
"html-button-response","98","142549","0.0-76.0-0.0","CAN_133","133","","","","","","1234","<button class=""jspsych-btn""><img src=""stimuli/neonyellow.png"" style=""width: 200px;height: 200px;""></button>","0","neonyellow","turquoise","[""neonyellow"",""turquoise"",""low nameability""]","left-right","[""neonyellow"",""turquoise"",""low nameability""]","2","low nameability","19","left","response","1"
"html-audio-button-response","99","142755","0.0-76.0-1.0","CAN_133","133","","","","","","null","stimuli/bleep.m4a","null","neonyellow","turquoise","[""neonyellow"",""turquoise"",""low nameability""]","left-right","[""neonyellow"",""turquoise"",""low nameability""]","2","low nameability","19","left","audio_feedback","1"
"html-button-response","100","143278","0.0-77.0","CAN_133","133","","","","","","null","<button class=""jspsych-btn""><img src=""stimuli/white_square.png"" style=""width: 200px;height: 200px;""></button>","null","neonyellow","turquoise","[""neonyellow"",""turquoise"",""low nameability""]","left-right","[""neonyellow"",""turquoise"",""low nameability""]","2","low nameability","19","left","iti",""
"html-button-response","101","144198","0.0-78.0","CAN_133","133","","","","","","898","","0","blue","purple","[""blue"",""purple"",""high nameability""]","right-left","[""purple"",""blue""]","2","high nameability","20","right","trigger",""
"html-button-response","102","144690","0.0-79.0-0.0","CAN_133","133","","","","","","482","<button class=""jspsych-btn""><img src=""stimuli/blue.png"" style=""width: 200px;height: 200px;""></button>","1","blue","purple","[""blue"",""purple"",""high nameability""]","right-left","[""purple"",""blue""]","2","high nameability","20","right","response","1"
"html-audio-button-response","103","144895","0.0-79.0-1.0","CAN_133","133","","","","","","null","stimuli/bleep.m4a","null","blue","purple","[""blue"",""purple"",""high nameability""]","right-left","[""purple"",""blue""]","2","high nameability","20","right","audio_feedback","1"
"html-button-response","104","145411","0.0-80.0","CAN_133","133","","","","","","null","<button class=""jspsych-btn""><img src=""stimuli/white_square.png"" style=""width: 200px;height: 200px;""></button>","null","blue","purple","[""blue"",""purple"",""high nameability""]","right-left","[""purple"",""blue""]","2","high nameability","20","right","iti",""
"pavlovia","105","145493","0.0-81.0","CAN_133","133","","","","","","","","","","","","","","","","","","",""
"pavlovia","106","145506","0.0-82.0","CAN_133","133","","","","","","","","","","","","","","","","","","",""
"html-audio-button-response","107","146885","0.0-83.0","CAN_133","133","","","","","","1472","stimuli/tada.m4a","0","","","","","","","","","","",""
"html-button-response","108","147487","0.0-84.0","CAN_133","133","","","","","","596","","0","","","","","","","","","","",""
"html-button-response","109","149148","0.0-85.0","CAN_133","133","","","","","","1654","","0","purple","blue","[""purple"",""blue"",""high nameability""]","right-left","[""blue"",""purple""]","3","high nameability","21","right","trigger",""
"html-button-response","110","149737","0.0-86.0-0.0","CAN_133","133","","","","","","581","<button class=""jspsych-btn""><img src=""stimuli/purple.png"" style=""width: 200px;height: 200px;""></button>","1","purple","blue","[""purple"",""blue"",""high nameability""]","right-left","[""blue"",""purple""]","3","high nameability","21","right","response","1"
"html-audio-button-response","111","149943","0.0-86.0-1.0","CAN_133","133","","","","","","null","stimuli/bleep.m4a","null","purple","blue","[""purple"",""blue"",""high nameability""]","right-left","[""blue"",""purple""]","3","high nameability","21","right","audio_feedback","1"
"html-button-response","112","150469","0.0-87.0","CAN_133","133","","","","","","null","<button class=""jspsych-btn""><img src=""stimuli/white_square.png"" style=""width: 200px;height: 200px;""></button>","null","purple","blue","[""purple"",""blue"",""high nameability""]","right-left","[""blue"",""purple""]","3","high nameability","21","right","iti",""
"html-button-response","113","151248","0.0-88.0","CAN_133","133","","","","","","764","","0","mustard","pink","[""mustard"",""pink"",""low nameability""]","right-left","[""pink"",""mustard""]","3","low nameability","22","right","trigger",""
"html-button-response","114","151758","0.0-89.0-0.0","CAN_133","133","","","","","","500","<button class=""jspsych-btn""><img src=""stimuli/mustard.png"" style=""width: 200px;height: 200px;""></button>","1","mustard","pink","[""mustard"",""pink"",""low nameability""]","right-left","[""pink"",""mustard""]","3","low nameability","22","right","response","1"
"html-audio-button-response","115","151962","0.0-89.0-1.0","CAN_133","133","","","","","","null","stimuli/bleep.m4a","null","mustard","pink","[""mustard"",""pink"",""low nameability""]","right-left","[""pink"",""mustard""]","3","low nameability","22","right","audio_feedback","1"
"html-button-response","116","152484","0.0-90.0","CAN_133","133","","","","","","null","<button class=""jspsych-btn""><img src=""stimuli/white_square.png"" style=""width: 200px;height: 200px;""></button>","null","mustard","pink","[""mustard"",""pink"",""low nameability""]","right-left","[""pink"",""mustard""]","3","low nameability","22","right","iti",""
"html-button-response","117","153209","0.0-91.0","CAN_133","133","","","","","","709","","0","pink","darkgreenblue","[""pink"",""darkgreenblue"",""low nameability""]","right-left","[""darkgreenblue"",""pink""]","3","low nameability","23","right","trigger",""
"html-button-response","118","153738","0.0-92.0-0.0","CAN_133","133","","","","","","520","<button class=""jspsych-btn""><img src=""stimuli/pink.png"" style=""width: 200px;height: 200px;""></button>","1","pink","darkgreenblue","[""pink"",""darkgreenblue"",""low nameability""]","right-left","[""darkgreenblue"",""pink""]","3","low nameability","23","right","response","1"
"html-audio-button-response","119","153943","0.0-92.0-1.0","CAN_133","133","","","","","","null","stimuli/bleep.m4a","null","pink","darkgreenblue","[""pink"",""darkgreenblue"",""low nameability""]","right-left","[""darkgreenblue"",""pink""]","3","low nameability","23","right","audio_feedback","1"
"html-button-response","120","154461","0.0-93.0","CAN_133","133","","","","","","null","<button class=""jspsych-btn""><img src=""stimuli/white_square.png"" style=""width: 200px;height: 200px;""></button>","null","pink","darkgreenblue","[""pink"",""darkgreenblue"",""low nameability""]","right-left","[""darkgreenblue"",""pink""]","3","low nameability","23","right","iti",""
"html-button-response","121","155136","0.0-94.0","CAN_133","133","","","","","","658","","0","turquoise","lightred","[""turquoise"",""lightred"",""low nameability""]","left-right","[""turquoise"",""lightred"",""low nameability""]","3","low nameability","24","left","trigger",""
"html-button-response","122","155641","0.0-95.0-0.0","CAN_133","133","","","","","","497","<button class=""jspsych-btn""><img src=""stimuli/turquoise.png"" style=""width: 200px;height: 200px;""></button>","0","turquoise","lightred","[""turquoise"",""lightred"",""low nameability""]","left-right","[""turquoise"",""lightred"",""low nameability""]","3","low nameability","24","left","response","1"
"html-audio-button-response","123","155843","0.0-95.0-1.0","CAN_133","133","","","","","","null","stimuli/bleep.m4a","null","turquoise","lightred","[""turquoise"",""lightred"",""low nameability""]","left-right","[""turquoise"",""lightred"",""low nameability""]","3","low nameability","24","left","audio_feedback","1"
"html-button-response","124","156363","0.0-96.0","CAN_133","133","","","","","","null","<button class=""jspsych-btn""><img src=""stimuli/white_square.png"" style=""width: 200px;height: 200px;""></button>","null","turquoise","lightred","[""turquoise"",""lightred"",""low nameability""]","left-right","[""turquoise"",""lightred"",""low nameability""]","3","low nameability","24","left","iti",""
"html-button-response","125","157249","0.0-97.0","CAN_133","133","","","","","","868","","0","mustard","neonyellow","[""mustard"",""neonyellow"",""low nameability""]","left-right","[""mustard"",""neonyellow"",""low nameability""]","3","low nameability","25","left","trigger",""
"html-button-response","126","157707","0.0-98.0-0.0","CAN_133","133","","","","","","450","<button class=""jspsych-btn""><img src=""stimuli/mustard.png"" style=""width: 200px;height: 200px;""></button>","1","mustard","neonyellow","[""mustard"",""neonyellow"",""low nameability""]","left-right","[""mustard"",""neonyellow"",""low nameability""]","3","low nameability","25","left","response","0"
"html-audio-button-response","127","158338","0.0-98.0-1.0","CAN_133","133","","","","","","null","stimuli/boing.m4a","null","mustard","neonyellow","[""mustard"",""neonyellow"",""low nameability""]","left-right","[""mustard"",""neonyellow"",""low nameability""]","3","low nameability","25","left","audio_feedback","0"
"html-button-response","128","159097","0.0-98.1-0.1","CAN_133","133","","","","","","737","<button class=""jspsych-btn""><img src=""stimuli/mustard.png"" style=""width: 200px;height: 200px;""></button>","0","mustard","neonyellow","[""mustard"",""neonyellow"",""low nameability""]","left-right","[""mustard"",""neonyellow"",""low nameability""]","3","low nameability","25","left","response","1"
"html-audio-button-response","129","159305","0.0-98.1-1.1","CAN_133","133","","","","","","null","stimuli/bleep.m4a","null","mustard","neonyellow","[""mustard"",""neonyellow"",""low nameability""]","left-right","[""mustard"",""neonyellow"",""low nameability""]","3","low nameability","25","left","audio_feedback","1"
"html-button-response","130","159833","0.0-99.0","CAN_133","133","","","","","","null","<button class=""jspsych-btn""><img src=""stimuli/white_square.png"" style=""width: 200px;height: 200px;""></button>","null","mustard","neonyellow","[""mustard"",""neonyellow"",""low nameability""]","left-right","[""mustard"",""neonyellow"",""low nameability""]","3","low nameability","25","left","iti",""
"html-button-response","131","160735","0.0-100.0","CAN_133","133","","","","","","881","","0","purple","brown","[""purple"",""brown"",""high nameability""]","right-left","[""brown"",""purple""]","3","high nameability","26","right","trigger",""
"html-button-response","132","161277","0.0-101.0-0.0","CAN_133","133","","","","","","532","<button class=""jspsych-btn""><img src=""stimuli/purple.png"" style=""width: 200px;height: 200px;""></button>","1","purple","brown","[""purple"",""brown"",""high nameability""]","right-left","[""brown"",""purple""]","3","high nameability","26","right","response","1"
"html-audio-button-response","133","161479","0.0-101.0-1.0","CAN_133","133","","","","","","null","stimuli/bleep.m4a","null","purple","brown","[""purple"",""brown"",""high nameability""]","right-left","[""brown"",""purple""]","3","high nameability","26","right","audio_feedback","1"
"html-button-response","134","161999","0.0-102.0","CAN_133","133","","","","","","null","<button class=""jspsych-btn""><img src=""stimuli/white_square.png"" style=""width: 200px;height: 200px;""></button>","null","purple","brown","[""purple"",""brown"",""high nameability""]","right-left","[""brown"",""purple""]","3","high nameability","26","right","iti",""
"html-button-response","135","162755","0.0-103.0","CAN_133","133","","","","","","739","","0","yellow","brown","[""yellow"",""brown"",""high nameability""]","left-right","[""yellow"",""brown"",""high nameability""]","3","high nameability","27","left","trigger",""
"html-button-response","136","163309","0.0-104.0-0.0","CAN_133","133","","","","","","545","<button class=""jspsych-btn""><img src=""stimuli/yellow.png"" style=""width: 200px;height: 200px;""></button>","0","yellow","brown","[""yellow"",""brown"",""high nameability""]","left-right","[""yellow"",""brown"",""high nameability""]","3","high nameability","27","left","response","1"
"html-audio-button-response","137","163516","0.0-104.0-1.0","CAN_133","133","","","","","","null","stimuli/bleep.m4a","null","yellow","brown","[""yellow"",""brown"",""high nameability""]","left-right","[""yellow"",""brown"",""high nameability""]","3","high nameability","27","left","audio_feedback","1"
"html-button-response","138","164043","0.0-105.0","CAN_133","133","","","","","","null","<button class=""jspsych-btn""><img src=""stimuli/white_square.png"" style=""width: 200px;height: 200px;""></button>","null","yellow","brown","[""yellow"",""brown"",""high nameability""]","left-right","[""yellow"",""brown"",""high nameability""]","3","high nameability","27","left","iti",""
"html-button-response","139","164908","0.0-106.0","CAN_133","133","","","","","","849","","0","lightred","pink","[""lightred"",""pink"",""low nameability""]","right-left","[""pink"",""lightred""]","3","low nameability","28","right","trigger",""
"html-button-response","140","165412","0.0-107.0-0.0","CAN_133","133","","","","","","495","<button class=""jspsych-btn""><img src=""stimuli/lightred.png"" style=""width: 200px;height: 200px;""></button>","1","lightred","pink","[""lightred"",""pink"",""low nameability""]","right-left","[""pink"",""lightred""]","3","low nameability","28","right","response","1"
"html-audio-button-response","141","165616","0.0-107.0-1.0","CAN_133","133","","","","","","null","stimuli/bleep.m4a","null","lightred","pink","[""lightred"",""pink"",""low nameability""]","right-left","[""pink"",""lightred""]","3","low nameability","28","right","audio_feedback","1"
"html-button-response","142","166139","0.0-108.0","CAN_133","133","","","","","","null","<button class=""jspsych-btn""><img src=""stimuli/white_square.png"" style=""width: 200px;height: 200px;""></button>","null","lightred","pink","[""lightred"",""pink"",""low nameability""]","right-left","[""pink"",""lightred""]","3","low nameability","28","right","iti",""
"html-button-response","143","166915","0.0-109.0","CAN_133","133","","","","","","759","","0","lightred","darkgreenblue","[""lightred"",""darkgreenblue"",""low nameability""]","left-right","[""lightred"",""darkgreenblue"",""low nameability""]","3","low nameability","29","left","trigger",""
"html-button-response","144","167446","0.0-110.0-0.0","CAN_133","133","","","","","","521","<button class=""jspsych-btn""><img src=""stimuli/lightred.png"" style=""width: 200px;height: 200px;""></button>","0","lightred","darkgreenblue","[""lightred"",""darkgreenblue"",""low nameability""]","left-right","[""lightred"",""darkgreenblue"",""low nameability""]","3","low nameability","29","left","response","1"
"html-audio-button-response","145","167652","0.0-110.0-1.0","CAN_133","133","","","","","","null","stimuli/bleep.m4a","null","lightred","darkgreenblue","[""lightred"",""darkgreenblue"",""low nameability""]","left-right","[""lightred"",""darkgreenblue"",""low nameability""]","3","low nameability","29","left","audio_feedback","1"
"html-button-response","146","168175","0.0-111.0","CAN_133","133","","","","","","null","<button class=""jspsych-btn""><img src=""stimuli/white_square.png"" style=""width: 200px;height: 200px;""></button>","null","lightred","darkgreenblue","[""lightred"",""darkgreenblue"",""low nameability""]","left-right","[""lightred"",""darkgreenblue"",""low nameability""]","3","low nameability","29","left","iti",""
"html-button-response","147","168948","0.0-112.0","CAN_133","133","","","","","","754","","0","turquoise","mustard","[""turquoise"",""mustard"",""low nameability""]","right-left","[""mustard"",""turquoise""]","3","low nameability","30","right","trigger",""
"html-button-response","148","169479","0.0-113.0-0.0","CAN_133","133","","","","","","524","<button class=""jspsych-btn""><img src=""stimuli/turquoise.png"" style=""width: 200px;height: 200px;""></button>","1","turquoise","mustard","[""turquoise"",""mustard"",""low nameability""]","right-left","[""mustard"",""turquoise""]","3","low nameability","30","right","response","1"
"html-audio-button-response","149","169683","0.0-113.0-1.0","CAN_133","133","","","","","","null","stimuli/bleep.m4a","null","turquoise","mustard","[""turquoise"",""mustard"",""low nameability""]","right-left","[""mustard"",""turquoise""]","3","low nameability","30","right","audio_feedback","1"
"html-button-response","150","170208","0.0-114.0","CAN_133","133","","","","","","null","<button class=""jspsych-btn""><img src=""stimuli/white_square.png"" style=""width: 200px;height: 200px;""></button>","null","turquoise","mustard","[""turquoise"",""mustard"",""low nameability""]","right-left","[""mustard"",""turquoise""]","3","low nameability","30","right","iti",""
"pavlovia","151","170278","0.0-115.0","CAN_133","133","","","","","","","","","","","","","","","","","","",""
"pavlovia","152","170286","0.0-116.0","CAN_133","133","","","","","","","","","","","","","","","","","","",""
"html-audio-button-response","153","171759","0.0-117.0","CAN_133","133","","","","","","1552","stimuli/tada.m4a","0","","","","","","","","","","",""
"html-button-response","154","172263","0.0-118.0","CAN_133","133","","","","","","498","","0","","","","","","","","","","",""
"html-button-response","155","173442","0.0-119.0","CAN_133","133","","","","","","1171","","0","darkgreenblue","neonyellow","[""darkgreenblue"",""neonyellow"",""low nameability""]","left-right","[""darkgreenblue"",""neonyellow"",""low nameability""]","4","low nameability","31","left","trigger",""
"html-button-response","156","173965","0.0-120.0-0.0","CAN_133","133","","","","","","515","<button class=""jspsych-btn""><img src=""stimuli/darkgreenblue.png"" style=""width: 200px;height: 200px;""></button>","0","darkgreenblue","neonyellow","[""darkgreenblue"",""neonyellow"",""low nameability""]","left-right","[""darkgreenblue"",""neonyellow"",""low nameability""]","4","low nameability","31","left","response","1"
"html-audio-button-response","157","174168","0.0-120.0-1.0","CAN_133","133","","","","","","null","stimuli/bleep.m4a","null","darkgreenblue","neonyellow","[""darkgreenblue"",""neonyellow"",""low nameability""]","left-right","[""darkgreenblue"",""neonyellow"",""low nameability""]","4","low nameability","31","left","audio_feedback","1"
"html-button-response","158","174690","0.0-121.0","CAN_133","133","","","","","","null","<button class=""jspsych-btn""><img src=""stimuli/white_square.png"" style=""width: 200px;height: 200px;""></button>","null","darkgreenblue","neonyellow","[""darkgreenblue"",""neonyellow"",""low nameability""]","left-right","[""darkgreenblue"",""neonyellow"",""low nameability""]","4","low nameability","31","left","iti",""
"html-button-response","159","175440","0.0-122.0","CAN_133","133","","","","","","733","","0","darkgreenblue","lightred","[""darkgreenblue"",""lightred"",""low nameability""]","left-right","[""darkgreenblue"",""lightred"",""low nameability""]","4","low nameability","32","left","trigger",""
"html-button-response","160","175951","0.0-123.0-0.0","CAN_133","133","","","","","","500","<button class=""jspsych-btn""><img src=""stimuli/darkgreenblue.png"" style=""width: 200px;height: 200px;""></button>","0","darkgreenblue","lightred","[""darkgreenblue"",""lightred"",""low nameability""]","left-right","[""darkgreenblue"",""lightred"",""low nameability""]","4","low nameability","32","left","response","1"
"html-audio-button-response","161","176155","0.0-123.0-1.0","CAN_133","133","","","","","","null","stimuli/bleep.m4a","null","darkgreenblue","lightred","[""darkgreenblue"",""lightred"",""low nameability""]","left-right","[""darkgreenblue"",""lightred"",""low nameability""]","4","low nameability","32","left","audio_feedback","1"
"html-button-response","162","176679","0.0-124.0","CAN_133","133","","","","","","null","<button class=""jspsych-btn""><img src=""stimuli/white_square.png"" style=""width: 200px;height: 200px;""></button>","null","darkgreenblue","lightred","[""darkgreenblue"",""lightred"",""low nameability""]","left-right","[""darkgreenblue"",""lightred"",""low nameability""]","4","low nameability","32","left","iti",""
"html-button-response","163","177281","0.0-125.0","CAN_133","133","","","","","","580","","0","purple","red","[""purple"",""red"",""high nameability""]","left-right","[""purple"",""red"",""high nameability""]","4","high nameability","33","left","trigger",""
"html-button-response","164","177871","0.0-126.0-0.0","CAN_133","133","","","","","","582","<button class=""jspsych-btn""><img src=""stimuli/purple.png"" style=""width: 200px;height: 200px;""></button>","0","purple","red","[""purple"",""red"",""high nameability""]","left-right","[""purple"",""red"",""high nameability""]","4","high nameability","33","left","response","1"
"html-audio-button-response","165","178071","0.0-126.0-1.0","CAN_133","133","","","","","","null","stimuli/bleep.m4a","null","purple","red","[""purple"",""red"",""high nameability""]","left-right","[""purple"",""red"",""high nameability""]","4","high nameability","33","left","audio_feedback","1"
"html-button-response","166","178594","0.0-127.0","CAN_133","133","","","","","","null","<button class=""jspsych-btn""><img src=""stimuli/white_square.png"" style=""width: 200px;height: 200px;""></button>","null","purple","red","[""purple"",""red"",""high nameability""]","left-right","[""purple"",""red"",""high nameability""]","4","high nameability","33","left","iti",""
"html-button-response","167","179277","0.0-128.0","CAN_133","133","","","","","","665","","0","brown","yellow","[""brown"",""yellow"",""high nameability""]","right-left","[""yellow"",""brown""]","4","high nameability","34","right","trigger",""
"html-button-response","168","179785","0.0-129.0-0.0","CAN_133","133","","","","","","499","<button class=""jspsych-btn""><img src=""stimuli/brown.png"" style=""width: 200px;height: 200px;""></button>","1","brown","yellow","[""brown"",""yellow"",""high nameability""]","right-left","[""yellow"",""brown""]","4","high nameability","34","right","response","1"
"html-audio-button-response","169","179990","0.0-129.0-1.0","CAN_133","133","","","","","","null","stimuli/bleep.m4a","null","brown","yellow","[""brown"",""yellow"",""high nameability""]","right-left","[""yellow"",""brown""]","4","high nameability","34","right","audio_feedback","1"
"html-button-response","170","180505","0.0-130.0","CAN_133","133","","","","","","null","<button class=""jspsych-btn""><img src=""stimuli/white_square.png"" style=""width: 200px;height: 200px;""></button>","null","brown","yellow","[""brown"",""yellow"",""high nameability""]","right-left","[""yellow"",""brown""]","4","high nameability","34","right","iti",""
"html-button-response","171","181036","0.0-131.0","CAN_133","133","","","","","","513","","0","blue","brown","[""blue"",""brown"",""high nameability""]","left-right","[""blue"",""brown"",""high nameability""]","4","high nameability","35","left","trigger",""
"html-button-response","172","181604","0.0-132.0-0.0","CAN_133","133","","","","","","560","<button class=""jspsych-btn""><img src=""stimuli/blue.png"" style=""width: 200px;height: 200px;""></button>","0","blue","brown","[""blue"",""brown"",""high nameability""]","left-right","[""blue"",""brown"",""high nameability""]","4","high nameability","35","left","response","1"
"html-audio-button-response","173","181814","0.0-132.0-1.0","CAN_133","133","","","","","","null","stimuli/bleep.m4a","null","blue","brown","[""blue"",""brown"",""high nameability""]","left-right","[""blue"",""brown"",""high nameability""]","4","high nameability","35","left","audio_feedback","1"
"html-button-response","174","182329","0.0-133.0","CAN_133","133","","","","","","null","<button class=""jspsych-btn""><img src=""stimuli/white_square.png"" style=""width: 200px;height: 200px;""></button>","null","blue","brown","[""blue"",""brown"",""high nameability""]","left-right","[""blue"",""brown"",""high nameability""]","4","high nameability","35","left","iti",""
"html-button-response","175","183081","0.0-134.0","CAN_133","133","","","","","","735","","0","blue","yellow","[""blue"",""yellow"",""high nameability""]","right-left","[""yellow"",""blue""]","4","high nameability","36","right","trigger",""
"html-button-response","176","183589","0.0-135.0-0.0","CAN_133","133","","","","","","499","<button class=""jspsych-btn""><img src=""stimuli/blue.png"" style=""width: 200px;height: 200px;""></button>","1","blue","yellow","[""blue"",""yellow"",""high nameability""]","right-left","[""yellow"",""blue""]","4","high nameability","36","right","response","1"
"html-audio-button-response","177","183808","0.0-135.0-1.0","CAN_133","133","","","","","","null","stimuli/bleep.m4a","null","blue","yellow","[""blue"",""yellow"",""high nameability""]","right-left","[""yellow"",""blue""]","4","high nameability","36","right","audio_feedback","1"
"html-button-response","178","184333","0.0-136.0","CAN_133","133","","","","","","null","<button class=""jspsych-btn""><img src=""stimuli/white_square.png"" style=""width: 200px;height: 200px;""></button>","null","blue","yellow","[""blue"",""yellow"",""high nameability""]","right-left","[""yellow"",""blue""]","4","high nameability","36","right","iti",""
"html-button-response","179","185056","0.0-137.0","CAN_133","133","","","","","","702","","0","orange","purple","[""orange"",""purple"",""high nameability""]","right-left","[""purple"",""orange""]","4","high nameability","37","right","trigger",""
"html-button-response","180","185585","0.0-138.0-0.0","CAN_133","133","","","","","","519","<button class=""jspsych-btn""><img src=""stimuli/orange.png"" style=""width: 200px;height: 200px;""></button>","1","orange","purple","[""orange"",""purple"",""high nameability""]","right-left","[""purple"",""orange""]","4","high nameability","37","right","response","1"
"html-audio-button-response","181","185817","0.0-138.0-1.0","CAN_133","133","","","","","","null","stimuli/bleep.m4a","null","orange","purple","[""orange"",""purple"",""high nameability""]","right-left","[""purple"",""orange""]","4","high nameability","37","right","audio_feedback","1"
"html-button-response","182","186347","0.0-139.0","CAN_133","133","","","","","","null","<button class=""jspsych-btn""><img src=""stimuli/white_square.png"" style=""width: 200px;height: 200px;""></button>","null","orange","purple","[""orange"",""purple"",""high nameability""]","right-left","[""purple"",""orange""]","4","high nameability","37","right","iti",""
"html-button-response","183","187040","0.0-140.0","CAN_133","133","","","","","","662","","0","orange","red","[""orange"",""red"",""high nameability""]","left-right","[""orange"",""red"",""high nameability""]","4","high nameability","38","left","trigger",""
"html-button-response","184","187592","0.0-141.0-0.0","CAN_133","133","","","","","","532","<button class=""jspsych-btn""><img src=""stimuli/orange.png"" style=""width: 200px;height: 200px;""></button>","0","orange","red","[""orange"",""red"",""high nameability""]","left-right","[""orange"",""red"",""high nameability""]","4","high nameability","38","left","response","1"
"html-audio-button-response","185","187809","0.0-141.0-1.0","CAN_133","133","","","","","","null","stimuli/bleep.m4a","null","orange","red","[""orange"",""red"",""high nameability""]","left-right","[""orange"",""red"",""high nameability""]","4","high nameability","38","left","audio_feedback","1"
"html-button-response","186","188338","0.0-142.0","CAN_133","133","","","","","","null","<button class=""jspsych-btn""><img src=""stimuli/white_square.png"" style=""width: 200px;height: 200px;""></button>","null","orange","red","[""orange"",""red"",""high nameability""]","left-right","[""orange"",""red"",""high nameability""]","4","high nameability","38","left","iti",""
"html-button-response","187","189074","0.0-143.0","CAN_133","133","","","","","","711","","0","yellow","purple","[""yellow"",""purple"",""high nameability""]","left-right","[""yellow"",""purple"",""high nameability""]","4","high nameability","39","left","trigger",""
"html-button-response","188","189602","0.0-144.0-0.0","CAN_133","133","","","","","","517","<button class=""jspsych-btn""><img src=""stimuli/yellow.png"" style=""width: 200px;height: 200px;""></button>","0","yellow","purple","[""yellow"",""purple"",""high nameability""]","left-right","[""yellow"",""purple"",""high nameability""]","4","high nameability","39","left","response","1"
"html-audio-button-response","189","189810","0.0-144.0-1.0","CAN_133","133","","","","","","null","stimuli/bleep.m4a","null","yellow","purple","[""yellow"",""purple"",""high nameability""]","left-right","[""yellow"",""purple"",""high nameability""]","4","high nameability","39","left","audio_feedback","1"
"html-button-response","190","190341","0.0-145.0","CAN_133","133","","","","","","null","<button class=""jspsych-btn""><img src=""stimuli/white_square.png"" style=""width: 200px;height: 200px;""></button>","null","yellow","purple","[""yellow"",""purple"",""high nameability""]","left-right","[""yellow"",""purple"",""high nameability""]","4","high nameability","39","left","iti",""
"html-button-response","191","190903","0.0-146.0","CAN_133","133","","","","","","525","","0","pink","neonyellow","[""pink"",""neonyellow"",""low nameability""]","left-right","[""pink"",""neonyellow"",""low nameability""]","4","low nameability","40","left","trigger",""
"html-button-response","192","191488","0.0-147.0-0.0","CAN_133","133","","","","","","566","<button class=""jspsych-btn""><img src=""stimuli/pink.png"" style=""width: 200px;height: 200px;""></button>","0","pink","neonyellow","[""pink"",""neonyellow"",""low nameability""]","left-right","[""pink"",""neonyellow"",""low nameability""]","4","low nameability","40","left","response","1"
"html-audio-button-response","193","191704","0.0-147.0-1.0","CAN_133","133","","","","","","null","stimuli/bleep.m4a","null","pink","neonyellow","[""pink"",""neonyellow"",""low nameability""]","left-right","[""pink"",""neonyellow"",""low nameability""]","4","low nameability","40","left","audio_feedback","1"
"html-button-response","194","192241","0.0-148.0","CAN_133","133","","","","","","null","<button class=""jspsych-btn""><img src=""stimuli/white_square.png"" style=""width: 200px;height: 200px;""></button>","null","pink","neonyellow","[""pink"",""neonyellow"",""low nameability""]","left-right","[""pink"",""neonyellow"",""low nameability""]","4","low nameability","40","left","iti",""
"pavlovia","195","192344","0.0-149.0","CAN_133","133","","","","","","","","","","","","","","","","","","",""
"pavlovia","196","192355","0.0-150.0","CAN_133","133","","","","","","","","","","","","","","","","","","",""
"html-audio-button-response","197","193824","0.0-151.0","CAN_133","133","","","","","","1587","stimuli/tada.m4a","0","","","","","","","","","","",""
"html-button-response","198","194426","0.0-152.0","CAN_133","133","","","","","","588","","0","","","","","","","","","","",""
"html-button-response","199","195730","0.0-153.0","CAN_133","133","","","","","","1298","","0","brown","purple","[""brown"",""purple"",""high nameability""]","left-right","[""brown"",""purple"",""high nameability""]","5","high nameability","41","left","trigger",""
"html-button-response","200","196293","0.0-154.0-0.0","CAN_133","133","","","","","","555","<button class=""jspsych-btn""><img src=""stimuli/brown.png"" style=""width: 200px;height: 200px;""></button>","0","brown","purple","[""brown"",""purple"",""high nameability""]","left-right","[""brown"",""purple"",""high nameability""]","5","high nameability","41","left","response","1"
"html-audio-button-response","201","196498","0.0-154.0-1.0","CAN_133","133","","","","","","null","stimuli/bleep.m4a","null","brown","purple","[""brown"",""purple"",""high nameability""]","left-right","[""brown"",""purple"",""high nameability""]","5","high nameability","41","left","audio_feedback","1"
"html-button-response","202","197006","0.0-155.0","CAN_133","133","","","","","","null","<button class=""jspsych-btn""><img src=""stimuli/white_square.png"" style=""width: 200px;height: 200px;""></button>","null","brown","purple","[""brown"",""purple"",""high nameability""]","left-right","[""brown"",""purple"",""high nameability""]","5","high nameability","41","left","iti",""
"html-button-response","203","197714","0.0-156.0","CAN_133","133","","","","","","701","","0","pink","turquoise","[""pink"",""turquoise"",""low nameability""]","left-right","[""pink"",""turquoise"",""low nameability""]","5","low nameability","42","left","trigger",""
"html-button-response","204","198295","0.0-157.0-0.0","CAN_133","133","","","","","","574","<button class=""jspsych-btn""><img src=""stimuli/pink.png"" style=""width: 200px;height: 200px;""></button>","0","pink","turquoise","[""pink"",""turquoise"",""low nameability""]","left-right","[""pink"",""turquoise"",""low nameability""]","5","low nameability","42","left","response","1"
"html-audio-button-response","205","198494","0.0-157.0-1.0","CAN_133","133","","","","","","null","stimuli/bleep.m4a","null","pink","turquoise","[""pink"",""turquoise"",""low nameability""]","left-right","[""pink"",""turquoise"",""low nameability""]","5","low nameability","42","left","audio_feedback","1"
"html-button-response","206","199005","0.0-158.0","CAN_133","133","","","","","","null","<button class=""jspsych-btn""><img src=""stimuli/white_square.png"" style=""width: 200px;height: 200px;""></button>","null","pink","turquoise","[""pink"",""turquoise"",""low nameability""]","left-right","[""pink"",""turquoise"",""low nameability""]","5","low nameability","42","left","iti",""
"html-button-response","207","199689","0.0-159.0","CAN_133","133","","","","","","678","","0","orange","blue","[""orange"",""blue"",""high nameability""]","right-left","[""blue"",""orange""]","5","high nameability","43","right","trigger",""
"html-button-response","208","200293","0.0-160.0-0.0","CAN_133","133","","","","","","597","<button class=""jspsych-btn""><img src=""stimuli/orange.png"" style=""width: 200px;height: 200px;""></button>","1","orange","blue","[""orange"",""blue"",""high nameability""]","right-left","[""blue"",""orange""]","5","high nameability","43","right","response","1"
"html-audio-button-response","209","200502","0.0-160.0-1.0","CAN_133","133","","","","","","null","stimuli/bleep.m4a","null","orange","blue","[""orange"",""blue"",""high nameability""]","right-left","[""blue"",""orange""]","5","high nameability","43","right","audio_feedback","1"
"html-button-response","210","201027","0.0-161.0","CAN_133","133","","","","","","null","<button class=""jspsych-btn""><img src=""stimuli/white_square.png"" style=""width: 200px;height: 200px;""></button>","null","orange","blue","[""orange"",""blue"",""high nameability""]","right-left","[""blue"",""orange""]","5","high nameability","43","right","iti",""
"html-button-response","211","201816","0.0-162.0","CAN_133","133","","","","","","773","","0","darkgreenblue","turquoise","[""darkgreenblue"",""turquoise"",""low nameability""]","right-left","[""turquoise"",""darkgreenblue""]","5","low nameability","44","right","trigger",""
"html-button-response","212","202524","0.0-163.0-0.0","CAN_133","133","","","","","","701","<button class=""jspsych-btn""><img src=""stimuli/darkgreenblue.png"" style=""width: 200px;height: 200px;""></button>","1","darkgreenblue","turquoise","[""darkgreenblue"",""turquoise"",""low nameability""]","right-left","[""turquoise"",""darkgreenblue""]","5","low nameability","44","right","response","1"
"html-audio-button-response","213","202723","0.0-163.0-1.0","CAN_133","133","","","","","","null","stimuli/bleep.m4a","null","darkgreenblue","turquoise","[""darkgreenblue"",""turquoise"",""low nameability""]","right-left","[""turquoise"",""darkgreenblue""]","5","low nameability","44","right","audio_feedback","1"
"html-button-response","214","203239","0.0-164.0","CAN_133","133","","","","","","null","<button class=""jspsych-btn""><img src=""stimuli/white_square.png"" style=""width: 200px;height: 200px;""></button>","null","darkgreenblue","turquoise","[""darkgreenblue"",""turquoise"",""low nameability""]","right-left","[""turquoise"",""darkgreenblue""]","5","low nameability","44","right","iti",""
"html-button-response","215","204154","0.0-165.0","CAN_133","133","","","","","","899","","0","brown","blue","[""brown"",""blue"",""high nameability""]","left-right","[""brown"",""blue"",""high nameability""]","5","high nameability","45","left","trigger",""
"html-button-response","216","205393","0.0-166.0-0.0","CAN_133","133","","","","","","1221","<button class=""jspsych-btn""><img src=""stimuli/brown.png"" style=""width: 200px;height: 200px;""></button>","0","brown","blue","[""brown"",""blue"",""high nameability""]","left-right","[""brown"",""blue"",""high nameability""]","5","high nameability","45","left","response","1"
"html-audio-button-response","217","205599","0.0-166.0-1.0","CAN_133","133","","","","","","null","stimuli/bleep.m4a","null","brown","blue","[""brown"",""blue"",""high nameability""]","left-right","[""brown"",""blue"",""high nameability""]","5","high nameability","45","left","audio_feedback","1"
"html-button-response","218","206117","0.0-167.0","CAN_133","133","","","","","","null","<button class=""jspsych-btn""><img src=""stimuli/white_square.png"" style=""width: 200px;height: 200px;""></button>","null","brown","blue","[""brown"",""blue"",""high nameability""]","left-right","[""brown"",""blue"",""high nameability""]","5","high nameability","45","left","iti",""
"html-button-response","219","206951","0.0-168.0","CAN_133","133","","","","","","819","","0","turquoise","darkgreenblue","[""turquoise"",""darkgreenblue"",""low nameability""]","left-right","[""turquoise"",""darkgreenblue"",""low nameability""]","5","low nameability","46","left","trigger",""
"html-button-response","220","207504","0.0-169.0-0.0","CAN_133","133","","","","","","545","<button class=""jspsych-btn""><img src=""stimuli/turquoise.png"" style=""width: 200px;height: 200px;""></button>","0","turquoise","darkgreenblue","[""turquoise"",""darkgreenblue"",""low nameability""]","left-right","[""turquoise"",""darkgreenblue"",""low nameability""]","5","low nameability","46","left","response","1"
"html-audio-button-response","221","207712","0.0-169.0-1.0","CAN_133","133","","","","","","null","stimuli/bleep.m4a","null","turquoise","darkgreenblue","[""turquoise"",""darkgreenblue"",""low nameability""]","left-right","[""turquoise"",""darkgreenblue"",""low nameability""]","5","low nameability","46","left","audio_feedback","1"
"html-button-response","222","208238","0.0-170.0","CAN_133","133","","","","","","null","<button class=""jspsych-btn""><img src=""stimuli/white_square.png"" style=""width: 200px;height: 200px;""></button>","null","turquoise","darkgreenblue","[""turquoise"",""darkgreenblue"",""low nameability""]","left-right","[""turquoise"",""darkgreenblue"",""low nameability""]","5","low nameability","46","left","iti",""
"html-button-response","223","208958","0.0-171.0","CAN_133","133","","","","","","699","","0","mustard","darkgreenblue","[""mustard"",""darkgreenblue"",""low nameability""]","right-left","[""darkgreenblue"",""mustard""]","5","low nameability","47","right","trigger",""
"html-button-response","224","209549","0.0-172.0-0.0","CAN_133","133","","","","","","579","<button class=""jspsych-btn""><img src=""stimuli/mustard.png"" style=""width: 200px;height: 200px;""></button>","1","mustard","darkgreenblue","[""mustard"",""darkgreenblue"",""low nameability""]","right-left","[""darkgreenblue"",""mustard""]","5","low nameability","47","right","response","1"
"html-audio-button-response","225","209756","0.0-172.0-1.0","CAN_133","133","","","","","","null","stimuli/bleep.m4a","null","mustard","darkgreenblue","[""mustard"",""darkgreenblue"",""low nameability""]","right-left","[""darkgreenblue"",""mustard""]","5","low nameability","47","right","audio_feedback","1"
"html-button-response","226","210272","0.0-173.0","CAN_133","133","","","","","","null","<button class=""jspsych-btn""><img src=""stimuli/white_square.png"" style=""width: 200px;height: 200px;""></button>","null","mustard","darkgreenblue","[""mustard"",""darkgreenblue"",""low nameability""]","right-left","[""darkgreenblue"",""mustard""]","5","low nameability","47","right","iti",""
"html-button-response","227","210942","0.0-174.0","CAN_133","133","","","","","","653","","0","lightred","turquoise","[""lightred"",""turquoise"",""low nameability""]","right-left","[""turquoise"",""lightred""]","5","low nameability","48","right","trigger",""
"html-button-response","228","211482","0.0-175.0-0.0","CAN_133","133","","","","","","532","<button class=""jspsych-btn""><img src=""stimuli/lightred.png"" style=""width: 200px;height: 200px;""></button>","1","lightred","turquoise","[""lightred"",""turquoise"",""low nameability""]","right-left","[""turquoise"",""lightred""]","5","low nameability","48","right","response","1"
"html-audio-button-response","229","211688","0.0-175.0-1.0","CAN_133","133","","","","","","null","stimuli/bleep.m4a","null","lightred","turquoise","[""lightred"",""turquoise"",""low nameability""]","right-left","[""turquoise"",""lightred""]","5","low nameability","48","right","audio_feedback","1"
"html-button-response","230","212205","0.0-176.0","CAN_133","133","","","","","","null","<button class=""jspsych-btn""><img src=""stimuli/white_square.png"" style=""width: 200px;height: 200px;""></button>","null","lightred","turquoise","[""lightred"",""turquoise"",""low nameability""]","right-left","[""turquoise"",""lightred""]","5","low nameability","48","right","iti",""
"html-button-response","231","213021","0.0-177.0","CAN_133","133","","","","","","796","","0","red","brown","[""red"",""brown"",""high nameability""]","right-left","[""brown"",""red""]","5","high nameability","49","right","trigger",""
"html-button-response","232","213539","0.0-178.0-0.0","CAN_133","133","","","","","","509","<button class=""jspsych-btn""><img src=""stimuli/red.png"" style=""width: 200px;height: 200px;""></button>","1","red","brown","[""red"",""brown"",""high nameability""]","right-left","[""brown"",""red""]","5","high nameability","49","right","response","1"
"html-audio-button-response","233","213748","0.0-178.0-1.0","CAN_133","133","","","","","","null","stimuli/bleep.m4a","null","red","brown","[""red"",""brown"",""high nameability""]","right-left","[""brown"",""red""]","5","high nameability","49","right","audio_feedback","1"
"html-button-response","234","214269","0.0-179.0","CAN_133","133","","","","","","null","<button class=""jspsych-btn""><img src=""stimuli/white_square.png"" style=""width: 200px;height: 200px;""></button>","null","red","brown","[""red"",""brown"",""high nameability""]","right-left","[""brown"",""red""]","5","high nameability","49","right","iti",""
"html-button-response","235","215004","0.0-180.0","CAN_133","133","","","","","","710","","0","brown","red","[""brown"",""red"",""high nameability""]","right-left","[""red"",""brown""]","5","high nameability","50","right","trigger",""
"html-button-response","236","215764","0.0-181.0-0.0","CAN_133","133","","","","","","750","<button class=""jspsych-btn""><img src=""stimuli/brown.png"" style=""width: 200px;height: 200px;""></button>","1","brown","red","[""brown"",""red"",""high nameability""]","right-left","[""red"",""brown""]","5","high nameability","50","right","response","1"
"html-audio-button-response","237","215967","0.0-181.0-1.0","CAN_133","133","","","","","","null","stimuli/bleep.m4a","null","brown","red","[""brown"",""red"",""high nameability""]","right-left","[""red"",""brown""]","5","high nameability","50","right","audio_feedback","1"
"html-button-response","238","216487","0.0-182.0","CAN_133","133","","","","","","null","<button class=""jspsych-btn""><img src=""stimuli/white_square.png"" style=""width: 200px;height: 200px;""></button>","null","brown","red","[""brown"",""red"",""high nameability""]","right-left","[""red"",""brown""]","5","high nameability","50","right","iti",""
"pavlovia","239","216587","0.0-183.0","CAN_133","133","","","","","","","","","","","","","","","","","","",""
"pavlovia","240","216598","0.0-184.0","CAN_133","133","","","","","","","","","","","","","","","","","","",""
"html-audio-button-response","241","218094","0.0-185.0","CAN_133","133","","","","","","1603","stimuli/tada.m4a","0","","","","","","","","","","",""
"html-button-response","242","218760","0.0-186.0","CAN_133","133","","","","","","658","","0","","","","","","","","","","",""
"html-button-response","243","220224","0.0-187.0","CAN_133","133","","","","","","1456","","0","lightred","neonyellow","[""lightred"",""neonyellow"",""low nameability""]","left-right","[""lightred"",""neonyellow"",""low nameability""]","6","low nameability","51","left","trigger",""
"html-button-response","244","220803","0.0-188.0-0.0","CAN_133","133","","","","","","571","<button class=""jspsych-btn""><img src=""stimuli/lightred.png"" style=""width: 200px;height: 200px;""></button>","0","lightred","neonyellow","[""lightred"",""neonyellow"",""low nameability""]","left-right","[""lightred"",""neonyellow"",""low nameability""]","6","low nameability","51","left","response","1"
"html-audio-button-response","245","221008","0.0-188.0-1.0","CAN_133","133","","","","","","null","stimuli/bleep.m4a","null","lightred","neonyellow","[""lightred"",""neonyellow"",""low nameability""]","left-right","[""lightred"",""neonyellow"",""low nameability""]","6","low nameability","51","left","audio_feedback","1"
"html-button-response","246","221538","0.0-189.0","CAN_133","133","","","","","","null","<button class=""jspsych-btn""><img src=""stimuli/white_square.png"" style=""width: 200px;height: 200px;""></button>","null","lightred","neonyellow","[""lightred"",""neonyellow"",""low nameability""]","left-right","[""lightred"",""neonyellow"",""low nameability""]","6","low nameability","51","left","iti",""
"html-button-response","247","222313","0.0-190.0","CAN_133","133","","","","","","759","","0","neonyellow","mustard","[""neonyellow"",""mustard"",""low nameability""]","right-left","[""mustard"",""neonyellow""]","6","low nameability","52","right","trigger",""
"html-button-response","248","223560","0.0-191.0-0.0","CAN_133","133","","","","","","1239","<button class=""jspsych-btn""><img src=""stimuli/neonyellow.png"" style=""width: 200px;height: 200px;""></button>","1","neonyellow","mustard","[""neonyellow"",""mustard"",""low nameability""]","right-left","[""mustard"",""neonyellow""]","6","low nameability","52","right","response","1"
"html-audio-button-response","249","223768","0.0-191.0-1.0","CAN_133","133","","","","","","null","stimuli/bleep.m4a","null","neonyellow","mustard","[""neonyellow"",""mustard"",""low nameability""]","right-left","[""mustard"",""neonyellow""]","6","low nameability","52","right","audio_feedback","1"
"html-button-response","250","224287","0.0-192.0","CAN_133","133","","","","","","null","<button class=""jspsych-btn""><img src=""stimuli/white_square.png"" style=""width: 200px;height: 200px;""></button>","null","neonyellow","mustard","[""neonyellow"",""mustard"",""low nameability""]","right-left","[""mustard"",""neonyellow""]","6","low nameability","52","right","iti",""
"html-button-response","251","225191","0.0-193.0","CAN_133","133","","","","","","883","","0","brown","orange","[""brown"",""orange"",""high nameability""]","right-left","[""orange"",""brown""]","6","high nameability","53","right","trigger",""
"html-button-response","252","225733","0.0-194.0-0.0","CAN_133","133","","","","","","534","<button class=""jspsych-btn""><img src=""stimuli/brown.png"" style=""width: 200px;height: 200px;""></button>","1","brown","orange","[""brown"",""orange"",""high nameability""]","right-left","[""orange"",""brown""]","6","high nameability","53","right","response","1"
"html-audio-button-response","253","225936","0.0-194.0-1.0","CAN_133","133","","","","","","null","stimuli/bleep.m4a","null","brown","orange","[""brown"",""orange"",""high nameability""]","right-left","[""orange"",""brown""]","6","high nameability","53","right","audio_feedback","1"
"html-button-response","254","226457","0.0-195.0","CAN_133","133","","","","","","null","<button class=""jspsych-btn""><img src=""stimuli/white_square.png"" style=""width: 200px;height: 200px;""></button>","null","brown","orange","[""brown"",""orange"",""high nameability""]","right-left","[""orange"",""brown""]","6","high nameability","53","right","iti",""
"html-button-response","255","227282","0.0-196.0","CAN_133","133","","","","","","807","","0","yellow","red","[""yellow"",""red"",""high nameability""]","right-left","[""red"",""yellow""]","6","high nameability","54","right","trigger",""
"html-button-response","256","227810","0.0-197.0-0.0","CAN_133","133","","","","","","519","<button class=""jspsych-btn""><img src=""stimuli/yellow.png"" style=""width: 200px;height: 200px;""></button>","1","yellow","red","[""yellow"",""red"",""high nameability""]","right-left","[""red"",""yellow""]","6","high nameability","54","right","response","1"
"html-audio-button-response","257","228017","0.0-197.0-1.0","CAN_133","133","","","","","","null","stimuli/bleep.m4a","null","yellow","red","[""yellow"",""red"",""high nameability""]","right-left","[""red"",""yellow""]","6","high nameability","54","right","audio_feedback","1"
"html-button-response","258","228543","0.0-198.0","CAN_133","133","","","","","","null","<button class=""jspsych-btn""><img src=""stimuli/white_square.png"" style=""width: 200px;height: 200px;""></button>","null","yellow","red","[""yellow"",""red"",""high nameability""]","right-left","[""red"",""yellow""]","6","high nameability","54","right","iti",""
"html-button-response","259","229122","0.0-199.0","CAN_133","133","","","","","","567","","0","purple","orange","[""purple"",""orange"",""high nameability""]","left-right","[""purple"",""orange"",""high nameability""]","6","high nameability","55","left","trigger",""
"html-button-response","260","229723","0.0-200.0-0.0","CAN_133","133","","","","","","590","<button class=""jspsych-btn""><img src=""stimuli/purple.png"" style=""width: 200px;height: 200px;""></button>","0","purple","orange","[""purple"",""orange"",""high nameability""]","left-right","[""purple"",""orange"",""high nameability""]","6","high nameability","55","left","response","1"
"html-audio-button-response","261","229929","0.0-200.0-1.0","CAN_133","133","","","","","","null","stimuli/bleep.m4a","null","purple","orange","[""purple"",""orange"",""high nameability""]","left-right","[""purple"",""orange"",""high nameability""]","6","high nameability","55","left","audio_feedback","1"
"html-button-response","262","230447","0.0-201.0","CAN_133","133","","","","","","null","<button class=""jspsych-btn""><img src=""stimuli/white_square.png"" style=""width: 200px;height: 200px;""></button>","null","purple","orange","[""purple"",""orange"",""high nameability""]","left-right","[""purple"",""orange"",""high nameability""]","6","high nameability","55","left","iti",""
"html-button-response","263","231107","0.0-202.0","CAN_133","133","","","","","","643","","0","red","orange","[""red"",""orange"",""high nameability""]","right-left","[""orange"",""red""]","6","high nameability","56","right","trigger",""
"html-button-response","264","231682","0.0-203.0-0.0","CAN_133","133","","","","","","566","<button class=""jspsych-btn""><img src=""stimuli/red.png"" style=""width: 200px;height: 200px;""></button>","1","red","orange","[""red"",""orange"",""high nameability""]","right-left","[""orange"",""red""]","6","high nameability","56","right","response","1"
"html-audio-button-response","265","231887","0.0-203.0-1.0","CAN_133","133","","","","","","null","stimuli/bleep.m4a","null","red","orange","[""red"",""orange"",""high nameability""]","right-left","[""orange"",""red""]","6","high nameability","56","right","audio_feedback","1"
"html-button-response","266","232409","0.0-204.0","CAN_133","133","","","","","","null","<button class=""jspsych-btn""><img src=""stimuli/white_square.png"" style=""width: 200px;height: 200px;""></button>","null","red","orange","[""red"",""orange"",""high nameability""]","right-left","[""orange"",""red""]","6","high nameability","56","right","iti",""
"html-button-response","267","233053","0.0-205.0","CAN_133","133","","","","","","626","","0","turquoise","pink","[""turquoise"",""pink"",""low nameability""]","left-right","[""turquoise"",""pink"",""low nameability""]","6","low nameability","57","left","trigger",""
"html-button-response","268","233645","0.0-206.0-0.0","CAN_133","133","","","","","","586","<button class=""jspsych-btn""><img src=""stimuli/turquoise.png"" style=""width: 200px;height: 200px;""></button>","0","turquoise","pink","[""turquoise"",""pink"",""low nameability""]","left-right","[""turquoise"",""pink"",""low nameability""]","6","low nameability","57","left","response","1"
"html-audio-button-response","269","233846","0.0-206.0-1.0","CAN_133","133","","","","","","null","stimuli/bleep.m4a","null","turquoise","pink","[""turquoise"",""pink"",""low nameability""]","left-right","[""turquoise"",""pink"",""low nameability""]","6","low nameability","57","left","audio_feedback","1"
"html-button-response","270","234368","0.0-207.0","CAN_133","133","","","","","","null","<button class=""jspsych-btn""><img src=""stimuli/white_square.png"" style=""width: 200px;height: 200px;""></button>","null","turquoise","pink","[""turquoise"",""pink"",""low nameability""]","left-right","[""turquoise"",""pink"",""low nameability""]","6","low nameability","57","left","iti",""
"html-button-response","271","235049","0.0-208.0","CAN_133","133","","","","","","663","","0","neonyellow","lightred","[""neonyellow"",""lightred"",""low nameability""]","right-left","[""lightred"",""neonyellow""]","6","low nameability","58","right","trigger",""
"html-button-response","272","235567","0.0-209.0-0.0","CAN_133","133","","","","","","510","<button class=""jspsych-btn""><img src=""stimuli/neonyellow.png"" style=""width: 200px;height: 200px;""></button>","1","neonyellow","lightred","[""neonyellow"",""lightred"",""low nameability""]","right-left","[""lightred"",""neonyellow""]","6","low nameability","58","right","response","1"
"html-audio-button-response","273","235772","0.0-209.0-1.0","CAN_133","133","","","","","","null","stimuli/bleep.m4a","null","neonyellow","lightred","[""neonyellow"",""lightred"",""low nameability""]","right-left","[""lightred"",""neonyellow""]","6","low nameability","58","right","audio_feedback","1"
"html-button-response","274","236288","0.0-210.0","CAN_133","133","","","","","","null","<button class=""jspsych-btn""><img src=""stimuli/white_square.png"" style=""width: 200px;height: 200px;""></button>","null","neonyellow","lightred","[""neonyellow"",""lightred"",""low nameability""]","right-left","[""lightred"",""neonyellow""]","6","low nameability","58","right","iti",""
"html-button-response","275","236955","0.0-211.0","CAN_133","133","","","","","","648","","0","yellow","blue","[""yellow"",""blue"",""high nameability""]","right-left","[""blue"",""yellow""]","6","high nameability","59","right","trigger",""
"html-button-response","276","237481","0.0-212.0-0.0","CAN_133","133","","","","","","510","<button class=""jspsych-btn""><img src=""stimuli/yellow.png"" style=""width: 200px;height: 200px;""></button>","1","yellow","blue","[""yellow"",""blue"",""high nameability""]","right-left","[""blue"",""yellow""]","6","high nameability","59","right","response","1"
"html-audio-button-response","277","237692","0.0-212.0-1.0","CAN_133","133","","","","","","null","stimuli/bleep.m4a","null","yellow","blue","[""yellow"",""blue"",""high nameability""]","right-left","[""blue"",""yellow""]","6","high nameability","59","right","audio_feedback","1"
"html-button-response","278","238213","0.0-213.0","CAN_133","133","","","","","","null","<button class=""jspsych-btn""><img src=""stimuli/white_square.png"" style=""width: 200px;height: 200px;""></button>","null","yellow","blue","[""yellow"",""blue"",""high nameability""]","right-left","[""blue"",""yellow""]","6","high nameability","59","right","iti",""
"html-button-response","279","238803","0.0-214.0","CAN_133","133","","","","","","566","","0","orange","brown","[""orange"",""brown"",""high nameability""]","left-right","[""orange"",""brown"",""high nameability""]","6","high nameability","60","left","trigger",""
"html-button-response","280","239356","0.0-215.0-0.0","CAN_133","133","","","","","","545","<button class=""jspsych-btn""><img src=""stimuli/orange.png"" style=""width: 200px;height: 200px;""></button>","0","orange","brown","[""orange"",""brown"",""high nameability""]","left-right","[""orange"",""brown"",""high nameability""]","6","high nameability","60","left","response","1"
"html-audio-button-response","281","239560","0.0-215.0-1.0","CAN_133","133","","","","","","null","stimuli/bleep.m4a","null","orange","brown","[""orange"",""brown"",""high nameability""]","left-right","[""orange"",""brown"",""high nameability""]","6","high nameability","60","left","audio_feedback","1"
"html-button-response","282","240082","0.0-216.0","CAN_133","133","","","","","","null","<button class=""jspsych-btn""><img src=""stimuli/white_square.png"" style=""width: 200px;height: 200px;""></button>","null","orange","brown","[""orange"",""brown"",""high nameability""]","left-right","[""orange"",""brown"",""high nameability""]","6","high nameability","60","left","iti",""
