"trial_type","trial_index","time_elapsed","internal_node_id","subject_id","seed","success","timeout","failed_images","failed_audio","failed_video","rt","stimulus","response","target","foil","choices","combination_order","choices_in_order","round","condition","trial_counter","target_location","trial_kind","correct"
"pavlovia","0","22","0.0-0.0","CAN_101","101","","","","","","","","","","","","","","","","","","",""
"preload","1","1548","0.0-1.0","CAN_101","101","true","false","[]","[]","[]","","","","","","","","","","","","","",""
"fullscreen","2","773916","0.0-2.0","CAN_101","101","true","","","","","","","","","","","","","","","","","",""
"html-button-response","3","781616","0.0-3.0","CAN_101","101","","","","","","7664","","0","","","","","","","","","","",""
"html-button-response","4","790465","0.0-4.0","CAN_101","101","","","","","","8836","","0","star","square","[""square"",""star""]","left-right","[""square"",""star""]","1","practice","1","right","trigger",""
"html-button-response","5","797539","0.0-5.0-0.0","CAN_101","101","","","","","","7057","<button class=""jspsych-btn""><img src=""stimuli/star.png"" style=""width: 200px;height: 200px;""></button>","1","star","square","[""square"",""star""]","left-right","[""square"",""star""]","1","practice","1","right","response","1"
"html-audio-button-response","6","797752","0.0-5.0-1.0","CAN_101","101","","","","","","null","stimuli/bleep.m4a","null","star","square","[""square"",""star""]","left-right","[""square"",""star""]","1","practice","1","right","audio_feedback","1"
"html-button-response","7","798280","0.0-6.0","CAN_101","101","","","","","","null","<button class=""jspsych-btn""><img src=""stimuli/white_square.png"" style=""width: 200px;height: 200px;""></button>","null","star","square","[""square"",""star""]","left-right","[""square"",""star""]","1","practice","1","right","iti",""
"html-button-response","8","800308","0.0-7.0","CAN_101","101","","","","","","2012","","0","triangle","pentagram","[""triangle"",""pentagram""]","left-right","[""triangle"",""pentagram""]","1","practice","1","left","trigger",""
"html-button-response","9","801327","0.0-8.0-0.0","CAN_101","101","","","","","","1007","<button class=""jspsych-btn""><img src=""stimuli/triangle.png"" style=""width: 200px;height: 200px;""></button>","0","triangle","pentagram","[""triangle"",""pentagram""]","left-right","[""triangle"",""pentagram""]","1","practice","1","left","response","1"
"html-audio-button-response","10","801534","0.0-8.0-1.0","CAN_101","101","","","","","","null","stimuli/bleep.m4a","null","triangle","pentagram","[""triangle"",""pentagram""]","left-right","[""triangle"",""pentagram""]","1","practice","1","left","audio_feedback","1"
"html-button-response","11","802057","0.0-9.0","CAN_101","101","","","","","","null","<button class=""jspsych-btn""><img src=""stimuli/white_square.png"" style=""width: 200px;height: 200px;""></button>","null","triangle","pentagram","[""triangle"",""pentagram""]","left-right","[""triangle"",""pentagram""]","1","practice","1","left","iti",""
"html-button-response","12","802871","0.0-10.0","CAN_101","101","","","","","","785","","0","diamond","rectangle","[""rectangle"",""diamond""]","left-right","[""rectangle"",""diamond""]","1","practice","1","right","trigger",""
"html-button-response","13","803915","0.0-11.0-0.0","CAN_101","101","","","","","","1036","<button class=""jspsych-btn""><img src=""stimuli/diamond.png"" style=""width: 200px;height: 200px;""></button>","1","diamond","rectangle","[""rectangle"",""diamond""]","left-right","[""rectangle"",""diamond""]","1","practice","1","right","response","1"
"html-audio-button-response","14","804123","0.0-11.0-1.0","CAN_101","101","","","","","","null","stimuli/bleep.m4a","null","diamond","rectangle","[""rectangle"",""diamond""]","left-right","[""rectangle"",""diamond""]","1","practice","1","right","audio_feedback","1"
"html-button-response","15","804645","0.0-12.0","CAN_101","101","","","","","","null","<button class=""jspsych-btn""><img src=""stimuli/white_square.png"" style=""width: 200px;height: 200px;""></button>","null","diamond","rectangle","[""rectangle"",""diamond""]","left-right","[""rectangle"",""diamond""]","1","practice","1","right","iti",""
"html-button-response","16","805489","0.0-13.0","CAN_101","101","","","","","","822","","0","pentagram","star","[""pentagram"",""star""]","left-right","[""pentagram"",""star""]","1","practice","1","left","trigger",""
"html-button-response","17","806369","0.0-14.0-0.0","CAN_101","101","","","","","","869","<button class=""jspsych-btn""><img src=""stimuli/pentagram.png"" style=""width: 200px;height: 200px;""></button>","0","pentagram","star","[""pentagram"",""star""]","left-right","[""pentagram"",""star""]","1","practice","1","left","response","1"
"html-audio-button-response","18","806575","0.0-14.0-1.0","CAN_101","101","","","","","","null","stimuli/bleep.m4a","null","pentagram","star","[""pentagram"",""star""]","left-right","[""pentagram"",""star""]","1","practice","1","left","audio_feedback","1"
"html-button-response","19","807098","0.0-15.0","CAN_101","101","","","","","","null","<button class=""jspsych-btn""><img src=""stimuli/white_square.png"" style=""width: 200px;height: 200px;""></button>","null","pentagram","star","[""pentagram"",""star""]","left-right","[""pentagram"",""star""]","1","practice","1","left","iti",""
"html-button-response","20","820056","0.0-16.0","CAN_101","101","","","","","","12941","","0","","","","","","","","","","",""
"html-button-response","21","821109","0.0-17.0","CAN_101","101","","","","","","1045","","0","pink","darkgreenblue","[""pink"",""darkgreenblue"",""low nameability""]","left-right","[""pink"",""darkgreenblue"",""low nameability""]","1","low nameability","1","left","trigger",""
"html-button-response","22","821856","0.0-18.0-0.0","CAN_101","101","","","","","","736","<button class=""jspsych-btn""><img src=""stimuli/pink.png"" style=""width: 200px;height: 200px;""></button>","0","pink","darkgreenblue","[""pink"",""darkgreenblue"",""low nameability""]","left-right","[""pink"",""darkgreenblue"",""low nameability""]","1","low nameability","1","left","response","1"
"html-audio-button-response","23","822063","0.0-18.0-1.0","CAN_101","101","","","","","","null","stimuli/bleep.m4a","null","pink","darkgreenblue","[""pink"",""darkgreenblue"",""low nameability""]","left-right","[""pink"",""darkgreenblue"",""low nameability""]","1","low nameability","1","left","audio_feedback","1"
"html-button-response","24","822584","0.0-19.0","CAN_101","101","","","","","","null","<button class=""jspsych-btn""><img src=""stimuli/white_square.png"" style=""width: 200px;height: 200px;""></button>","null","pink","darkgreenblue","[""pink"",""darkgreenblue"",""low nameability""]","left-right","[""pink"",""darkgreenblue"",""low nameability""]","1","low nameability","1","left","iti",""
"html-button-response","25","823296","0.0-20.0","CAN_101","101","","","","","","696","","0","yellow","red","[""yellow"",""red"",""high nameability""]","right-left","[""red"",""yellow""]","1","high nameability","2","right","trigger",""
"html-button-response","26","824045","0.0-21.0-0.0","CAN_101","101","","","","","","740","<button class=""jspsych-btn""><img src=""stimuli/yellow.png"" style=""width: 200px;height: 200px;""></button>","1","yellow","red","[""yellow"",""red"",""high nameability""]","right-left","[""red"",""yellow""]","1","high nameability","2","right","response","1"
"html-audio-button-response","27","824252","0.0-21.0-1.0","CAN_101","101","","","","","","null","stimuli/bleep.m4a","null","yellow","red","[""yellow"",""red"",""high nameability""]","right-left","[""red"",""yellow""]","1","high nameability","2","right","audio_feedback","1"
"html-button-response","28","824779","0.0-22.0","CAN_101","101","","","","","","null","<button class=""jspsych-btn""><img src=""stimuli/white_square.png"" style=""width: 200px;height: 200px;""></button>","null","yellow","red","[""yellow"",""red"",""high nameability""]","right-left","[""red"",""yellow""]","1","high nameability","2","right","iti",""
"html-button-response","29","825546","0.0-23.0","CAN_101","101","","","","","","741","","0","purple","brown","[""purple"",""brown"",""high nameability""]","right-left","[""brown"",""purple""]","1","high nameability","3","right","trigger",""
"html-button-response","30","826235","0.0-24.0-0.0","CAN_101","101","","","","","","678","<button class=""jspsych-btn""><img src=""stimuli/purple.png"" style=""width: 200px;height: 200px;""></button>","1","purple","brown","[""purple"",""brown"",""high nameability""]","right-left","[""brown"",""purple""]","1","high nameability","3","right","response","1"
"html-audio-button-response","31","826440","0.0-24.0-1.0","CAN_101","101","","","","","","null","stimuli/bleep.m4a","null","purple","brown","[""purple"",""brown"",""high nameability""]","right-left","[""brown"",""purple""]","1","high nameability","3","right","audio_feedback","1"
"html-button-response","32","826960","0.0-25.0","CAN_101","101","","","","","","null","<button class=""jspsych-btn""><img src=""stimuli/white_square.png"" style=""width: 200px;height: 200px;""></button>","null","purple","brown","[""purple"",""brown"",""high nameability""]","right-left","[""brown"",""purple""]","1","high nameability","3","right","iti",""
"html-button-response","33","827637","0.0-26.0","CAN_101","101","","","","","","651","","0","darkgreenblue","mustard","[""darkgreenblue"",""mustard"",""low nameability""]","right-left","[""mustard"",""darkgreenblue""]","1","low nameability","4","right","trigger",""
"html-button-response","34","828299","0.0-27.0-0.0","CAN_101","101","","","","","","656","<button class=""jspsych-btn""><img src=""stimuli/darkgreenblue.png"" style=""width: 200px;height: 200px;""></button>","1","darkgreenblue","mustard","[""darkgreenblue"",""mustard"",""low nameability""]","right-left","[""mustard"",""darkgreenblue""]","1","low nameability","4","right","response","1"
"html-audio-button-response","35","828503","0.0-27.0-1.0","CAN_101","101","","","","","","null","stimuli/bleep.m4a","null","darkgreenblue","mustard","[""darkgreenblue"",""mustard"",""low nameability""]","right-left","[""mustard"",""darkgreenblue""]","1","low nameability","4","right","audio_feedback","1"
"html-button-response","36","829026","0.0-28.0","CAN_101","101","","","","","","null","<button class=""jspsych-btn""><img src=""stimuli/white_square.png"" style=""width: 200px;height: 200px;""></button>","null","darkgreenblue","mustard","[""darkgreenblue"",""mustard"",""low nameability""]","right-left","[""mustard"",""darkgreenblue""]","1","low nameability","4","right","iti",""
"html-button-response","37","829697","0.0-29.0","CAN_101","101","","","","","","650","","0","purple","yellow","[""purple"",""yellow"",""high nameability""]","right-left","[""yellow"",""purple""]","1","high nameability","5","right","trigger",""
"html-button-response","38","830454","0.0-30.0-0.0","CAN_101","101","","","","","","750","<button class=""jspsych-btn""><img src=""stimuli/purple.png"" style=""width: 200px;height: 200px;""></button>","1","purple","yellow","[""purple"",""yellow"",""high nameability""]","right-left","[""yellow"",""purple""]","1","high nameability","5","right","response","1"
"html-audio-button-response","39","830658","0.0-30.0-1.0","CAN_101","101","","","","","","null","stimuli/bleep.m4a","null","purple","yellow","[""purple"",""yellow"",""high nameability""]","right-left","[""yellow"",""purple""]","1","high nameability","5","right","audio_feedback","1"
"html-button-response","40","831174","0.0-31.0","CAN_101","101","","","","","","null","<button class=""jspsych-btn""><img src=""stimuli/white_square.png"" style=""width: 200px;height: 200px;""></button>","null","purple","yellow","[""purple"",""yellow"",""high nameability""]","right-left","[""yellow"",""purple""]","1","high nameability","5","right","iti",""
"html-button-response","41","831900","0.0-32.0","CAN_101","101","","","","","","709","","0","red","purple","[""red"",""purple"",""high nameability""]","left-right","[""red"",""purple"",""high nameability""]","1","high nameability","6","left","trigger",""
"html-button-response","42","833535","0.0-33.0-0.0","CAN_101","101","","","","","","1625","<button class=""jspsych-btn""><img src=""stimuli/red.png"" style=""width: 200px;height: 200px;""></button>","0","red","purple","[""red"",""purple"",""high nameability""]","left-right","[""red"",""purple"",""high nameability""]","1","high nameability","6","left","response","1"
"html-audio-button-response","43","833742","0.0-33.0-1.0","CAN_101","101","","","","","","null","stimuli/bleep.m4a","null","red","purple","[""red"",""purple"",""high nameability""]","left-right","[""red"",""purple"",""high nameability""]","1","high nameability","6","left","audio_feedback","1"
"html-button-response","44","834261","0.0-34.0","CAN_101","101","","","","","","null","<button class=""jspsych-btn""><img src=""stimuli/white_square.png"" style=""width: 200px;height: 200px;""></button>","null","red","purple","[""red"",""purple"",""high nameability""]","left-right","[""red"",""purple"",""high nameability""]","1","high nameability","6","left","iti",""
"html-button-response","45","835022","0.0-35.0","CAN_101","101","","","","","","743","","0","brown","orange","[""brown"",""orange"",""high nameability""]","left-right","[""brown"",""orange"",""high nameability""]","1","high nameability","7","left","trigger",""
"html-button-response","46","835841","0.0-36.0-0.0","CAN_101","101","","","","","","812","<button class=""jspsych-btn""><img src=""stimuli/brown.png"" style=""width: 200px;height: 200px;""></button>","0","brown","orange","[""brown"",""orange"",""high nameability""]","left-right","[""brown"",""orange"",""high nameability""]","1","high nameability","7","left","response","1"
"html-audio-button-response","47","836046","0.0-36.0-1.0","CAN_101","101","","","","","","null","stimuli/bleep.m4a","null","brown","orange","[""brown"",""orange"",""high nameability""]","left-right","[""brown"",""orange"",""high nameability""]","1","high nameability","7","left","audio_feedback","1"
"html-button-response","48","836569","0.0-37.0","CAN_101","101","","","","","","null","<button class=""jspsych-btn""><img src=""stimuli/white_square.png"" style=""width: 200px;height: 200px;""></button>","null","brown","orange","[""brown"",""orange"",""high nameability""]","left-right","[""brown"",""orange"",""high nameability""]","1","high nameability","7","left","iti",""
"html-button-response","49","837438","0.0-38.0","CAN_101","101","","","","","","849","","0","turquoise","pink","[""turquoise"",""pink"",""low nameability""]","right-left","[""pink"",""turquoise""]","1","low nameability","8","right","trigger",""
"html-button-response","50","838250","0.0-39.0-0.0","CAN_101","101","","","","","","803","<button class=""jspsych-btn""><img src=""stimuli/turquoise.png"" style=""width: 200px;height: 200px;""></button>","1","turquoise","pink","[""turquoise"",""pink"",""low nameability""]","right-left","[""pink"",""turquoise""]","1","low nameability","8","right","response","1"
"html-audio-button-response","51","838456","0.0-39.0-1.0","CAN_101","101","","","","","","null","stimuli/bleep.m4a","null","turquoise","pink","[""turquoise"",""pink"",""low nameability""]","right-left","[""pink"",""turquoise""]","1","low nameability","8","right","audio_feedback","1"
"html-button-response","52","838975","0.0-40.0","CAN_101","101","","","","","","null","<button class=""jspsych-btn""><img src=""stimuli/white_square.png"" style=""width: 200px;height: 200px;""></button>","null","turquoise","pink","[""turquoise"",""pink"",""low nameability""]","right-left","[""pink"",""turquoise""]","1","low nameability","8","right","iti",""
"html-button-response","53","839669","0.0-41.0","CAN_101","101","","","","","","671","","0","darkgreenblue","neonyellow","[""darkgreenblue"",""neonyellow"",""low nameability""]","left-right","[""darkgreenblue"",""neonyellow"",""low nameability""]","1","low nameability","9","left","trigger",""
"html-button-response","54","840401","0.0-42.0-0.0","CAN_101","101","","","","","","724","<button class=""jspsych-btn""><img src=""stimuli/darkgreenblue.png"" style=""width: 200px;height: 200px;""></button>","0","darkgreenblue","neonyellow","[""darkgreenblue"",""neonyellow"",""low nameability""]","left-right","[""darkgreenblue"",""neonyellow"",""low nameability""]","1","low nameability","9","left","response","1"
"html-audio-button-response","55","840603","0.0-42.0-1.0","CAN_101","101","","","","","","null","stimuli/bleep.m4a","null","darkgreenblue","neonyellow","[""darkgreenblue"",""neonyellow"",""low nameability""]","left-right","[""darkgreenblue"",""neonyellow"",""low nameability""]","1","low nameability","9","left","audio_feedback","1"
"html-button-response","56","841123","0.0-43.0","CAN_101","101","","","","","","null","<button class=""jspsych-btn""><img src=""stimuli/white_square.png"" style=""width: 200px;height: 200px;""></button>","null","darkgreenblue","neonyellow","[""darkgreenblue"",""neonyellow"",""low nameability""]","left-right","[""darkgreenblue"",""neonyellow"",""low nameability""]","1","low nameability","9","left","iti",""
"html-button-response","57","841689","0.0-44.0","CAN_101","101","","","","","","549","","0","brown","red","[""brown"",""red"",""high nameability""]","left-right","[""brown"",""red"",""high nameability""]","1","high nameability","10","left","trigger",""
"html-button-response","58","842378","0.0-45.0-0.0","CAN_101","101","","","","","","681","<button class=""jspsych-btn""><img src=""stimuli/brown.png"" style=""width: 200px;height: 200px;""></button>","0","brown","red","[""brown"",""red"",""high nameability""]","left-right","[""brown"",""red"",""high nameability""]","1","high nameability","10","left","response","1"
"html-audio-button-response","59","842583","0.0-45.0-1.0","CAN_101","101","","","","","","null","stimuli/bleep.m4a","null","brown","red","[""brown"",""red"",""high nameability""]","left-right","[""brown"",""red"",""high nameability""]","1","high nameability","10","left","audio_feedback","1"
"html-button-response","60","843107","0.0-46.0","CAN_101","101","","","","","","null","<button class=""jspsych-btn""><img src=""stimuli/white_square.png"" style=""width: 200px;height: 200px;""></button>","null","brown","red","[""brown"",""red"",""high nameability""]","left-right","[""brown"",""red"",""high nameability""]","1","high nameability","10","left","iti",""
"pavlovia","61","843198","0.0-47.0","CAN_101","101","","","","","","","","","","","","","","","","","","",""
"pavlovia","62","843214","0.0-48.0","CAN_101","101","","","","","","","","","","","","","","","","","","",""
"html-audio-button-response","63","845930","0.0-49.0","CAN_101","101","","","","","","2816","stimuli/tada.m4a","0","","","","","","","","","","",""
"html-button-response","64","849550","0.0-50.0","CAN_101","101","","","","","","3613","","0","","","","","","","","","","",""
"html-button-response","65","850749","0.0-51.0","CAN_101","101","","","","","","1194","","0","yellow","orange","[""yellow"",""orange"",""high nameability""]","right-left","[""orange"",""yellow""]","2","high nameability","11","right","trigger",""
"html-button-response","66","851523","0.0-52.0-0.0","CAN_101","101","","","","","","766","<button class=""jspsych-btn""><img src=""stimuli/yellow.png"" style=""width: 200px;height: 200px;""></button>","1","yellow","orange","[""yellow"",""orange"",""high nameability""]","right-left","[""orange"",""yellow""]","2","high nameability","11","right","response","1"
"html-audio-button-response","67","851728","0.0-52.0-1.0","CAN_101","101","","","","","","null","stimuli/bleep.m4a","null","yellow","orange","[""yellow"",""orange"",""high nameability""]","right-left","[""orange"",""yellow""]","2","high nameability","11","right","audio_feedback","1"
"html-button-response","68","852248","0.0-53.0","CAN_101","101","","","","","","null","<button class=""jspsych-btn""><img src=""stimuli/white_square.png"" style=""width: 200px;height: 200px;""></button>","null","yellow","orange","[""yellow"",""orange"",""high nameability""]","right-left","[""orange"",""yellow""]","2","high nameability","11","right","iti",""
"html-button-response","69","852858","0.0-54.0","CAN_101","101","","","","","","591","","0","purple","orange","[""purple"",""orange"",""high nameability""]","left-right","[""purple"",""orange"",""high nameability""]","2","high nameability","12","left","trigger",""
"html-button-response","70","854015","0.0-55.0-0.0","CAN_101","101","","","","","","1149","<button class=""jspsych-btn""><img src=""stimuli/purple.png"" style=""width: 200px;height: 200px;""></button>","0","purple","orange","[""purple"",""orange"",""high nameability""]","left-right","[""purple"",""orange"",""high nameability""]","2","high nameability","12","left","response","1"
"html-audio-button-response","71","854222","0.0-55.0-1.0","CAN_101","101","","","","","","null","stimuli/bleep.m4a","null","purple","orange","[""purple"",""orange"",""high nameability""]","left-right","[""purple"",""orange"",""high nameability""]","2","high nameability","12","left","audio_feedback","1"
"html-button-response","72","854742","0.0-56.0","CAN_101","101","","","","","","null","<button class=""jspsych-btn""><img src=""stimuli/white_square.png"" style=""width: 200px;height: 200px;""></button>","null","purple","orange","[""purple"",""orange"",""high nameability""]","left-right","[""purple"",""orange"",""high nameability""]","2","high nameability","12","left","iti",""
"html-button-response","73","855259","0.0-57.0","CAN_101","101","","","","","","498","","0","brown","purple","[""brown"",""purple"",""high nameability""]","left-right","[""brown"",""purple"",""high nameability""]","2","high nameability","13","left","trigger",""
"html-button-response","74","856169","0.0-58.0-0.0","CAN_101","101","","","","","","904","<button class=""jspsych-btn""><img src=""stimuli/brown.png"" style=""width: 200px;height: 200px;""></button>","0","brown","purple","[""brown"",""purple"",""high nameability""]","left-right","[""brown"",""purple"",""high nameability""]","2","high nameability","13","left","response","1"
"html-audio-button-response","75","856373","0.0-58.0-1.0","CAN_101","101","","","","","","null","stimuli/bleep.m4a","null","brown","purple","[""brown"",""purple"",""high nameability""]","left-right","[""brown"",""purple"",""high nameability""]","2","high nameability","13","left","audio_feedback","1"
"html-button-response","76","856886","0.0-59.0","CAN_101","101","","","","","","null","<button class=""jspsych-btn""><img src=""stimuli/white_square.png"" style=""width: 200px;height: 200px;""></button>","null","brown","purple","[""brown"",""purple"",""high nameability""]","left-right","[""brown"",""purple"",""high nameability""]","2","high nameability","13","left","iti",""
"html-button-response","77","857529","0.0-60.0","CAN_101","101","","","","","","619","","0","mustard","lightred","[""mustard"",""lightred"",""low nameability""]","left-right","[""mustard"",""lightred"",""low nameability""]","2","low nameability","14","left","trigger",""
"html-button-response","78","858168","0.0-61.0-0.0","CAN_101","101","","","","","","631","<button class=""jspsych-btn""><img src=""stimuli/mustard.png"" style=""width: 200px;height: 200px;""></button>","0","mustard","lightred","[""mustard"",""lightred"",""low nameability""]","left-right","[""mustard"",""lightred"",""low nameability""]","2","low nameability","14","left","response","1"
"html-audio-button-response","79","858373","0.0-61.0-1.0","CAN_101","101","","","","","","null","stimuli/bleep.m4a","null","mustard","lightred","[""mustard"",""lightred"",""low nameability""]","left-right","[""mustard"",""lightred"",""low nameability""]","2","low nameability","14","left","audio_feedback","1"
"html-button-response","80","858895","0.0-62.0","CAN_101","101","","","","","","null","<button class=""jspsych-btn""><img src=""stimuli/white_square.png"" style=""width: 200px;height: 200px;""></button>","null","mustard","lightred","[""mustard"",""lightred"",""low nameability""]","left-right","[""mustard"",""lightred"",""low nameability""]","2","low nameability","14","left","iti",""
"html-button-response","81","859597","0.0-63.0","CAN_101","101","","","","","","692","","0","lightred","turquoise","[""lightred"",""turquoise"",""low nameability""]","left-right","[""lightred"",""turquoise"",""low nameability""]","2","low nameability","15","left","trigger",""
"html-button-response","82","860239","0.0-64.0-0.0","CAN_101","101","","","","","","635","<button class=""jspsych-btn""><img src=""stimuli/lightred.png"" style=""width: 200px;height: 200px;""></button>","0","lightred","turquoise","[""lightred"",""turquoise"",""low nameability""]","left-right","[""lightred"",""turquoise"",""low nameability""]","2","low nameability","15","left","response","1"
"html-audio-button-response","83","860442","0.0-64.0-1.0","CAN_101","101","","","","","","null","stimuli/bleep.m4a","null","lightred","turquoise","[""lightred"",""turquoise"",""low nameability""]","left-right","[""lightred"",""turquoise"",""low nameability""]","2","low nameability","15","left","audio_feedback","1"
"html-button-response","84","860962","0.0-65.0","CAN_101","101","","","","","","null","<button class=""jspsych-btn""><img src=""stimuli/white_square.png"" style=""width: 200px;height: 200px;""></button>","null","lightred","turquoise","[""lightred"",""turquoise"",""low nameability""]","left-right","[""lightred"",""turquoise"",""low nameability""]","2","low nameability","15","left","iti",""
"html-button-response","85","861533","0.0-66.0","CAN_101","101","","","","","","552","","0","neonyellow","lightred","[""neonyellow"",""lightred"",""low nameability""]","right-left","[""lightred"",""neonyellow""]","2","low nameability","16","right","trigger",""
"html-button-response","86","862223","0.0-67.0-0.0","CAN_101","101","","","","","","683","<button class=""jspsych-btn""><img src=""stimuli/neonyellow.png"" style=""width: 200px;height: 200px;""></button>","1","neonyellow","lightred","[""neonyellow"",""lightred"",""low nameability""]","right-left","[""lightred"",""neonyellow""]","2","low nameability","16","right","response","1"
"html-audio-button-response","87","862426","0.0-67.0-1.0","CAN_101","101","","","","","","null","stimuli/bleep.m4a","null","neonyellow","lightred","[""neonyellow"",""lightred"",""low nameability""]","right-left","[""lightred"",""neonyellow""]","2","low nameability","16","right","audio_feedback","1"
"html-button-response","88","862943","0.0-68.0","CAN_101","101","","","","","","null","<button class=""jspsych-btn""><img src=""stimuli/white_square.png"" style=""width: 200px;height: 200px;""></button>","null","neonyellow","lightred","[""neonyellow"",""lightred"",""low nameability""]","right-left","[""lightred"",""neonyellow""]","2","low nameability","16","right","iti",""
"html-button-response","89","863675","0.0-69.0","CAN_101","101","","","","","","712","","0","turquoise","darkgreenblue","[""turquoise"",""darkgreenblue"",""low nameability""]","right-left","[""darkgreenblue"",""turquoise""]","2","low nameability","17","right","trigger",""
"html-button-response","90","864391","0.0-70.0-0.0","CAN_101","101","","","","","","709","<button class=""jspsych-btn""><img src=""stimuli/turquoise.png"" style=""width: 200px;height: 200px;""></button>","1","turquoise","darkgreenblue","[""turquoise"",""darkgreenblue"",""low nameability""]","right-left","[""darkgreenblue"",""turquoise""]","2","low nameability","17","right","response","1"
"html-audio-button-response","91","864593","0.0-70.0-1.0","CAN_101","101","","","","","","null","stimuli/bleep.m4a","null","turquoise","darkgreenblue","[""turquoise"",""darkgreenblue"",""low nameability""]","right-left","[""darkgreenblue"",""turquoise""]","2","low nameability","17","right","audio_feedback","1"
"html-button-response","92","865113","0.0-71.0","CAN_101","101","","","","","","null","<button class=""jspsych-btn""><img src=""stimuli/white_square.png"" style=""width: 200px;height: 200px;""></button>","null","turquoise","darkgreenblue","[""turquoise"",""darkgreenblue"",""low nameability""]","right-left","[""darkgreenblue"",""turquoise""]","2","low nameability","17","right","iti",""
"html-button-response","93","865748","0.0-72.0","CAN_101","101","","","","","","617","","0","yellow","blue","[""yellow"",""blue"",""high nameability""]","right-left","[""blue"",""yellow""]","2","high nameability","18","right","trigger",""
"html-button-response","94","866471","0.0-73.0-0.0","CAN_101","101","","","","","","715","<button class=""jspsych-btn""><img src=""stimuli/yellow.png"" style=""width: 200px;height: 200px;""></button>","1","yellow","blue","[""yellow"",""blue"",""high nameability""]","right-left","[""blue"",""yellow""]","2","high nameability","18","right","response","1"
"html-audio-button-response","95","866674","0.0-73.0-1.0","CAN_101","101","","","","","","null","stimuli/bleep.m4a","null","yellow","blue","[""yellow"",""blue"",""high nameability""]","right-left","[""blue"",""yellow""]","2","high nameability","18","right","audio_feedback","1"
"html-button-response","96","867206","0.0-74.0","CAN_101","101","","","","","","null","<button class=""jspsych-btn""><img src=""stimuli/white_square.png"" style=""width: 200px;height: 200px;""></button>","null","yellow","blue","[""yellow"",""blue"",""high nameability""]","right-left","[""blue"",""yellow""]","2","high nameability","18","right","iti",""
"html-button-response","97","867815","0.0-75.0","CAN_101","101","","","","","","593","","0","red","orange","[""red"",""orange"",""high nameability""]","left-right","[""red"",""orange"",""high nameability""]","2","high nameability","19","left","trigger",""
"html-button-response","98","868454","0.0-76.0-0.0","CAN_101","101","","","","","","632","<button class=""jspsych-btn""><img src=""stimuli/red.png"" style=""width: 200px;height: 200px;""></button>","0","red","orange","[""red"",""orange"",""high nameability""]","left-right","[""red"",""orange"",""high nameability""]","2","high nameability","19","left","response","1"
"html-audio-button-response","99","868661","0.0-76.0-1.0","CAN_101","101","","","","","","null","stimuli/bleep.m4a","null","red","orange","[""red"",""orange"",""high nameability""]","left-right","[""red"",""orange"",""high nameability""]","2","high nameability","19","left","audio_feedback","1"
"html-button-response","100","869182","0.0-77.0","CAN_101","101","","","","","","null","<button class=""jspsych-btn""><img src=""stimuli/white_square.png"" style=""width: 200px;height: 200px;""></button>","null","red","orange","[""red"",""orange"",""high nameability""]","left-right","[""red"",""orange"",""high nameability""]","2","high nameability","19","left","iti",""
"html-button-response","101","869731","0.0-78.0","CAN_101","101","","","","","","539","","0","orange","yellow","[""orange"",""yellow"",""high nameability""]","right-left","[""yellow"",""orange""]","2","high nameability","20","right","trigger",""
"html-button-response","102","870385","0.0-79.0-0.0","CAN_101","101","","","","","","647","<button class=""jspsych-btn""><img src=""stimuli/orange.png"" style=""width: 200px;height: 200px;""></button>","1","orange","yellow","[""orange"",""yellow"",""high nameability""]","right-left","[""yellow"",""orange""]","2","high nameability","20","right","response","1"
"html-audio-button-response","103","870591","0.0-79.0-1.0","CAN_101","101","","","","","","null","stimuli/bleep.m4a","null","orange","yellow","[""orange"",""yellow"",""high nameability""]","right-left","[""yellow"",""orange""]","2","high nameability","20","right","audio_feedback","1"
"html-button-response","104","871110","0.0-80.0","CAN_101","101","","","","","","null","<button class=""jspsych-btn""><img src=""stimuli/white_square.png"" style=""width: 200px;height: 200px;""></button>","null","orange","yellow","[""orange"",""yellow"",""high nameability""]","right-left","[""yellow"",""orange""]","2","high nameability","20","right","iti",""
"pavlovia","105","871158","0.0-81.0","CAN_101","101","","","","","","","","","","","","","","","","","","",""
"pavlovia","106","871164","0.0-82.0","CAN_101","101","","","","","","","","","","","","","","","","","","",""
"html-audio-button-response","107","874191","0.0-83.0","CAN_101","101","","","","","","3077","stimuli/tada.m4a","0","","","","","","","","","","",""
"html-button-response","108","875754","0.0-84.0","CAN_101","101","","","","","","1554","","0","","","","","","","","","","",""
"html-button-response","109","876630","0.0-85.0","CAN_101","101","","","","","","867","","0","neonyellow","mustard","[""neonyellow"",""mustard"",""low nameability""]","right-left","[""mustard"",""neonyellow""]","3","low nameability","21","right","trigger",""
"html-button-response","110","877381","0.0-86.0-0.0","CAN_101","101","","","","","","745","<button class=""jspsych-btn""><img src=""stimuli/neonyellow.png"" style=""width: 200px;height: 200px;""></button>","1","neonyellow","mustard","[""neonyellow"",""mustard"",""low nameability""]","right-left","[""mustard"",""neonyellow""]","3","low nameability","21","right","response","1"
"html-audio-button-response","111","877587","0.0-86.0-1.0","CAN_101","101","","","","","","null","stimuli/bleep.m4a","null","neonyellow","mustard","[""neonyellow"",""mustard"",""low nameability""]","right-left","[""mustard"",""neonyellow""]","3","low nameability","21","right","audio_feedback","1"
"html-button-response","112","878110","0.0-87.0","CAN_101","101","","","","","","null","<button class=""jspsych-btn""><img src=""stimuli/white_square.png"" style=""width: 200px;height: 200px;""></button>","null","neonyellow","mustard","[""neonyellow"",""mustard"",""low nameability""]","right-left","[""mustard"",""neonyellow""]","3","low nameability","21","right","iti",""
"html-button-response","113","878628","0.0-88.0","CAN_101","101","","","","","","503","","0","yellow","purple","[""yellow"",""purple"",""high nameability""]","left-right","[""yellow"",""purple"",""high nameability""]","3","high nameability","22","left","trigger",""
"html-button-response","114","879201","0.0-89.0-0.0","CAN_101","101","","","","","","568","<button class=""jspsych-btn""><img src=""stimuli/yellow.png"" style=""width: 200px;height: 200px;""></button>","0","yellow","purple","[""yellow"",""purple"",""high nameability""]","left-right","[""yellow"",""purple"",""high nameability""]","3","high nameability","22","left","response","1"
"html-audio-button-response","115","879406","0.0-89.0-1.0","CAN_101","101","","","","","","null","stimuli/bleep.m4a","null","yellow","purple","[""yellow"",""purple"",""high nameability""]","left-right","[""yellow"",""purple"",""high nameability""]","3","high nameability","22","left","audio_feedback","1"
"html-button-response","116","879921","0.0-90.0","CAN_101","101","","","","","","null","<button class=""jspsych-btn""><img src=""stimuli/white_square.png"" style=""width: 200px;height: 200px;""></button>","null","yellow","purple","[""yellow"",""purple"",""high nameability""]","left-right","[""yellow"",""purple"",""high nameability""]","3","high nameability","22","left","iti",""
"html-button-response","117","880495","0.0-91.0","CAN_101","101","","","","","","556","","0","darkgreenblue","lightred","[""darkgreenblue"",""lightred"",""low nameability""]","left-right","[""darkgreenblue"",""lightred"",""low nameability""]","3","low nameability","23","left","trigger",""
"html-button-response","118","881102","0.0-92.0-0.0","CAN_101","101","","","","","","600","<button class=""jspsych-btn""><img src=""stimuli/darkgreenblue.png"" style=""width: 200px;height: 200px;""></button>","0","darkgreenblue","lightred","[""darkgreenblue"",""lightred"",""low nameability""]","left-right","[""darkgreenblue"",""lightred"",""low nameability""]","3","low nameability","23","left","response","1"
"html-audio-button-response","119","881305","0.0-92.0-1.0","CAN_101","101","","","","","","null","stimuli/bleep.m4a","null","darkgreenblue","lightred","[""darkgreenblue"",""lightred"",""low nameability""]","left-right","[""darkgreenblue"",""lightred"",""low nameability""]","3","low nameability","23","left","audio_feedback","1"
"html-button-response","120","881827","0.0-93.0","CAN_101","101","","","","","","null","<button class=""jspsych-btn""><img src=""stimuli/white_square.png"" style=""width: 200px;height: 200px;""></button>","null","darkgreenblue","lightred","[""darkgreenblue"",""lightred"",""low nameability""]","left-right","[""darkgreenblue"",""lightred"",""low nameability""]","3","low nameability","23","left","iti",""
"html-button-response","121","882385","0.0-94.0","CAN_101","101","","","","","","540","","0","lightred","neonyellow","[""lightred"",""neonyellow"",""low nameability""]","left-right","[""lightred"",""neonyellow"",""low nameability""]","3","low nameability","24","left","trigger",""
"html-button-response","122","883042","0.0-95.0-0.0","CAN_101","101","","","","","","648","<button class=""jspsych-btn""><img src=""stimuli/lightred.png"" style=""width: 200px;height: 200px;""></button>","0","lightred","neonyellow","[""lightred"",""neonyellow"",""low nameability""]","left-right","[""lightred"",""neonyellow"",""low nameability""]","3","low nameability","24","left","response","1"
"html-audio-button-response","123","883247","0.0-95.0-1.0","CAN_101","101","","","","","","null","stimuli/bleep.m4a","null","lightred","neonyellow","[""lightred"",""neonyellow"",""low nameability""]","left-right","[""lightred"",""neonyellow"",""low nameability""]","3","low nameability","24","left","audio_feedback","1"
"html-button-response","124","883769","0.0-96.0","CAN_101","101","","","","","","null","<button class=""jspsych-btn""><img src=""stimuli/white_square.png"" style=""width: 200px;height: 200px;""></button>","null","lightred","neonyellow","[""lightred"",""neonyellow"",""low nameability""]","left-right","[""lightred"",""neonyellow"",""low nameability""]","3","low nameability","24","left","iti",""
"html-button-response","125","884281","0.0-97.0","CAN_101","101","","","","","","492","","0","turquoise","mustard","[""turquoise"",""mustard"",""low nameability""]","left-right","[""turquoise"",""mustard"",""low nameability""]","3","low nameability","25","left","trigger",""
"html-button-response","126","884847","0.0-98.0-0.0","CAN_101","101","","","","","","560","<button class=""jspsych-btn""><img src=""stimuli/turquoise.png"" style=""width: 200px;height: 200px;""></button>","0","turquoise","mustard","[""turquoise"",""mustard"",""low nameability""]","left-right","[""turquoise"",""mustard"",""low nameability""]","3","low nameability","25","left","response","1"
"html-audio-button-response","127","885055","0.0-98.0-1.0","CAN_101","101","","","","","","null","stimuli/bleep.m4a","null","turquoise","mustard","[""turquoise"",""mustard"",""low nameability""]","left-right","[""turquoise"",""mustard"",""low nameability""]","3","low nameability","25","left","audio_feedback","1"
"html-button-response","128","885575","0.0-99.0","CAN_101","101","","","","","","null","<button class=""jspsych-btn""><img src=""stimuli/white_square.png"" style=""width: 200px;height: 200px;""></button>","null","turquoise","mustard","[""turquoise"",""mustard"",""low nameability""]","left-right","[""turquoise"",""mustard"",""low nameability""]","3","low nameability","25","left","iti",""
"html-button-response","129","886104","0.0-100.0","CAN_101","101","","","","","","512","","0","turquoise","lightred","[""turquoise"",""lightred"",""low nameability""]","right-left","[""lightred"",""turquoise""]","3","low nameability","26","right","trigger",""
"html-button-response","130","886917","0.0-101.0-0.0","CAN_101","101","","","","","","804","<button class=""jspsych-btn""><img src=""stimuli/turquoise.png"" style=""width: 200px;height: 200px;""></button>","1","turquoise","lightred","[""turquoise"",""lightred"",""low nameability""]","right-left","[""lightred"",""turquoise""]","3","low nameability","26","right","response","1"
"html-audio-button-response","131","887123","0.0-101.0-1.0","CAN_101","101","","","","","","null","stimuli/bleep.m4a","null","turquoise","lightred","[""turquoise"",""lightred"",""low nameability""]","right-left","[""lightred"",""turquoise""]","3","low nameability","26","right","audio_feedback","1"
"html-button-response","132","887643","0.0-102.0","CAN_101","101","","","","","","null","<button class=""jspsych-btn""><img src=""stimuli/white_square.png"" style=""width: 200px;height: 200px;""></button>","null","turquoise","lightred","[""turquoise"",""lightred"",""low nameability""]","right-left","[""lightred"",""turquoise""]","3","low nameability","26","right","iti",""
"html-button-response","133","888199","0.0-103.0","CAN_101","101","","","","","","530","","0","purple","red","[""purple"",""red"",""high nameability""]","right-left","[""red"",""purple""]","3","high nameability","27","right","trigger",""
"html-button-response","134","888890","0.0-104.0-0.0","CAN_101","101","","","","","","686","<button class=""jspsych-btn""><img src=""stimuli/purple.png"" style=""width: 200px;height: 200px;""></button>","1","purple","red","[""purple"",""red"",""high nameability""]","right-left","[""red"",""purple""]","3","high nameability","27","right","response","1"
"html-audio-button-response","135","889094","0.0-104.0-1.0","CAN_101","101","","","","","","null","stimuli/bleep.m4a","null","purple","red","[""purple"",""red"",""high nameability""]","right-left","[""red"",""purple""]","3","high nameability","27","right","audio_feedback","1"
"html-button-response","136","889621","0.0-105.0","CAN_101","101","","","","","","null","<button class=""jspsych-btn""><img src=""stimuli/white_square.png"" style=""width: 200px;height: 200px;""></button>","null","purple","red","[""purple"",""red"",""high nameability""]","right-left","[""red"",""purple""]","3","high nameability","27","right","iti",""
"html-button-response","137","890154","0.0-106.0","CAN_101","101","","","","","","514","","0","blue","brown","[""blue"",""brown"",""high nameability""]","right-left","[""brown"",""blue""]","3","high nameability","28","right","trigger",""
"html-button-response","138","892088","0.0-107.0-0.0","CAN_101","101","","","","","","1926","<button class=""jspsych-btn""><img src=""stimuli/blue.png"" style=""width: 200px;height: 200px;""></button>","1","blue","brown","[""blue"",""brown"",""high nameability""]","right-left","[""brown"",""blue""]","3","high nameability","28","right","response","1"
"html-audio-button-response","139","892294","0.0-107.0-1.0","CAN_101","101","","","","","","null","stimuli/bleep.m4a","null","blue","brown","[""blue"",""brown"",""high nameability""]","right-left","[""brown"",""blue""]","3","high nameability","28","right","audio_feedback","1"
"html-button-response","140","892813","0.0-108.0","CAN_101","101","","","","","","null","<button class=""jspsych-btn""><img src=""stimuli/white_square.png"" style=""width: 200px;height: 200px;""></button>","null","blue","brown","[""blue"",""brown"",""high nameability""]","right-left","[""brown"",""blue""]","3","high nameability","28","right","iti",""
"html-button-response","141","893500","0.0-109.0","CAN_101","101","","","","","","666","","0","blue","yellow","[""blue"",""yellow"",""high nameability""]","right-left","[""yellow"",""blue""]","3","high nameability","29","right","trigger",""
"html-button-response","142","894216","0.0-110.0-0.0","CAN_101","101","","","","","","707","<button class=""jspsych-btn""><img src=""stimuli/blue.png"" style=""width: 200px;height: 200px;""></button>","1","blue","yellow","[""blue"",""yellow"",""high nameability""]","right-left","[""yellow"",""blue""]","3","high nameability","29","right","response","1"
"html-audio-button-response","143","894421","0.0-110.0-1.0","CAN_101","101","","","","","","null","stimuli/bleep.m4a","null","blue","yellow","[""blue"",""yellow"",""high nameability""]","right-left","[""yellow"",""blue""]","3","high nameability","29","right","audio_feedback","1"
"html-button-response","144","894940","0.0-111.0","CAN_101","101","","","","","","null","<button class=""jspsych-btn""><img src=""stimuli/white_square.png"" style=""width: 200px;height: 200px;""></button>","null","blue","yellow","[""blue"",""yellow"",""high nameability""]","right-left","[""yellow"",""blue""]","3","high nameability","29","right","iti",""
"html-button-response","145","895497","0.0-112.0","CAN_101","101","","","","","","539","","0","orange","red","[""orange"",""red"",""high nameability""]","right-left","[""red"",""orange""]","3","high nameability","30","right","trigger",""
"html-button-response","146","896211","0.0-113.0-0.0","CAN_101","101","","","","","","707","<button class=""jspsych-btn""><img src=""stimuli/orange.png"" style=""width: 200px;height: 200px;""></button>","1","orange","red","[""orange"",""red"",""high nameability""]","right-left","[""red"",""orange""]","3","high nameability","30","right","response","1"
"html-audio-button-response","147","896414","0.0-113.0-1.0","CAN_101","101","","","","","","null","stimuli/bleep.m4a","null","orange","red","[""orange"",""red"",""high nameability""]","right-left","[""red"",""orange""]","3","high nameability","30","right","audio_feedback","1"
"html-button-response","148","896935","0.0-114.0","CAN_101","101","","","","","","null","<button class=""jspsych-btn""><img src=""stimuli/white_square.png"" style=""width: 200px;height: 200px;""></button>","null","orange","red","[""orange"",""red"",""high nameability""]","right-left","[""red"",""orange""]","3","high nameability","30","right","iti",""
"pavlovia","149","897008","0.0-115.0","CAN_101","101","","","","","","","","","","","","","","","","","","",""
"pavlovia","150","897015","0.0-116.0","CAN_101","101","","","","","","","","","","","","","","","","","","",""
"html-audio-button-response","151","898259","0.0-117.0","CAN_101","101","","","","","","1320","stimuli/tada.m4a","0","","","","","","","","","","",""
"html-button-response","152","899016","0.0-118.0","CAN_101","101","","","","","","751","","0","","","","","","","","","","",""
"html-button-response","153","899597","0.0-119.0","CAN_101","101","","","","","","574","","0","pink","neonyellow","[""pink"",""neonyellow"",""low nameability""]","right-left","[""neonyellow"",""pink""]","4","low nameability","31","right","trigger",""
"html-button-response","154","900273","0.0-120.0-0.0","CAN_101","101","","","","","","669","<button class=""jspsych-btn""><img src=""stimuli/pink.png"" style=""width: 200px;height: 200px;""></button>","1","pink","neonyellow","[""pink"",""neonyellow"",""low nameability""]","right-left","[""neonyellow"",""pink""]","4","low nameability","31","right","response","1"
"html-audio-button-response","155","900473","0.0-120.0-1.0","CAN_101","101","","","","","","null","stimuli/bleep.m4a","null","pink","neonyellow","[""pink"",""neonyellow"",""low nameability""]","right-left","[""neonyellow"",""pink""]","4","low nameability","31","right","audio_feedback","1"
"html-button-response","156","900990","0.0-121.0","CAN_101","101","","","","","","null","<button class=""jspsych-btn""><img src=""stimuli/white_square.png"" style=""width: 200px;height: 200px;""></button>","null","pink","neonyellow","[""pink"",""neonyellow"",""low nameability""]","right-left","[""neonyellow"",""pink""]","4","low nameability","31","right","iti",""
"html-button-response","157","901464","0.0-122.0","CAN_101","101","","","","","","453","","0","red","yellow","[""red"",""yellow"",""high nameability""]","left-right","[""red"",""yellow"",""high nameability""]","4","high nameability","32","left","trigger",""
"html-button-response","158","902101","0.0-123.0-0.0","CAN_101","101","","","","","","629","<button class=""jspsych-btn""><img src=""stimuli/red.png"" style=""width: 200px;height: 200px;""></button>","0","red","yellow","[""red"",""yellow"",""high nameability""]","left-right","[""red"",""yellow"",""high nameability""]","4","high nameability","32","left","response","1"
"html-audio-button-response","159","902305","0.0-123.0-1.0","CAN_101","101","","","","","","null","stimuli/bleep.m4a","null","red","yellow","[""red"",""yellow"",""high nameability""]","left-right","[""red"",""yellow"",""high nameability""]","4","high nameability","32","left","audio_feedback","1"
"html-button-response","160","902828","0.0-124.0","CAN_101","101","","","","","","null","<button class=""jspsych-btn""><img src=""stimuli/white_square.png"" style=""width: 200px;height: 200px;""></button>","null","red","yellow","[""red"",""yellow"",""high nameability""]","left-right","[""red"",""yellow"",""high nameability""]","4","high nameability","32","left","iti",""
"html-button-response","161","903354","0.0-125.0","CAN_101","101","","","","","","509","","0","neonyellow","darkgreenblue","[""neonyellow"",""darkgreenblue"",""low nameability""]","right-left","[""darkgreenblue"",""neonyellow""]","4","low nameability","33","right","trigger",""
"html-button-response","162","904077","0.0-126.0-0.0","CAN_101","101","","","","","","715","<button class=""jspsych-btn""><img src=""stimuli/neonyellow.png"" style=""width: 200px;height: 200px;""></button>","1","neonyellow","darkgreenblue","[""neonyellow"",""darkgreenblue"",""low nameability""]","right-left","[""darkgreenblue"",""neonyellow""]","4","low nameability","33","right","response","1"
"html-audio-button-response","163","904282","0.0-126.0-1.0","CAN_101","101","","","","","","null","stimuli/bleep.m4a","null","neonyellow","darkgreenblue","[""neonyellow"",""darkgreenblue"",""low nameability""]","right-left","[""darkgreenblue"",""neonyellow""]","4","low nameability","33","right","audio_feedback","1"
"html-button-response","164","904808","0.0-127.0","CAN_101","101","","","","","","null","<button class=""jspsych-btn""><img src=""stimuli/white_square.png"" style=""width: 200px;height: 200px;""></button>","null","neonyellow","darkgreenblue","[""neonyellow"",""darkgreenblue"",""low nameability""]","right-left","[""darkgreenblue"",""neonyellow""]","4","low nameability","33","right","iti",""
"html-button-response","165","905361","0.0-128.0","CAN_101","101","","","","","","536","","0","pink","mustard","[""pink"",""mustard"",""low nameability""]","right-left","[""mustard"",""pink""]","4","low nameability","34","right","trigger",""
"html-button-response","166","906027","0.0-129.0-0.0","CAN_101","101","","","","","","658","<button class=""jspsych-btn""><img src=""stimuli/pink.png"" style=""width: 200px;height: 200px;""></button>","1","pink","mustard","[""pink"",""mustard"",""low nameability""]","right-left","[""mustard"",""pink""]","4","low nameability","34","right","response","1"
"html-audio-button-response","167","906230","0.0-129.0-1.0","CAN_101","101","","","","","","null","stimuli/bleep.m4a","null","pink","mustard","[""pink"",""mustard"",""low nameability""]","right-left","[""mustard"",""pink""]","4","low nameability","34","right","audio_feedback","1"
"html-button-response","168","906748","0.0-130.0","CAN_101","101","","","","","","null","<button class=""jspsych-btn""><img src=""stimuli/white_square.png"" style=""width: 200px;height: 200px;""></button>","null","pink","mustard","[""pink"",""mustard"",""low nameability""]","right-left","[""mustard"",""pink""]","4","low nameability","34","right","iti",""
"html-button-response","169","907356","0.0-131.0","CAN_101","101","","","","","","588","","0","orange","purple","[""orange"",""purple"",""high nameability""]","right-left","[""purple"",""orange""]","4","high nameability","35","right","trigger",""
"html-button-response","170","908010","0.0-132.0-0.0","CAN_101","101","","","","","","648","<button class=""jspsych-btn""><img src=""stimuli/orange.png"" style=""width: 200px;height: 200px;""></button>","1","orange","purple","[""orange"",""purple"",""high nameability""]","right-left","[""purple"",""orange""]","4","high nameability","35","right","response","1"
"html-audio-button-response","171","908215","0.0-132.0-1.0","CAN_101","101","","","","","","null","stimuli/bleep.m4a","null","orange","purple","[""orange"",""purple"",""high nameability""]","right-left","[""purple"",""orange""]","4","high nameability","35","right","audio_feedback","1"
"html-button-response","172","908739","0.0-133.0","CAN_101","101","","","","","","null","<button class=""jspsych-btn""><img src=""stimuli/white_square.png"" style=""width: 200px;height: 200px;""></button>","null","orange","purple","[""orange"",""purple"",""high nameability""]","right-left","[""purple"",""orange""]","4","high nameability","35","right","iti",""
"html-button-response","173","909279","0.0-134.0","CAN_101","101","","","","","","523","","0","blue","orange","[""blue"",""orange"",""high nameability""]","left-right","[""blue"",""orange"",""high nameability""]","4","high nameability","36","left","trigger",""
"html-button-response","174","909926","0.0-135.0-0.0","CAN_101","101","","","","","","641","<button class=""jspsych-btn""><img src=""stimuli/blue.png"" style=""width: 200px;height: 200px;""></button>","0","blue","orange","[""blue"",""orange"",""high nameability""]","left-right","[""blue"",""orange"",""high nameability""]","4","high nameability","36","left","response","1"
"html-audio-button-response","175","910134","0.0-135.0-1.0","CAN_101","101","","","","","","null","stimuli/bleep.m4a","null","blue","orange","[""blue"",""orange"",""high nameability""]","left-right","[""blue"",""orange"",""high nameability""]","4","high nameability","36","left","audio_feedback","1"
"html-button-response","176","910652","0.0-136.0","CAN_101","101","","","","","","null","<button class=""jspsych-btn""><img src=""stimuli/white_square.png"" style=""width: 200px;height: 200px;""></button>","null","blue","orange","[""blue"",""orange"",""high nameability""]","left-right","[""blue"",""orange"",""high nameability""]","4","high nameability","36","left","iti",""
"html-button-response","177","911291","0.0-137.0","CAN_101","101","","","","","","600","","0","orange","brown","[""orange"",""brown"",""high nameability""]","left-right","[""orange"",""brown"",""high nameability""]","4","high nameability","37","left","trigger",""
"html-button-response","178","911922","0.0-138.0-0.0","CAN_101","101","","","","","","619","<button class=""jspsych-btn""><img src=""stimuli/orange.png"" style=""width: 200px;height: 200px;""></button>","0","orange","brown","[""orange"",""brown"",""high nameability""]","left-right","[""orange"",""brown"",""high nameability""]","4","high nameability","37","left","response","1"
"html-audio-button-response","179","912126","0.0-138.0-1.0","CAN_101","101","","","","","","null","stimuli/bleep.m4a","null","orange","brown","[""orange"",""brown"",""high nameability""]","left-right","[""orange"",""brown"",""high nameability""]","4","high nameability","37","left","audio_feedback","1"
"html-button-response","180","912644","0.0-139.0","CAN_101","101","","","","","","null","<button class=""jspsych-btn""><img src=""stimuli/white_square.png"" style=""width: 200px;height: 200px;""></button>","null","orange","brown","[""orange"",""brown"",""high nameability""]","left-right","[""orange"",""brown"",""high nameability""]","4","high nameability","37","left","iti",""
"html-button-response","181","913109","0.0-140.0","CAN_101","101","","","","","","438","","0","red","brown","[""red"",""brown"",""high nameability""]","left-right","[""red"",""brown"",""high nameability""]","4","high nameability","38","left","trigger",""
"html-button-response","182","913770","0.0-141.0-0.0","CAN_101","101","","","","","","647","<button class=""jspsych-btn""><img src=""stimuli/red.png"" style=""width: 200px;height: 200px;""></button>","0","red","brown","[""red"",""brown"",""high nameability""]","left-right","[""red"",""brown"",""high nameability""]","4","high nameability","38","left","response","1"
"html-audio-button-response","183","913990","0.0-141.0-1.0","CAN_101","101","","","","","","null","stimuli/bleep.m4a","null","red","brown","[""red"",""brown"",""high nameability""]","left-right","[""red"",""brown"",""high nameability""]","4","high nameability","38","left","audio_feedback","1"
"html-button-response","184","914509","0.0-142.0","CAN_101","101","","","","","","null","<button class=""jspsych-btn""><img src=""stimuli/white_square.png"" style=""width: 200px;height: 200px;""></button>","null","red","brown","[""red"",""brown"",""high nameability""]","left-right","[""red"",""brown"",""high nameability""]","4","high nameability","38","left","iti",""
"html-button-response","185","915001","0.0-143.0","CAN_101","101","","","","","","468","","0","blue","red","[""blue"",""red"",""high nameability""]","right-left","[""red"",""blue""]","4","high nameability","39","right","trigger",""
"html-button-response","186","915710","0.0-144.0-0.0","CAN_101","101","","","","","","702","<button class=""jspsych-btn""><img src=""stimuli/blue.png"" style=""width: 200px;height: 200px;""></button>","1","blue","red","[""blue"",""red"",""high nameability""]","right-left","[""red"",""blue""]","4","high nameability","39","right","response","1"
"html-audio-button-response","187","915918","0.0-144.0-1.0","CAN_101","101","","","","","","null","stimuli/bleep.m4a","null","blue","red","[""blue"",""red"",""high nameability""]","right-left","[""red"",""blue""]","4","high nameability","39","right","audio_feedback","1"
"html-button-response","188","916434","0.0-145.0","CAN_101","101","","","","","","null","<button class=""jspsych-btn""><img src=""stimuli/white_square.png"" style=""width: 200px;height: 200px;""></button>","null","blue","red","[""blue"",""red"",""high nameability""]","right-left","[""red"",""blue""]","4","high nameability","39","right","iti",""
"html-button-response","189","917031","0.0-146.0","CAN_101","101","","","","","","568","","0","darkgreenblue","turquoise","[""darkgreenblue"",""turquoise"",""low nameability""]","left-right","[""darkgreenblue"",""turquoise"",""low nameability""]","4","low nameability","40","left","trigger",""
"html-button-response","190","917695","0.0-147.0-0.0","CAN_101","101","","","","","","657","<button class=""jspsych-btn""><img src=""stimuli/darkgreenblue.png"" style=""width: 200px;height: 200px;""></button>","0","darkgreenblue","turquoise","[""darkgreenblue"",""turquoise"",""low nameability""]","left-right","[""darkgreenblue"",""turquoise"",""low nameability""]","4","low nameability","40","left","response","1"
"html-audio-button-response","191","917897","0.0-147.0-1.0","CAN_101","101","","","","","","null","stimuli/bleep.m4a","null","darkgreenblue","turquoise","[""darkgreenblue"",""turquoise"",""low nameability""]","left-right","[""darkgreenblue"",""turquoise"",""low nameability""]","4","low nameability","40","left","audio_feedback","1"
"html-button-response","192","918412","0.0-148.0","CAN_101","101","","","","","","null","<button class=""jspsych-btn""><img src=""stimuli/white_square.png"" style=""width: 200px;height: 200px;""></button>","null","darkgreenblue","turquoise","[""darkgreenblue"",""turquoise"",""low nameability""]","left-right","[""darkgreenblue"",""turquoise"",""low nameability""]","4","low nameability","40","left","iti",""
"pavlovia","193","918451","0.0-149.0","CAN_101","101","","","","","","","","","","","","","","","","","","",""
"pavlovia","194","918458","0.0-150.0","CAN_101","101","","","","","","","","","","","","","","","","","","",""
"html-audio-button-response","195","919887","0.0-151.0","CAN_101","101","","","","","","1472","stimuli/tada.m4a","0","","","","","","","","","","",""
"html-button-response","196","920511","0.0-152.0","CAN_101","101","","","","","","618","","0","","","","","","","","","","",""
"html-button-response","197","921274","0.0-153.0","CAN_101","101","","","","","","754","","0","lightred","mustard","[""lightred"",""mustard"",""low nameability""]","left-right","[""lightred"",""mustard"",""low nameability""]","5","low nameability","41","left","trigger",""
"html-button-response","198","922537","0.0-154.0-0.0","CAN_101","101","","","","","","1254","<button class=""jspsych-btn""><img src=""stimuli/lightred.png"" style=""width: 200px;height: 200px;""></button>","0","lightred","mustard","[""lightred"",""mustard"",""low nameability""]","left-right","[""lightred"",""mustard"",""low nameability""]","5","low nameability","41","left","response","1"
"html-audio-button-response","199","922743","0.0-154.0-1.0","CAN_101","101","","","","","","null","stimuli/bleep.m4a","null","lightred","mustard","[""lightred"",""mustard"",""low nameability""]","left-right","[""lightred"",""mustard"",""low nameability""]","5","low nameability","41","left","audio_feedback","1"
"html-button-response","200","923267","0.0-155.0","CAN_101","101","","","","","","null","<button class=""jspsych-btn""><img src=""stimuli/white_square.png"" style=""width: 200px;height: 200px;""></button>","null","lightred","mustard","[""lightred"",""mustard"",""low nameability""]","left-right","[""lightred"",""mustard"",""low nameability""]","5","low nameability","41","left","iti",""
"html-button-response","201","924021","0.0-156.0","CAN_101","101","","","","","","731","","0","red","blue","[""red"",""blue"",""high nameability""]","right-left","[""blue"",""red""]","5","high nameability","42","right","trigger",""
"html-button-response","202","924726","0.0-157.0-0.0","CAN_101","101","","","","","","691","<button class=""jspsych-btn""><img src=""stimuli/red.png"" style=""width: 200px;height: 200px;""></button>","1","red","blue","[""red"",""blue"",""high nameability""]","right-left","[""blue"",""red""]","5","high nameability","42","right","response","1"
"html-audio-button-response","203","924930","0.0-157.0-1.0","CAN_101","101","","","","","","null","stimuli/bleep.m4a","null","red","blue","[""red"",""blue"",""high nameability""]","right-left","[""blue"",""red""]","5","high nameability","42","right","audio_feedback","1"
"html-button-response","204","925454","0.0-158.0","CAN_101","101","","","","","","null","<button class=""jspsych-btn""><img src=""stimuli/white_square.png"" style=""width: 200px;height: 200px;""></button>","null","red","blue","[""red"",""blue"",""high nameability""]","right-left","[""blue"",""red""]","5","high nameability","42","right","iti",""
"html-button-response","205","926136","0.0-159.0","CAN_101","101","","","","","","667","","0","yellow","brown","[""yellow"",""brown"",""high nameability""]","right-left","[""brown"",""yellow""]","5","high nameability","43","right","trigger",""
"html-button-response","206","926890","0.0-160.0-0.0","CAN_101","101","","","","","","746","<button class=""jspsych-btn""><img src=""stimuli/yellow.png"" style=""width: 200px;height: 200px;""></button>","1","yellow","brown","[""yellow"",""brown"",""high nameability""]","right-left","[""brown"",""yellow""]","5","high nameability","43","right","response","1"
"html-audio-button-response","207","927093","0.0-160.0-1.0","CAN_101","101","","","","","","null","stimuli/bleep.m4a","null","yellow","brown","[""yellow"",""brown"",""high nameability""]","right-left","[""brown"",""yellow""]","5","high nameability","43","right","audio_feedback","1"
"html-button-response","208","927613","0.0-161.0","CAN_101","101","","","","","","null","<button class=""jspsych-btn""><img src=""stimuli/white_square.png"" style=""width: 200px;height: 200px;""></button>","null","yellow","brown","[""yellow"",""brown"",""high nameability""]","right-left","[""brown"",""yellow""]","5","high nameability","43","right","iti",""
"html-button-response","209","928218","0.0-162.0","CAN_101","101","","","","","","586","","0","blue","purple","[""blue"",""purple"",""high nameability""]","left-right","[""blue"",""purple"",""high nameability""]","5","high nameability","44","left","trigger",""
"html-button-response","210","928835","0.0-163.0-0.0","CAN_101","101","","","","","","608","<button class=""jspsych-btn""><img src=""stimuli/blue.png"" style=""width: 200px;height: 200px;""></button>","0","blue","purple","[""blue"",""purple"",""high nameability""]","left-right","[""blue"",""purple"",""high nameability""]","5","high nameability","44","left","response","1"
"html-audio-button-response","211","929038","0.0-163.0-1.0","CAN_101","101","","","","","","null","stimuli/bleep.m4a","null","blue","purple","[""blue"",""purple"",""high nameability""]","left-right","[""blue"",""purple"",""high nameability""]","5","high nameability","44","left","audio_feedback","1"
"html-button-response","212","929560","0.0-164.0","CAN_101","101","","","","","","null","<button class=""jspsych-btn""><img src=""stimuli/white_square.png"" style=""width: 200px;height: 200px;""></button>","null","blue","purple","[""blue"",""purple"",""high nameability""]","left-right","[""blue"",""purple"",""high nameability""]","5","high nameability","44","left","iti",""
"html-button-response","213","930192","0.0-165.0","CAN_101","101","","","","","","610","","0","brown","yellow","[""brown"",""yellow"",""high nameability""]","right-left","[""yellow"",""brown""]","5","high nameability","45","right","trigger",""
"html-button-response","214","930940","0.0-166.0-0.0","CAN_101","101","","","","","","740","<button class=""jspsych-btn""><img src=""stimuli/brown.png"" style=""width: 200px;height: 200px;""></button>","1","brown","yellow","[""brown"",""yellow"",""high nameability""]","right-left","[""yellow"",""brown""]","5","high nameability","45","right","response","1"
"html-audio-button-response","215","931142","0.0-166.0-1.0","CAN_101","101","","","","","","null","stimuli/bleep.m4a","null","brown","yellow","[""brown"",""yellow"",""high nameability""]","right-left","[""yellow"",""brown""]","5","high nameability","45","right","audio_feedback","1"
"html-button-response","216","931659","0.0-167.0","CAN_101","101","","","","","","null","<button class=""jspsych-btn""><img src=""stimuli/white_square.png"" style=""width: 200px;height: 200px;""></button>","null","brown","yellow","[""brown"",""yellow"",""high nameability""]","right-left","[""yellow"",""brown""]","5","high nameability","45","right","iti",""
"html-button-response","217","932187","0.0-168.0","CAN_101","101","","","","","","511","","0","neonyellow","pink","[""neonyellow"",""pink"",""low nameability""]","left-right","[""neonyellow"",""pink"",""low nameability""]","5","low nameability","46","left","trigger",""
"html-button-response","218","932925","0.0-169.0-0.0","CAN_101","101","","","","","","731","<button class=""jspsych-btn""><img src=""stimuli/neonyellow.png"" style=""width: 200px;height: 200px;""></button>","0","neonyellow","pink","[""neonyellow"",""pink"",""low nameability""]","left-right","[""neonyellow"",""pink"",""low nameability""]","5","low nameability","46","left","response","1"
"html-audio-button-response","219","933130","0.0-169.0-1.0","CAN_101","101","","","","","","null","stimuli/bleep.m4a","null","neonyellow","pink","[""neonyellow"",""pink"",""low nameability""]","left-right","[""neonyellow"",""pink"",""low nameability""]","5","low nameability","46","left","audio_feedback","1"
"html-button-response","220","933646","0.0-170.0","CAN_101","101","","","","","","null","<button class=""jspsych-btn""><img src=""stimuli/white_square.png"" style=""width: 200px;height: 200px;""></button>","null","neonyellow","pink","[""neonyellow"",""pink"",""low nameability""]","left-right","[""neonyellow"",""pink"",""low nameability""]","5","low nameability","46","left","iti",""
"html-button-response","221","934197","0.0-171.0","CAN_101","101","","","","","","533","","0","mustard","turquoise","[""mustard"",""turquoise"",""low nameability""]","left-right","[""mustard"",""turquoise"",""low nameability""]","5","low nameability","47","left","trigger",""
"html-button-response","222","934791","0.0-172.0-0.0","CAN_101","101","","","","","","586","<button class=""jspsych-btn""><img src=""stimuli/mustard.png"" style=""width: 200px;height: 200px;""></button>","0","mustard","turquoise","[""mustard"",""turquoise"",""low nameability""]","left-right","[""mustard"",""turquoise"",""low nameability""]","5","low nameability","47","left","response","1"
"html-audio-button-response","223","934997","0.0-172.0-1.0","CAN_101","101","","","","","","null","stimuli/bleep.m4a","null","mustard","turquoise","[""mustard"",""turquoise"",""low nameability""]","left-right","[""mustard"",""turquoise"",""low nameability""]","5","low nameability","47","left","audio_feedback","1"
"html-button-response","224","935510","0.0-173.0","CAN_101","101","","","","","","null","<button class=""jspsych-btn""><img src=""stimuli/white_square.png"" style=""width: 200px;height: 200px;""></button>","null","mustard","turquoise","[""mustard"",""turquoise"",""low nameability""]","left-right","[""mustard"",""turquoise"",""low nameability""]","5","low nameability","47","left","iti",""
"html-button-response","225","936007","0.0-174.0","CAN_101","101","","","","","","482","","0","lightred","pink","[""lightred"",""pink"",""low nameability""]","left-right","[""lightred"",""pink"",""low nameability""]","5","low nameability","48","left","trigger",""
"html-button-response","226","936596","0.0-175.0-0.0","CAN_101","101","","","","","","581","<button class=""jspsych-btn""><img src=""stimuli/lightred.png"" style=""width: 200px;height: 200px;""></button>","0","lightred","pink","[""lightred"",""pink"",""low nameability""]","left-right","[""lightred"",""pink"",""low nameability""]","5","low nameability","48","left","response","1"
"html-audio-button-response","227","936802","0.0-175.0-1.0","CAN_101","101","","","","","","null","stimuli/bleep.m4a","null","lightred","pink","[""lightred"",""pink"",""low nameability""]","left-right","[""lightred"",""pink"",""low nameability""]","5","low nameability","48","left","audio_feedback","1"
"html-button-response","228","937328","0.0-176.0","CAN_101","101","","","","","","null","<button class=""jspsych-btn""><img src=""stimuli/white_square.png"" style=""width: 200px;height: 200px;""></button>","null","lightred","pink","[""lightred"",""pink"",""low nameability""]","left-right","[""lightred"",""pink"",""low nameability""]","5","low nameability","48","left","iti",""
"html-button-response","229","937856","0.0-177.0","CAN_101","101","","","","","","512","","0","orange","blue","[""orange"",""blue"",""high nameability""]","right-left","[""blue"",""orange""]","5","high nameability","49","right","trigger",""
"html-button-response","230","938543","0.0-178.0-0.0","CAN_101","101","","","","","","680","<button class=""jspsych-btn""><img src=""stimuli/orange.png"" style=""width: 200px;height: 200px;""></button>","1","orange","blue","[""orange"",""blue"",""high nameability""]","right-left","[""blue"",""orange""]","5","high nameability","49","right","response","1"
"html-audio-button-response","231","938746","0.0-178.0-1.0","CAN_101","101","","","","","","null","stimuli/bleep.m4a","null","orange","blue","[""orange"",""blue"",""high nameability""]","right-left","[""blue"",""orange""]","5","high nameability","49","right","audio_feedback","1"
"html-button-response","232","939259","0.0-179.0","CAN_101","101","","","","","","null","<button class=""jspsych-btn""><img src=""stimuli/white_square.png"" style=""width: 200px;height: 200px;""></button>","null","orange","blue","[""orange"",""blue"",""high nameability""]","right-left","[""blue"",""orange""]","5","high nameability","49","right","iti",""
"html-button-response","233","939792","0.0-180.0","CAN_101","101","","","","","","517","","0","turquoise","neonyellow","[""turquoise"",""neonyellow"",""low nameability""]","left-right","[""turquoise"",""neonyellow"",""low nameability""]","5","low nameability","50","left","trigger",""
"html-button-response","234","940361","0.0-181.0-0.0","CAN_101","101","","","","","","563","<button class=""jspsych-btn""><img src=""stimuli/turquoise.png"" style=""width: 200px;height: 200px;""></button>","0","turquoise","neonyellow","[""turquoise"",""neonyellow"",""low nameability""]","left-right","[""turquoise"",""neonyellow"",""low nameability""]","5","low nameability","50","left","response","1"
"html-audio-button-response","235","940566","0.0-181.0-1.0","CAN_101","101","","","","","","null","stimuli/bleep.m4a","null","turquoise","neonyellow","[""turquoise"",""neonyellow"",""low nameability""]","left-right","[""turquoise"",""neonyellow"",""low nameability""]","5","low nameability","50","left","audio_feedback","1"
"html-button-response","236","941087","0.0-182.0","CAN_101","101","","","","","","null","<button class=""jspsych-btn""><img src=""stimuli/white_square.png"" style=""width: 200px;height: 200px;""></button>","null","turquoise","neonyellow","[""turquoise"",""neonyellow"",""low nameability""]","left-right","[""turquoise"",""neonyellow"",""low nameability""]","5","low nameability","50","left","iti",""
"pavlovia","237","941139","0.0-183.0","CAN_101","101","","","","","","","","","","","","","","","","","","",""
"pavlovia","238","941148","0.0-184.0","CAN_101","101","","","","","","","","","","","","","","","","","","",""
"html-audio-button-response","239","942108","0.0-185.0","CAN_101","101","","","","","","1029","stimuli/tada.m4a","0","","","","","","","","","","",""
"html-button-response","240","942690","0.0-186.0","CAN_101","101","","","","","","577","","0","","","","","","","","","","",""
"html-button-response","241","943248","0.0-187.0","CAN_101","101","","","","","","550","","0","neonyellow","turquoise","[""neonyellow"",""turquoise"",""low nameability""]","right-left","[""turquoise"",""neonyellow""]","6","low nameability","51","right","trigger",""
"html-button-response","242","943903","0.0-188.0-0.0","CAN_101","101","","","","","","646","<button class=""jspsych-btn""><img src=""stimuli/neonyellow.png"" style=""width: 200px;height: 200px;""></button>","1","neonyellow","turquoise","[""neonyellow"",""turquoise"",""low nameability""]","right-left","[""turquoise"",""neonyellow""]","6","low nameability","51","right","response","1"
"html-audio-button-response","243","944106","0.0-188.0-1.0","CAN_101","101","","","","","","null","stimuli/bleep.m4a","null","neonyellow","turquoise","[""neonyellow"",""turquoise"",""low nameability""]","right-left","[""turquoise"",""neonyellow""]","6","low nameability","51","right","audio_feedback","1"
"html-button-response","244","944629","0.0-189.0","CAN_101","101","","","","","","null","<button class=""jspsych-btn""><img src=""stimuli/white_square.png"" style=""width: 200px;height: 200px;""></button>","null","neonyellow","turquoise","[""neonyellow"",""turquoise"",""low nameability""]","right-left","[""turquoise"",""neonyellow""]","6","low nameability","51","right","iti",""
"html-button-response","245","945155","0.0-190.0","CAN_101","101","","","","","","506","","0","purple","blue","[""purple"",""blue"",""high nameability""]","left-right","[""purple"",""blue"",""high nameability""]","6","high nameability","52","left","trigger",""
"html-button-response","246","945703","0.0-191.0-0.0","CAN_101","101","","","","","","541","<button class=""jspsych-btn""><img src=""stimuli/purple.png"" style=""width: 200px;height: 200px;""></button>","0","purple","blue","[""purple"",""blue"",""high nameability""]","left-right","[""purple"",""blue"",""high nameability""]","6","high nameability","52","left","response","1"
"html-audio-button-response","247","945906","0.0-191.0-1.0","CAN_101","101","","","","","","null","stimuli/bleep.m4a","null","purple","blue","[""purple"",""blue"",""high nameability""]","left-right","[""purple"",""blue"",""high nameability""]","6","high nameability","52","left","audio_feedback","1"
"html-button-response","248","946420","0.0-192.0","CAN_101","101","","","","","","null","<button class=""jspsych-btn""><img src=""stimuli/white_square.png"" style=""width: 200px;height: 200px;""></button>","null","purple","blue","[""purple"",""blue"",""high nameability""]","left-right","[""purple"",""blue"",""high nameability""]","6","high nameability","52","left","iti",""
"html-button-response","249","946956","0.0-193.0","CAN_101","101","","","","","","529","","0","mustard","pink","[""mustard"",""pink"",""low nameability""]","left-right","[""mustard"",""pink"",""low nameability""]","6","low nameability","53","left","trigger",""
"html-button-response","250","947456","0.0-194.0-0.0","CAN_101","101","","","","","","496","<button class=""jspsych-btn""><img src=""stimuli/mustard.png"" style=""width: 200px;height: 200px;""></button>","0","mustard","pink","[""mustard"",""pink"",""low nameability""]","left-right","[""mustard"",""pink"",""low nameability""]","6","low nameability","53","left","response","1"
"html-audio-button-response","251","947657","0.0-194.0-1.0","CAN_101","101","","","","","","null","stimuli/bleep.m4a","null","mustard","pink","[""mustard"",""pink"",""low nameability""]","left-right","[""mustard"",""pink"",""low nameability""]","6","low nameability","53","left","audio_feedback","1"
"html-button-response","252","948171","0.0-195.0","CAN_101","101","","","","","","null","<button class=""jspsych-btn""><img src=""stimuli/white_square.png"" style=""width: 200px;height: 200px;""></button>","null","mustard","pink","[""mustard"",""pink"",""low nameability""]","left-right","[""mustard"",""pink"",""low nameability""]","6","low nameability","53","left","iti",""
"html-button-response","253","948655","0.0-196.0","CAN_101","101","","","","","","462","","0","pink","turquoise","[""pink"",""turquoise"",""low nameability""]","right-left","[""turquoise"",""pink""]","6","low nameability","54","right","trigger",""
"html-button-response","254","950234","0.0-197.0-0.0","CAN_101","101","","","","","","1566","<button class=""jspsych-btn""><img src=""stimuli/pink.png"" style=""width: 200px;height: 200px;""></button>","1","pink","turquoise","[""pink"",""turquoise"",""low nameability""]","right-left","[""turquoise"",""pink""]","6","low nameability","54","right","response","1"
"html-audio-button-response","255","950451","0.0-197.0-1.0","CAN_101","101","","","","","","null","stimuli/bleep.m4a","null","pink","turquoise","[""pink"",""turquoise"",""low nameability""]","right-left","[""turquoise"",""pink""]","6","low nameability","54","right","audio_feedback","1"
"html-button-response","256","950972","0.0-198.0","CAN_101","101","","","","","","null","<button class=""jspsych-btn""><img src=""stimuli/white_square.png"" style=""width: 200px;height: 200px;""></button>","null","pink","turquoise","[""pink"",""turquoise"",""low nameability""]","right-left","[""turquoise"",""pink""]","6","low nameability","54","right","iti",""
"html-button-response","257","951636","0.0-199.0","CAN_101","101","","","","","","641","","0","brown","blue","[""brown"",""blue"",""high nameability""]","left-right","[""brown"",""blue"",""high nameability""]","6","high nameability","55","left","trigger",""
"html-button-response","258","952268","0.0-200.0-0.0","CAN_101","101","","","","","","619","<button class=""jspsych-btn""><img src=""stimuli/brown.png"" style=""width: 200px;height: 200px;""></button>","0","brown","blue","[""brown"",""blue"",""high nameability""]","left-right","[""brown"",""blue"",""high nameability""]","6","high nameability","55","left","response","1"
"html-audio-button-response","259","952477","0.0-200.0-1.0","CAN_101","101","","","","","","null","stimuli/bleep.m4a","null","brown","blue","[""brown"",""blue"",""high nameability""]","left-right","[""brown"",""blue"",""high nameability""]","6","high nameability","55","left","audio_feedback","1"
"html-button-response","260","952993","0.0-201.0","CAN_101","101","","","","","","null","<button class=""jspsych-btn""><img src=""stimuli/white_square.png"" style=""width: 200px;height: 200px;""></button>","null","brown","blue","[""brown"",""blue"",""high nameability""]","left-right","[""brown"",""blue"",""high nameability""]","6","high nameability","55","left","iti",""
"html-button-response","261","953632","0.0-202.0","CAN_101","101","","","","","","634","","0","lightred","darkgreenblue","[""lightred"",""darkgreenblue"",""low nameability""]","left-right","[""lightred"",""darkgreenblue"",""low nameability""]","6","low nameability","56","left","trigger",""
"html-button-response","262","954239","0.0-203.0-0.0","CAN_101","101","","","","","","599","<button class=""jspsych-btn""><img src=""stimuli/lightred.png"" style=""width: 200px;height: 200px;""></button>","0","lightred","darkgreenblue","[""lightred"",""darkgreenblue"",""low nameability""]","left-right","[""lightred"",""darkgreenblue"",""low nameability""]","6","low nameability","56","left","response","1"
"html-audio-button-response","263","954443","0.0-203.0-1.0","CAN_101","101","","","","","","null","stimuli/bleep.m4a","null","lightred","darkgreenblue","[""lightred"",""darkgreenblue"",""low nameability""]","left-right","[""lightred"",""darkgreenblue"",""low nameability""]","6","low nameability","56","left","audio_feedback","1"
"html-button-response","264","954959","0.0-204.0","CAN_101","101","","","","","","null","<button class=""jspsych-btn""><img src=""stimuli/white_square.png"" style=""width: 200px;height: 200px;""></button>","null","lightred","darkgreenblue","[""lightred"",""darkgreenblue"",""low nameability""]","left-right","[""lightred"",""darkgreenblue"",""low nameability""]","6","low nameability","56","left","iti",""
"html-button-response","265","955487","0.0-205.0","CAN_101","101","","","","","","506","","0","pink","lightred","[""pink"",""lightred"",""low nameability""]","right-left","[""lightred"",""pink""]","6","low nameability","57","right","trigger",""
"html-button-response","266","956404","0.0-206.0-0.0","CAN_101","101","","","","","","909","<button class=""jspsych-btn""><img src=""stimuli/pink.png"" style=""width: 200px;height: 200px;""></button>","1","pink","lightred","[""pink"",""lightred"",""low nameability""]","right-left","[""lightred"",""pink""]","6","low nameability","57","right","response","1"
"html-audio-button-response","267","956606","0.0-206.0-1.0","CAN_101","101","","","","","","null","stimuli/bleep.m4a","null","pink","lightred","[""pink"",""lightred"",""low nameability""]","right-left","[""lightred"",""pink""]","6","low nameability","57","right","audio_feedback","1"
"html-button-response","268","957118","0.0-207.0","CAN_101","101","","","","","","null","<button class=""jspsych-btn""><img src=""stimuli/white_square.png"" style=""width: 200px;height: 200px;""></button>","null","pink","lightred","[""pink"",""lightred"",""low nameability""]","right-left","[""lightred"",""pink""]","6","low nameability","57","right","iti",""
"html-button-response","269","957618","0.0-208.0","CAN_101","101","","","","","","487","","0","mustard","neonyellow","[""mustard"",""neonyellow"",""low nameability""]","left-right","[""mustard"",""neonyellow"",""low nameability""]","6","low nameability","58","left","trigger",""
"html-button-response","270","958315","0.0-209.0-0.0","CAN_101","101","","","","","","689","<button class=""jspsych-btn""><img src=""stimuli/mustard.png"" style=""width: 200px;height: 200px;""></button>","0","mustard","neonyellow","[""mustard"",""neonyellow"",""low nameability""]","left-right","[""mustard"",""neonyellow"",""low nameability""]","6","low nameability","58","left","response","1"
"html-audio-button-response","271","958520","0.0-209.0-1.0","CAN_101","101","","","","","","null","stimuli/bleep.m4a","null","mustard","neonyellow","[""mustard"",""neonyellow"",""low nameability""]","left-right","[""mustard"",""neonyellow"",""low nameability""]","6","low nameability","58","left","audio_feedback","1"
"html-button-response","272","959041","0.0-210.0","CAN_101","101","","","","","","null","<button class=""jspsych-btn""><img src=""stimuli/white_square.png"" style=""width: 200px;height: 200px;""></button>","null","mustard","neonyellow","[""mustard"",""neonyellow"",""low nameability""]","left-right","[""mustard"",""neonyellow"",""low nameability""]","6","low nameability","58","left","iti",""
"html-button-response","273","959556","0.0-211.0","CAN_101","101","","","","","","503","","0","mustard","darkgreenblue","[""mustard"",""darkgreenblue"",""low nameability""]","right-left","[""darkgreenblue"",""mustard""]","6","low nameability","59","right","trigger",""
"html-button-response","274","960167","0.0-212.0-0.0","CAN_101","101","","","","","","603","<button class=""jspsych-btn""><img src=""stimuli/mustard.png"" style=""width: 200px;height: 200px;""></button>","1","mustard","darkgreenblue","[""mustard"",""darkgreenblue"",""low nameability""]","right-left","[""darkgreenblue"",""mustard""]","6","low nameability","59","right","response","1"
"html-audio-button-response","275","960370","0.0-212.0-1.0","CAN_101","101","","","","","","null","stimuli/bleep.m4a","null","mustard","darkgreenblue","[""mustard"",""darkgreenblue"",""low nameability""]","right-left","[""darkgreenblue"",""mustard""]","6","low nameability","59","right","audio_feedback","1"
"html-button-response","276","960887","0.0-213.0","CAN_101","101","","","","","","null","<button class=""jspsych-btn""><img src=""stimuli/white_square.png"" style=""width: 200px;height: 200px;""></button>","null","mustard","darkgreenblue","[""mustard"",""darkgreenblue"",""low nameability""]","right-left","[""darkgreenblue"",""mustard""]","6","low nameability","59","right","iti",""
"html-button-response","277","961416","0.0-214.0","CAN_101","101","","","","","","511","","0","darkgreenblue","pink","[""darkgreenblue"",""pink"",""low nameability""]","right-left","[""pink"",""darkgreenblue""]","6","low nameability","60","right","trigger",""
"html-button-response","278","962457","0.0-215.0-0.0","CAN_101","101","","","","","","1033","<button class=""jspsych-btn""><img src=""stimuli/darkgreenblue.png"" style=""width: 200px;height: 200px;""></button>","1","darkgreenblue","pink","[""darkgreenblue"",""pink"",""low nameability""]","right-left","[""pink"",""darkgreenblue""]","6","low nameability","60","right","response","1"
"html-audio-button-response","279","962662","0.0-215.0-1.0","CAN_101","101","","","","","","null","stimuli/bleep.m4a","null","darkgreenblue","pink","[""darkgreenblue"",""pink"",""low nameability""]","right-left","[""pink"",""darkgreenblue""]","6","low nameability","60","right","audio_feedback","1"
"html-button-response","280","963182","0.0-216.0","CAN_101","101","","","","","","null","<button class=""jspsych-btn""><img src=""stimuli/white_square.png"" style=""width: 200px;height: 200px;""></button>","null","darkgreenblue","pink","[""darkgreenblue"",""pink"",""low nameability""]","right-left","[""pink"",""darkgreenblue""]","6","low nameability","60","right","iti",""
