"trial_type","trial_index","time_elapsed","internal_node_id","subject_id","seed","success","timeout","failed_images","failed_audio","failed_video","rt","stimulus","response","target","foil","choices","combination_order","choices_in_order","round","condition","trial_counter","target_location","trial_kind","correct"
"pavlovia","0","20","0.0-0.0","CAN_135","135","","","","","","","","","","","","","","","","","","",""
"preload","1","735","0.0-1.0","CAN_135","135","true","false","[]","[]","[]","","","","","","","","","","","","","",""
"fullscreen","2","4259","0.0-2.0","CAN_135","135","true","","","","","","","","","","","","","","","","","",""
"html-button-response","3","69187","0.0-3.0","CAN_135","135","","","","","","64907","","0","","","","","","","","","","",""
"html-button-response","4","71830","0.0-4.0","CAN_135","135","","","","","","2631","","0","star","square","[""square"",""star""]","left-right","[""square"",""star""]","1","practice","1","right","trigger",""
"html-button-response","5","73843","0.0-5.0-0.0","CAN_135","135","","","","","","2002","<button class=""jspsych-btn""><img src=""stimuli/star.png"" style=""width: 200px;height: 200px;""></button>","1","star","square","[""square"",""star""]","left-right","[""square"",""star""]","1","practice","1","right","response","1"
"html-audio-button-response","6","74059","0.0-5.0-1.0","CAN_135","135","","","","","","null","stimuli/bleep.m4a","null","star","square","[""square"",""star""]","left-right","[""square"",""star""]","1","practice","1","right","audio_feedback","1"
"html-button-response","7","74584","0.0-6.0","CAN_135","135","","","","","","null","<button class=""jspsych-btn""><img src=""stimuli/white_square.png"" style=""width: 200px;height: 200px;""></button>","null","star","square","[""square"",""star""]","left-right","[""square"",""star""]","1","practice","1","right","iti",""
"html-button-response","8","77281","0.0-7.0","CAN_135","135","","","","","","2686","","0","triangle","pentagram","[""triangle"",""pentagram""]","left-right","[""triangle"",""pentagram""]","1","practice","1","left","trigger",""
"html-button-response","9","78218","0.0-8.0-0.0","CAN_135","135","","","","","","925","<button class=""jspsych-btn""><img src=""stimuli/triangle.png"" style=""width: 200px;height: 200px;""></button>","0","triangle","pentagram","[""triangle"",""pentagram""]","left-right","[""triangle"",""pentagram""]","1","practice","1","left","response","1"
"html-audio-button-response","10","78428","0.0-8.0-1.0","CAN_135","135","","","","","","null","stimuli/bleep.m4a","null","triangle","pentagram","[""triangle"",""pentagram""]","left-right","[""triangle"",""pentagram""]","1","practice","1","left","audio_feedback","1"
"html-button-response","11","78957","0.0-9.0","CAN_135","135","","","","","","null","<button class=""jspsych-btn""><img src=""stimuli/white_square.png"" style=""width: 200px;height: 200px;""></button>","null","triangle","pentagram","[""triangle"",""pentagram""]","left-right","[""triangle"",""pentagram""]","1","practice","1","left","iti",""
"html-button-response","12","79955","0.0-10.0","CAN_135","135","","","","","","982","","0","diamond","rectangle","[""rectangle"",""diamond""]","left-right","[""rectangle"",""diamond""]","1","practice","1","right","trigger",""
"html-button-response","13","80646","0.0-11.0-0.0","CAN_135","135","","","","","","683","<button class=""jspsych-btn""><img src=""stimuli/diamond.png"" style=""width: 200px;height: 200px;""></button>","1","diamond","rectangle","[""rectangle"",""diamond""]","left-right","[""rectangle"",""diamond""]","1","practice","1","right","response","1"
"html-audio-button-response","14","80856","0.0-11.0-1.0","CAN_135","135","","","","","","null","stimuli/bleep.m4a","null","diamond","rectangle","[""rectangle"",""diamond""]","left-right","[""rectangle"",""diamond""]","1","practice","1","right","audio_feedback","1"
"html-button-response","15","81374","0.0-12.0","CAN_135","135","","","","","","null","<button class=""jspsych-btn""><img src=""stimuli/white_square.png"" style=""width: 200px;height: 200px;""></button>","null","diamond","rectangle","[""rectangle"",""diamond""]","left-right","[""rectangle"",""diamond""]","1","practice","1","right","iti",""
"html-button-response","16","82092","0.0-13.0","CAN_135","135","","","","","","695","","0","pentagram","star","[""pentagram"",""star""]","left-right","[""pentagram"",""star""]","1","practice","1","left","trigger",""
"html-button-response","17","82869","0.0-14.0-0.0","CAN_135","135","","","","","","768","<button class=""jspsych-btn""><img src=""stimuli/pentagram.png"" style=""width: 200px;height: 200px;""></button>","0","pentagram","star","[""pentagram"",""star""]","left-right","[""pentagram"",""star""]","1","practice","1","left","response","1"
"html-audio-button-response","18","83084","0.0-14.0-1.0","CAN_135","135","","","","","","null","stimuli/bleep.m4a","null","pentagram","star","[""pentagram"",""star""]","left-right","[""pentagram"",""star""]","1","practice","1","left","audio_feedback","1"
"html-button-response","19","83602","0.0-15.0","CAN_135","135","","","","","","null","<button class=""jspsych-btn""><img src=""stimuli/white_square.png"" style=""width: 200px;height: 200px;""></button>","null","pentagram","star","[""pentagram"",""star""]","left-right","[""pentagram"",""star""]","1","practice","1","left","iti",""
"html-button-response","20","83904","0.0-16.0","CAN_135","135","","","","","","292","","0","","","","","","","","","","",""
"html-button-response","21","94082","0.0-17.0","CAN_135","135","","","","","","10169","","0","mustard","pink","[""mustard"",""pink"",""low nameability""]","right-left","[""pink"",""mustard""]","1","low nameability","1","right","trigger",""
"html-button-response","22","94689","0.0-18.0-0.0","CAN_135","135","","","","","","597","<button class=""jspsych-btn""><img src=""stimuli/mustard.png"" style=""width: 200px;height: 200px;""></button>","1","mustard","pink","[""mustard"",""pink"",""low nameability""]","right-left","[""pink"",""mustard""]","1","low nameability","1","right","response","1"
"html-audio-button-response","23","94890","0.0-18.0-1.0","CAN_135","135","","","","","","null","stimuli/bleep.m4a","null","mustard","pink","[""mustard"",""pink"",""low nameability""]","right-left","[""pink"",""mustard""]","1","low nameability","1","right","audio_feedback","1"
"html-button-response","24","95413","0.0-19.0","CAN_135","135","","","","","","null","<button class=""jspsych-btn""><img src=""stimuli/white_square.png"" style=""width: 200px;height: 200px;""></button>","null","mustard","pink","[""mustard"",""pink"",""low nameability""]","right-left","[""pink"",""mustard""]","1","low nameability","1","right","iti",""
"html-button-response","25","95553","0.0-20.0","CAN_135","135","","","","","","122","","0","darkgreenblue","mustard","[""darkgreenblue"",""mustard"",""low nameability""]","right-left","[""mustard"",""darkgreenblue""]","1","low nameability","2","right","trigger",""
"html-button-response","26","96372","0.0-21.0-0.0","CAN_135","135","","","","","","809","<button class=""jspsych-btn""><img src=""stimuli/darkgreenblue.png"" style=""width: 200px;height: 200px;""></button>","1","darkgreenblue","mustard","[""darkgreenblue"",""mustard"",""low nameability""]","right-left","[""mustard"",""darkgreenblue""]","1","low nameability","2","right","response","1"
"html-audio-button-response","27","96578","0.0-21.0-1.0","CAN_135","135","","","","","","null","stimuli/bleep.m4a","null","darkgreenblue","mustard","[""darkgreenblue"",""mustard"",""low nameability""]","right-left","[""mustard"",""darkgreenblue""]","1","low nameability","2","right","audio_feedback","1"
"html-button-response","28","97093","0.0-22.0","CAN_135","135","","","","","","null","<button class=""jspsych-btn""><img src=""stimuli/white_square.png"" style=""width: 200px;height: 200px;""></button>","null","darkgreenblue","mustard","[""darkgreenblue"",""mustard"",""low nameability""]","right-left","[""mustard"",""darkgreenblue""]","1","low nameability","2","right","iti",""
"html-button-response","29","97621","0.0-23.0","CAN_135","135","","","","","","509","","0","yellow","purple","[""yellow"",""purple"",""high nameability""]","left-right","[""yellow"",""purple"",""high nameability""]","1","high nameability","3","left","trigger",""
"html-button-response","30","98205","0.0-24.0-0.0","CAN_135","135","","","","","","576","<button class=""jspsych-btn""><img src=""stimuli/yellow.png"" style=""width: 200px;height: 200px;""></button>","0","yellow","purple","[""yellow"",""purple"",""high nameability""]","left-right","[""yellow"",""purple"",""high nameability""]","1","high nameability","3","left","response","1"
"html-audio-button-response","31","98410","0.0-24.0-1.0","CAN_135","135","","","","","","null","stimuli/bleep.m4a","null","yellow","purple","[""yellow"",""purple"",""high nameability""]","left-right","[""yellow"",""purple"",""high nameability""]","1","high nameability","3","left","audio_feedback","1"
"html-button-response","32","98935","0.0-25.0","CAN_135","135","","","","","","null","<button class=""jspsych-btn""><img src=""stimuli/white_square.png"" style=""width: 200px;height: 200px;""></button>","null","yellow","purple","[""yellow"",""purple"",""high nameability""]","left-right","[""yellow"",""purple"",""high nameability""]","1","high nameability","3","left","iti",""
"html-button-response","33","99552","0.0-26.0","CAN_135","135","","","","","","594","","0","yellow","blue","[""yellow"",""blue"",""high nameability""]","right-left","[""blue"",""yellow""]","1","high nameability","4","right","trigger",""
"html-button-response","34","100081","0.0-27.0-0.0","CAN_135","135","","","","","","520","<button class=""jspsych-btn""><img src=""stimuli/yellow.png"" style=""width: 200px;height: 200px;""></button>","1","yellow","blue","[""yellow"",""blue"",""high nameability""]","right-left","[""blue"",""yellow""]","1","high nameability","4","right","response","1"
"html-audio-button-response","35","100287","0.0-27.0-1.0","CAN_135","135","","","","","","null","stimuli/bleep.m4a","null","yellow","blue","[""yellow"",""blue"",""high nameability""]","right-left","[""blue"",""yellow""]","1","high nameability","4","right","audio_feedback","1"
"html-button-response","36","100809","0.0-28.0","CAN_135","135","","","","","","null","<button class=""jspsych-btn""><img src=""stimuli/white_square.png"" style=""width: 200px;height: 200px;""></button>","null","yellow","blue","[""yellow"",""blue"",""high nameability""]","right-left","[""blue"",""yellow""]","1","high nameability","4","right","iti",""
"html-button-response","37","101387","0.0-29.0","CAN_135","135","","","","","","560","","0","neonyellow","turquoise","[""neonyellow"",""turquoise"",""low nameability""]","right-left","[""turquoise"",""neonyellow""]","1","low nameability","5","right","trigger",""
"html-button-response","38","102207","0.0-30.0-0.0","CAN_135","135","","","","","","811","<button class=""jspsych-btn""><img src=""stimuli/neonyellow.png"" style=""width: 200px;height: 200px;""></button>","1","neonyellow","turquoise","[""neonyellow"",""turquoise"",""low nameability""]","right-left","[""turquoise"",""neonyellow""]","1","low nameability","5","right","response","1"
"html-audio-button-response","39","102414","0.0-30.0-1.0","CAN_135","135","","","","","","null","stimuli/bleep.m4a","null","neonyellow","turquoise","[""neonyellow"",""turquoise"",""low nameability""]","right-left","[""turquoise"",""neonyellow""]","1","low nameability","5","right","audio_feedback","1"
"html-button-response","40","102932","0.0-31.0","CAN_135","135","","","","","","null","<button class=""jspsych-btn""><img src=""stimuli/white_square.png"" style=""width: 200px;height: 200px;""></button>","null","neonyellow","turquoise","[""neonyellow"",""turquoise"",""low nameability""]","right-left","[""turquoise"",""neonyellow""]","1","low nameability","5","right","iti",""
"html-button-response","41","103602","0.0-32.0","CAN_135","135","","","","","","654","","0","lightred","pink","[""lightred"",""pink"",""low nameability""]","left-right","[""lightred"",""pink"",""low nameability""]","1","low nameability","6","left","trigger",""
"html-button-response","42","104156","0.0-33.0-0.0","CAN_135","135","","","","","","545","<button class=""jspsych-btn""><img src=""stimuli/lightred.png"" style=""width: 200px;height: 200px;""></button>","0","lightred","pink","[""lightred"",""pink"",""low nameability""]","left-right","[""lightred"",""pink"",""low nameability""]","1","low nameability","6","left","response","1"
"html-audio-button-response","43","104358","0.0-33.0-1.0","CAN_135","135","","","","","","null","stimuli/bleep.m4a","null","lightred","pink","[""lightred"",""pink"",""low nameability""]","left-right","[""lightred"",""pink"",""low nameability""]","1","low nameability","6","left","audio_feedback","1"
"html-button-response","44","104879","0.0-34.0","CAN_135","135","","","","","","null","<button class=""jspsych-btn""><img src=""stimuli/white_square.png"" style=""width: 200px;height: 200px;""></button>","null","lightred","pink","[""lightred"",""pink"",""low nameability""]","left-right","[""lightred"",""pink"",""low nameability""]","1","low nameability","6","left","iti",""
"html-button-response","45","105526","0.0-35.0","CAN_135","135","","","","","","631","","0","brown","orange","[""brown"",""orange"",""high nameability""]","left-right","[""brown"",""orange"",""high nameability""]","1","high nameability","7","left","trigger",""
"html-button-response","46","106154","0.0-36.0-0.0","CAN_135","135","","","","","","619","<button class=""jspsych-btn""><img src=""stimuli/brown.png"" style=""width: 200px;height: 200px;""></button>","0","brown","orange","[""brown"",""orange"",""high nameability""]","left-right","[""brown"",""orange"",""high nameability""]","1","high nameability","7","left","response","1"
"html-audio-button-response","47","106368","0.0-36.0-1.0","CAN_135","135","","","","","","null","stimuli/bleep.m4a","null","brown","orange","[""brown"",""orange"",""high nameability""]","left-right","[""brown"",""orange"",""high nameability""]","1","high nameability","7","left","audio_feedback","1"
"html-button-response","48","106894","0.0-37.0","CAN_135","135","","","","","","null","<button class=""jspsych-btn""><img src=""stimuli/white_square.png"" style=""width: 200px;height: 200px;""></button>","null","brown","orange","[""brown"",""orange"",""high nameability""]","left-right","[""brown"",""orange"",""high nameability""]","1","high nameability","7","left","iti",""
"html-button-response","49","107597","0.0-38.0","CAN_135","135","","","","","","681","","0","lightred","neonyellow","[""lightred"",""neonyellow"",""low nameability""]","left-right","[""lightred"",""neonyellow"",""low nameability""]","1","low nameability","8","left","trigger",""
"html-button-response","50","108159","0.0-39.0-0.0","CAN_135","135","","","","","","557","<button class=""jspsych-btn""><img src=""stimuli/lightred.png"" style=""width: 200px;height: 200px;""></button>","0","lightred","neonyellow","[""lightred"",""neonyellow"",""low nameability""]","left-right","[""lightred"",""neonyellow"",""low nameability""]","1","low nameability","8","left","response","1"
"html-audio-button-response","51","108366","0.0-39.0-1.0","CAN_135","135","","","","","","null","stimuli/bleep.m4a","null","lightred","neonyellow","[""lightred"",""neonyellow"",""low nameability""]","left-right","[""lightred"",""neonyellow"",""low nameability""]","1","low nameability","8","left","audio_feedback","1"
"html-button-response","52","108890","0.0-40.0","CAN_135","135","","","","","","null","<button class=""jspsych-btn""><img src=""stimuli/white_square.png"" style=""width: 200px;height: 200px;""></button>","null","lightred","neonyellow","[""lightred"",""neonyellow"",""low nameability""]","left-right","[""lightred"",""neonyellow"",""low nameability""]","1","low nameability","8","left","iti",""
"html-button-response","53","109521","0.0-41.0","CAN_135","135","","","","","","614","","0","mustard","lightred","[""mustard"",""lightred"",""low nameability""]","left-right","[""mustard"",""lightred"",""low nameability""]","1","low nameability","9","left","trigger",""
"html-button-response","54","110116","0.0-42.0-0.0","CAN_135","135","","","","","","587","<button class=""jspsych-btn""><img src=""stimuli/mustard.png"" style=""width: 200px;height: 200px;""></button>","0","mustard","lightred","[""mustard"",""lightred"",""low nameability""]","left-right","[""mustard"",""lightred"",""low nameability""]","1","low nameability","9","left","response","1"
"html-audio-button-response","55","110318","0.0-42.0-1.0","CAN_135","135","","","","","","null","stimuli/bleep.m4a","null","mustard","lightred","[""mustard"",""lightred"",""low nameability""]","left-right","[""mustard"",""lightred"",""low nameability""]","1","low nameability","9","left","audio_feedback","1"
"html-button-response","56","110835","0.0-43.0","CAN_135","135","","","","","","null","<button class=""jspsych-btn""><img src=""stimuli/white_square.png"" style=""width: 200px;height: 200px;""></button>","null","mustard","lightred","[""mustard"",""lightred"",""low nameability""]","left-right","[""mustard"",""lightred"",""low nameability""]","1","low nameability","9","left","iti",""
"html-button-response","57","111467","0.0-44.0","CAN_135","135","","","","","","616","","0","red","yellow","[""red"",""yellow"",""high nameability""]","left-right","[""red"",""yellow"",""high nameability""]","1","high nameability","10","left","trigger",""
"html-button-response","58","112082","0.0-45.0-0.0","CAN_135","135","","","","","","607","<button class=""jspsych-btn""><img src=""stimuli/red.png"" style=""width: 200px;height: 200px;""></button>","0","red","yellow","[""red"",""yellow"",""high nameability""]","left-right","[""red"",""yellow"",""high nameability""]","1","high nameability","10","left","response","1"
"html-audio-button-response","59","112287","0.0-45.0-1.0","CAN_135","135","","","","","","null","stimuli/bleep.m4a","null","red","yellow","[""red"",""yellow"",""high nameability""]","left-right","[""red"",""yellow"",""high nameability""]","1","high nameability","10","left","audio_feedback","1"
"html-button-response","60","112804","0.0-46.0","CAN_135","135","","","","","","null","<button class=""jspsych-btn""><img src=""stimuli/white_square.png"" style=""width: 200px;height: 200px;""></button>","null","red","yellow","[""red"",""yellow"",""high nameability""]","left-right","[""red"",""yellow"",""high nameability""]","1","high nameability","10","left","iti",""
"pavlovia","61","112922","0.0-47.0","CAN_135","135","","","","","","","","","","","","","","","","","","",""
"pavlovia","62","112931","0.0-48.0","CAN_135","135","","","","","","","","","","","","","","","","","","",""
"html-audio-button-response","63","114338","0.0-49.0","CAN_135","135","","","","","","1531","stimuli/tada.m4a","0","","","","","","","","","","",""
"html-button-response","64","114964","0.0-50.0","CAN_135","135","","","","","","620","","0","","","","","","","","","","",""
"html-button-response","65","116143","0.0-51.0","CAN_135","135","","","","","","1172","","0","mustard","turquoise","[""mustard"",""turquoise"",""low nameability""]","left-right","[""mustard"",""turquoise"",""low nameability""]","2","low nameability","11","left","trigger",""
"html-button-response","66","116725","0.0-52.0-0.0","CAN_135","135","","","","","","576","<button class=""jspsych-btn""><img src=""stimuli/mustard.png"" style=""width: 200px;height: 200px;""></button>","0","mustard","turquoise","[""mustard"",""turquoise"",""low nameability""]","left-right","[""mustard"",""turquoise"",""low nameability""]","2","low nameability","11","left","response","1"
"html-audio-button-response","67","116932","0.0-52.0-1.0","CAN_135","135","","","","","","null","stimuli/bleep.m4a","null","mustard","turquoise","[""mustard"",""turquoise"",""low nameability""]","left-right","[""mustard"",""turquoise"",""low nameability""]","2","low nameability","11","left","audio_feedback","1"
"html-button-response","68","117447","0.0-53.0","CAN_135","135","","","","","","null","<button class=""jspsych-btn""><img src=""stimuli/white_square.png"" style=""width: 200px;height: 200px;""></button>","null","mustard","turquoise","[""mustard"",""turquoise"",""low nameability""]","left-right","[""mustard"",""turquoise"",""low nameability""]","2","low nameability","11","left","iti",""
"html-button-response","69","117993","0.0-54.0","CAN_135","135","","","","","","532","","0","purple","red","[""purple"",""red"",""high nameability""]","left-right","[""purple"",""red"",""high nameability""]","2","high nameability","12","left","trigger",""
"html-button-response","70","118579","0.0-55.0-0.0","CAN_135","135","","","","","","578","<button class=""jspsych-btn""><img src=""stimuli/purple.png"" style=""width: 200px;height: 200px;""></button>","0","purple","red","[""purple"",""red"",""high nameability""]","left-right","[""purple"",""red"",""high nameability""]","2","high nameability","12","left","response","1"
"html-audio-button-response","71","118782","0.0-55.0-1.0","CAN_135","135","","","","","","null","stimuli/bleep.m4a","null","purple","red","[""purple"",""red"",""high nameability""]","left-right","[""purple"",""red"",""high nameability""]","2","high nameability","12","left","audio_feedback","1"
"html-button-response","72","119299","0.0-56.0","CAN_135","135","","","","","","null","<button class=""jspsych-btn""><img src=""stimuli/white_square.png"" style=""width: 200px;height: 200px;""></button>","null","purple","red","[""purple"",""red"",""high nameability""]","left-right","[""purple"",""red"",""high nameability""]","2","high nameability","12","left","iti",""
"html-button-response","73","119974","0.0-57.0","CAN_135","135","","","","","","664","","0","lightred","turquoise","[""lightred"",""turquoise"",""low nameability""]","right-left","[""turquoise"",""lightred""]","2","low nameability","13","right","trigger",""
"html-button-response","74","120552","0.0-58.0-0.0","CAN_135","135","","","","","","570","<button class=""jspsych-btn""><img src=""stimuli/lightred.png"" style=""width: 200px;height: 200px;""></button>","1","lightred","turquoise","[""lightred"",""turquoise"",""low nameability""]","right-left","[""turquoise"",""lightred""]","2","low nameability","13","right","response","1"
"html-audio-button-response","75","120758","0.0-58.0-1.0","CAN_135","135","","","","","","null","stimuli/bleep.m4a","null","lightred","turquoise","[""lightred"",""turquoise"",""low nameability""]","right-left","[""turquoise"",""lightred""]","2","low nameability","13","right","audio_feedback","1"
"html-button-response","76","121274","0.0-59.0","CAN_135","135","","","","","","null","<button class=""jspsych-btn""><img src=""stimuli/white_square.png"" style=""width: 200px;height: 200px;""></button>","null","lightred","turquoise","[""lightred"",""turquoise"",""low nameability""]","right-left","[""turquoise"",""lightred""]","2","low nameability","13","right","iti",""
"html-button-response","77","121861","0.0-60.0","CAN_135","135","","","","","","573","","0","brown","yellow","[""brown"",""yellow"",""high nameability""]","right-left","[""yellow"",""brown""]","2","high nameability","14","right","trigger",""
"html-button-response","78","122392","0.0-61.0-0.0","CAN_135","135","","","","","","522","<button class=""jspsych-btn""><img src=""stimuli/brown.png"" style=""width: 200px;height: 200px;""></button>","1","brown","yellow","[""brown"",""yellow"",""high nameability""]","right-left","[""yellow"",""brown""]","2","high nameability","14","right","response","1"
"html-audio-button-response","79","122596","0.0-61.0-1.0","CAN_135","135","","","","","","null","stimuli/bleep.m4a","null","brown","yellow","[""brown"",""yellow"",""high nameability""]","right-left","[""yellow"",""brown""]","2","high nameability","14","right","audio_feedback","1"
"html-button-response","80","123110","0.0-62.0","CAN_135","135","","","","","","null","<button class=""jspsych-btn""><img src=""stimuli/white_square.png"" style=""width: 200px;height: 200px;""></button>","null","brown","yellow","[""brown"",""yellow"",""high nameability""]","right-left","[""yellow"",""brown""]","2","high nameability","14","right","iti",""
"html-button-response","81","123743","0.0-63.0","CAN_135","135","","","","","","616","","0","blue","brown","[""blue"",""brown"",""high nameability""]","left-right","[""blue"",""brown"",""high nameability""]","2","high nameability","15","left","trigger",""
"html-button-response","82","124393","0.0-64.0-0.0","CAN_135","135","","","","","","642","<button class=""jspsych-btn""><img src=""stimuli/blue.png"" style=""width: 200px;height: 200px;""></button>","0","blue","brown","[""blue"",""brown"",""high nameability""]","left-right","[""blue"",""brown"",""high nameability""]","2","high nameability","15","left","response","1"
"html-audio-button-response","83","124595","0.0-64.0-1.0","CAN_135","135","","","","","","null","stimuli/bleep.m4a","null","blue","brown","[""blue"",""brown"",""high nameability""]","left-right","[""blue"",""brown"",""high nameability""]","2","high nameability","15","left","audio_feedback","1"
"html-button-response","84","125116","0.0-65.0","CAN_135","135","","","","","","null","<button class=""jspsych-btn""><img src=""stimuli/white_square.png"" style=""width: 200px;height: 200px;""></button>","null","blue","brown","[""blue"",""brown"",""high nameability""]","left-right","[""blue"",""brown"",""high nameability""]","2","high nameability","15","left","iti",""
"html-button-response","85","125659","0.0-66.0","CAN_135","135","","","","","","527","","0","brown","blue","[""brown"",""blue"",""high nameability""]","right-left","[""blue"",""brown""]","2","high nameability","16","right","trigger",""
"html-button-response","86","126147","0.0-67.0-0.0","CAN_135","135","","","","","","481","<button class=""jspsych-btn""><img src=""stimuli/brown.png"" style=""width: 200px;height: 200px;""></button>","1","brown","blue","[""brown"",""blue"",""high nameability""]","right-left","[""blue"",""brown""]","2","high nameability","16","right","response","1"
"html-audio-button-response","87","126354","0.0-67.0-1.0","CAN_135","135","","","","","","null","stimuli/bleep.m4a","null","brown","blue","[""brown"",""blue"",""high nameability""]","right-left","[""blue"",""brown""]","2","high nameability","16","right","audio_feedback","1"
"html-button-response","88","126877","0.0-68.0","CAN_135","135","","","","","","null","<button class=""jspsych-btn""><img src=""stimuli/white_square.png"" style=""width: 200px;height: 200px;""></button>","null","brown","blue","[""brown"",""blue"",""high nameability""]","right-left","[""blue"",""brown""]","2","high nameability","16","right","iti",""
"html-button-response","89","127528","0.0-69.0","CAN_135","135","","","","","","629","","0","purple","blue","[""purple"",""blue"",""high nameability""]","right-left","[""blue"",""purple""]","2","high nameability","17","right","trigger",""
"html-button-response","90","128034","0.0-70.0-0.0","CAN_135","135","","","","","","498","<button class=""jspsych-btn""><img src=""stimuli/purple.png"" style=""width: 200px;height: 200px;""></button>","1","purple","blue","[""purple"",""blue"",""high nameability""]","right-left","[""blue"",""purple""]","2","high nameability","17","right","response","1"
"html-audio-button-response","91","128238","0.0-70.0-1.0","CAN_135","135","","","","","","null","stimuli/bleep.m4a","null","purple","blue","[""purple"",""blue"",""high nameability""]","right-left","[""blue"",""purple""]","2","high nameability","17","right","audio_feedback","1"
"html-button-response","92","128759","0.0-71.0","CAN_135","135","","","","","","null","<button class=""jspsych-btn""><img src=""stimuli/white_square.png"" style=""width: 200px;height: 200px;""></button>","null","purple","blue","[""purple"",""blue"",""high nameability""]","right-left","[""blue"",""purple""]","2","high nameability","17","right","iti",""
"html-button-response","93","129464","0.0-72.0","CAN_135","135","","","","","","686","","0","red","brown","[""red"",""brown"",""high nameability""]","left-right","[""red"",""brown"",""high nameability""]","2","high nameability","18","left","trigger",""
"html-button-response","94","130058","0.0-73.0-0.0","CAN_135","135","","","","","","586","<button class=""jspsych-btn""><img src=""stimuli/red.png"" style=""width: 200px;height: 200px;""></button>","0","red","brown","[""red"",""brown"",""high nameability""]","left-right","[""red"",""brown"",""high nameability""]","2","high nameability","18","left","response","1"
"html-audio-button-response","95","130263","0.0-73.0-1.0","CAN_135","135","","","","","","null","stimuli/bleep.m4a","null","red","brown","[""red"",""brown"",""high nameability""]","left-right","[""red"",""brown"",""high nameability""]","2","high nameability","18","left","audio_feedback","1"
"html-button-response","96","130782","0.0-74.0","CAN_135","135","","","","","","null","<button class=""jspsych-btn""><img src=""stimuli/white_square.png"" style=""width: 200px;height: 200px;""></button>","null","red","brown","[""red"",""brown"",""high nameability""]","left-right","[""red"",""brown"",""high nameability""]","2","high nameability","18","left","iti",""
"html-button-response","97","131426","0.0-75.0","CAN_135","135","","","","","","627","","0","blue","orange","[""blue"",""orange"",""high nameability""]","right-left","[""orange"",""blue""]","2","high nameability","19","right","trigger",""
"html-button-response","98","131926","0.0-76.0-0.0","CAN_135","135","","","","","","491","<button class=""jspsych-btn""><img src=""stimuli/blue.png"" style=""width: 200px;height: 200px;""></button>","1","blue","orange","[""blue"",""orange"",""high nameability""]","right-left","[""orange"",""blue""]","2","high nameability","19","right","response","1"
"html-audio-button-response","99","132131","0.0-76.0-1.0","CAN_135","135","","","","","","null","stimuli/bleep.m4a","null","blue","orange","[""blue"",""orange"",""high nameability""]","right-left","[""orange"",""blue""]","2","high nameability","19","right","audio_feedback","1"
"html-button-response","100","132653","0.0-77.0","CAN_135","135","","","","","","null","<button class=""jspsych-btn""><img src=""stimuli/white_square.png"" style=""width: 200px;height: 200px;""></button>","null","blue","orange","[""blue"",""orange"",""high nameability""]","right-left","[""orange"",""blue""]","2","high nameability","19","right","iti",""
"html-button-response","101","133332","0.0-78.0","CAN_135","135","","","","","","658","","0","orange","blue","[""orange"",""blue"",""high nameability""]","right-left","[""blue"",""orange""]","2","high nameability","20","right","trigger",""
"html-button-response","102","134023","0.0-79.0-0.0","CAN_135","135","","","","","","683","<button class=""jspsych-btn""><img src=""stimuli/orange.png"" style=""width: 200px;height: 200px;""></button>","1","orange","blue","[""orange"",""blue"",""high nameability""]","right-left","[""blue"",""orange""]","2","high nameability","20","right","response","1"
"html-audio-button-response","103","134227","0.0-79.0-1.0","CAN_135","135","","","","","","null","stimuli/bleep.m4a","null","orange","blue","[""orange"",""blue"",""high nameability""]","right-left","[""blue"",""orange""]","2","high nameability","20","right","audio_feedback","1"
"html-button-response","104","134743","0.0-80.0","CAN_135","135","","","","","","null","<button class=""jspsych-btn""><img src=""stimuli/white_square.png"" style=""width: 200px;height: 200px;""></button>","null","orange","blue","[""orange"",""blue"",""high nameability""]","right-left","[""blue"",""orange""]","2","high nameability","20","right","iti",""
"pavlovia","105","134813","0.0-81.0","CAN_135","135","","","","","","","","","","","","","","","","","","",""
"pavlovia","106","134823","0.0-82.0","CAN_135","135","","","","","","","","","","","","","","","","","","",""
"html-audio-button-response","107","136348","0.0-83.0","CAN_135","135","","","","","","1597","stimuli/tada.m4a","0","","","","","","","","","","",""
"html-button-response","108","137040","0.0-84.0","CAN_135","135","","","","","","683","","0","","","","","","","","","","",""
"html-button-response","109","137862","0.0-85.0","CAN_135","135","","","","","","812","","0","purple","orange","[""purple"",""orange"",""high nameability""]","right-left","[""orange"",""purple""]","3","high nameability","21","right","trigger",""
"html-button-response","110","138396","0.0-86.0-0.0","CAN_135","135","","","","","","525","<button class=""jspsych-btn""><img src=""stimuli/purple.png"" style=""width: 200px;height: 200px;""></button>","1","purple","orange","[""purple"",""orange"",""high nameability""]","right-left","[""orange"",""purple""]","3","high nameability","21","right","response","1"
"html-audio-button-response","111","138597","0.0-86.0-1.0","CAN_135","135","","","","","","null","stimuli/bleep.m4a","null","purple","orange","[""purple"",""orange"",""high nameability""]","right-left","[""orange"",""purple""]","3","high nameability","21","right","audio_feedback","1"
"html-button-response","112","139111","0.0-87.0","CAN_135","135","","","","","","null","<button class=""jspsych-btn""><img src=""stimuli/white_square.png"" style=""width: 200px;height: 200px;""></button>","null","purple","orange","[""purple"",""orange"",""high nameability""]","right-left","[""orange"",""purple""]","3","high nameability","21","right","iti",""
"html-button-response","113","139638","0.0-88.0","CAN_135","135","","","","","","512","","0","orange","purple","[""orange"",""purple"",""high nameability""]","right-left","[""purple"",""orange""]","3","high nameability","22","right","trigger",""
"html-button-response","114","140149","0.0-89.0-0.0","CAN_135","135","","","","","","506","<button class=""jspsych-btn""><img src=""stimuli/orange.png"" style=""width: 200px;height: 200px;""></button>","1","orange","purple","[""orange"",""purple"",""high nameability""]","right-left","[""purple"",""orange""]","3","high nameability","22","right","response","1"
"html-audio-button-response","115","140349","0.0-89.0-1.0","CAN_135","135","","","","","","null","stimuli/bleep.m4a","null","orange","purple","[""orange"",""purple"",""high nameability""]","right-left","[""purple"",""orange""]","3","high nameability","22","right","audio_feedback","1"
"html-button-response","116","140864","0.0-90.0","CAN_135","135","","","","","","null","<button class=""jspsych-btn""><img src=""stimuli/white_square.png"" style=""width: 200px;height: 200px;""></button>","null","orange","purple","[""orange"",""purple"",""high nameability""]","right-left","[""purple"",""orange""]","3","high nameability","22","right","iti",""
"html-button-response","117","141547","0.0-91.0","CAN_135","135","","","","","","661","","0","turquoise","pink","[""turquoise"",""pink"",""low nameability""]","left-right","[""turquoise"",""pink"",""low nameability""]","3","low nameability","23","left","trigger",""
"html-button-response","118","142119","0.0-92.0-0.0","CAN_135","135","","","","","","565","<button class=""jspsych-btn""><img src=""stimuli/turquoise.png"" style=""width: 200px;height: 200px;""></button>","0","turquoise","pink","[""turquoise"",""pink"",""low nameability""]","left-right","[""turquoise"",""pink"",""low nameability""]","3","low nameability","23","left","response","1"
"html-audio-button-response","119","142323","0.0-92.0-1.0","CAN_135","135","","","","","","null","stimuli/bleep.m4a","null","turquoise","pink","[""turquoise"",""pink"",""low nameability""]","left-right","[""turquoise"",""pink"",""low nameability""]","3","low nameability","23","left","audio_feedback","1"
"html-button-response","120","142839","0.0-93.0","CAN_135","135","","","","","","null","<button class=""jspsych-btn""><img src=""stimuli/white_square.png"" style=""width: 200px;height: 200px;""></button>","null","turquoise","pink","[""turquoise"",""pink"",""low nameability""]","left-right","[""turquoise"",""pink"",""low nameability""]","3","low nameability","23","left","iti",""
"html-button-response","121","143575","0.0-94.0","CAN_135","135","","","","","","719","","0","pink","turquoise","[""pink"",""turquoise"",""low nameability""]","right-left","[""turquoise"",""pink""]","3","low nameability","24","right","trigger",""
"html-button-response","122","144104","0.0-95.0-0.0","CAN_135","135","","","","","","523","<button class=""jspsych-btn""><img src=""stimuli/pink.png"" style=""width: 200px;height: 200px;""></button>","1","pink","turquoise","[""pink"",""turquoise"",""low nameability""]","right-left","[""turquoise"",""pink""]","3","low nameability","24","right","response","1"
"html-audio-button-response","123","144306","0.0-95.0-1.0","CAN_135","135","","","","","","null","stimuli/bleep.m4a","null","pink","turquoise","[""pink"",""turquoise"",""low nameability""]","right-left","[""turquoise"",""pink""]","3","low nameability","24","right","audio_feedback","1"
"html-button-response","124","144827","0.0-96.0","CAN_135","135","","","","","","null","<button class=""jspsych-btn""><img src=""stimuli/white_square.png"" style=""width: 200px;height: 200px;""></button>","null","pink","turquoise","[""pink"",""turquoise"",""low nameability""]","right-left","[""turquoise"",""pink""]","3","low nameability","24","right","iti",""
"html-button-response","125","145368","0.0-97.0","CAN_135","135","","","","","","526","","0","turquoise","mustard","[""turquoise"",""mustard"",""low nameability""]","left-right","[""turquoise"",""mustard"",""low nameability""]","3","low nameability","25","left","trigger",""
"html-button-response","126","146257","0.0-98.0-0.0","CAN_135","135","","","","","","882","<button class=""jspsych-btn""><img src=""stimuli/turquoise.png"" style=""width: 200px;height: 200px;""></button>","0","turquoise","mustard","[""turquoise"",""mustard"",""low nameability""]","left-right","[""turquoise"",""mustard"",""low nameability""]","3","low nameability","25","left","response","1"
"html-audio-button-response","127","146463","0.0-98.0-1.0","CAN_135","135","","","","","","null","stimuli/bleep.m4a","null","turquoise","mustard","[""turquoise"",""mustard"",""low nameability""]","left-right","[""turquoise"",""mustard"",""low nameability""]","3","low nameability","25","left","audio_feedback","1"
"html-button-response","128","146983","0.0-99.0","CAN_135","135","","","","","","null","<button class=""jspsych-btn""><img src=""stimuli/white_square.png"" style=""width: 200px;height: 200px;""></button>","null","turquoise","mustard","[""turquoise"",""mustard"",""low nameability""]","left-right","[""turquoise"",""mustard"",""low nameability""]","3","low nameability","25","left","iti",""
"html-button-response","129","147674","0.0-100.0","CAN_135","135","","","","","","674","","0","brown","red","[""brown"",""red"",""high nameability""]","right-left","[""red"",""brown""]","3","high nameability","26","right","trigger",""
"html-button-response","130","148167","0.0-101.0-0.0","CAN_135","135","","","","","","483","<button class=""jspsych-btn""><img src=""stimuli/brown.png"" style=""width: 200px;height: 200px;""></button>","1","brown","red","[""brown"",""red"",""high nameability""]","right-left","[""red"",""brown""]","3","high nameability","26","right","response","1"
"html-audio-button-response","131","148370","0.0-101.0-1.0","CAN_135","135","","","","","","null","stimuli/bleep.m4a","null","brown","red","[""brown"",""red"",""high nameability""]","right-left","[""red"",""brown""]","3","high nameability","26","right","audio_feedback","1"
"html-button-response","132","148892","0.0-102.0","CAN_135","135","","","","","","null","<button class=""jspsych-btn""><img src=""stimuli/white_square.png"" style=""width: 200px;height: 200px;""></button>","null","brown","red","[""brown"",""red"",""high nameability""]","right-left","[""red"",""brown""]","3","high nameability","26","right","iti",""
"html-button-response","133","149411","0.0-103.0","CAN_135","135","","","","","","504","","0","neonyellow","mustard","[""neonyellow"",""mustard"",""low nameability""]","left-right","[""neonyellow"",""mustard"",""low nameability""]","3","low nameability","27","left","trigger",""
"html-button-response","134","150047","0.0-104.0-0.0","CAN_135","135","","","","","","629","<button class=""jspsych-btn""><img src=""stimuli/neonyellow.png"" style=""width: 200px;height: 200px;""></button>","0","neonyellow","mustard","[""neonyellow"",""mustard"",""low nameability""]","left-right","[""neonyellow"",""mustard"",""low nameability""]","3","low nameability","27","left","response","1"
"html-audio-button-response","135","150250","0.0-104.0-1.0","CAN_135","135","","","","","","null","stimuli/bleep.m4a","null","neonyellow","mustard","[""neonyellow"",""mustard"",""low nameability""]","left-right","[""neonyellow"",""mustard"",""low nameability""]","3","low nameability","27","left","audio_feedback","1"
"html-button-response","136","150769","0.0-105.0","CAN_135","135","","","","","","null","<button class=""jspsych-btn""><img src=""stimuli/white_square.png"" style=""width: 200px;height: 200px;""></button>","null","neonyellow","mustard","[""neonyellow"",""mustard"",""low nameability""]","left-right","[""neonyellow"",""mustard"",""low nameability""]","3","low nameability","27","left","iti",""
"html-button-response","137","151354","0.0-106.0","CAN_135","135","","","","","","566","","0","turquoise","darkgreenblue","[""turquoise"",""darkgreenblue"",""low nameability""]","right-left","[""darkgreenblue"",""turquoise""]","3","low nameability","28","right","trigger",""
"html-button-response","138","151888","0.0-107.0-0.0","CAN_135","135","","","","","","527","<button class=""jspsych-btn""><img src=""stimuli/turquoise.png"" style=""width: 200px;height: 200px;""></button>","1","turquoise","darkgreenblue","[""turquoise"",""darkgreenblue"",""low nameability""]","right-left","[""darkgreenblue"",""turquoise""]","3","low nameability","28","right","response","1"
"html-audio-button-response","139","152095","0.0-107.0-1.0","CAN_135","135","","","","","","null","stimuli/bleep.m4a","null","turquoise","darkgreenblue","[""turquoise"",""darkgreenblue"",""low nameability""]","right-left","[""darkgreenblue"",""turquoise""]","3","low nameability","28","right","audio_feedback","1"
"html-button-response","140","152614","0.0-108.0","CAN_135","135","","","","","","null","<button class=""jspsych-btn""><img src=""stimuli/white_square.png"" style=""width: 200px;height: 200px;""></button>","null","turquoise","darkgreenblue","[""turquoise"",""darkgreenblue"",""low nameability""]","right-left","[""darkgreenblue"",""turquoise""]","3","low nameability","28","right","iti",""
"html-button-response","141","153231","0.0-109.0","CAN_135","135","","","","","","602","","0","red","blue","[""red"",""blue"",""high nameability""]","right-left","[""blue"",""red""]","3","high nameability","29","right","trigger",""
"html-button-response","142","153814","0.0-110.0-0.0","CAN_135","135","","","","","","574","<button class=""jspsych-btn""><img src=""stimuli/red.png"" style=""width: 200px;height: 200px;""></button>","1","red","blue","[""red"",""blue"",""high nameability""]","right-left","[""blue"",""red""]","3","high nameability","29","right","response","1"
"html-audio-button-response","143","154018","0.0-110.0-1.0","CAN_135","135","","","","","","null","stimuli/bleep.m4a","null","red","blue","[""red"",""blue"",""high nameability""]","right-left","[""blue"",""red""]","3","high nameability","29","right","audio_feedback","1"
"html-button-response","144","154541","0.0-111.0","CAN_135","135","","","","","","null","<button class=""jspsych-btn""><img src=""stimuli/white_square.png"" style=""width: 200px;height: 200px;""></button>","null","red","blue","[""red"",""blue"",""high nameability""]","right-left","[""blue"",""red""]","3","high nameability","29","right","iti",""
"html-button-response","145","155248","0.0-112.0","CAN_135","135","","","","","","695","","0","pink","lightred","[""pink"",""lightred"",""low nameability""]","left-right","[""pink"",""lightred"",""low nameability""]","3","low nameability","30","left","trigger",""
"html-button-response","146","155905","0.0-113.0-0.0","CAN_135","135","","","","","","650","<button class=""jspsych-btn""><img src=""stimuli/pink.png"" style=""width: 200px;height: 200px;""></button>","0","pink","lightred","[""pink"",""lightred"",""low nameability""]","left-right","[""pink"",""lightred"",""low nameability""]","3","low nameability","30","left","response","1"
"html-audio-button-response","147","156109","0.0-113.0-1.0","CAN_135","135","","","","","","null","stimuli/bleep.m4a","null","pink","lightred","[""pink"",""lightred"",""low nameability""]","left-right","[""pink"",""lightred"",""low nameability""]","3","low nameability","30","left","audio_feedback","1"
"html-button-response","148","156629","0.0-114.0","CAN_135","135","","","","","","null","<button class=""jspsych-btn""><img src=""stimuli/white_square.png"" style=""width: 200px;height: 200px;""></button>","null","pink","lightred","[""pink"",""lightred"",""low nameability""]","left-right","[""pink"",""lightred"",""low nameability""]","3","low nameability","30","left","iti",""
"pavlovia","149","156698","0.0-115.0","CAN_135","135","","","","","","","","","","","","","","","","","","",""
"pavlovia","150","156709","0.0-116.0","CAN_135","135","","","","","","","","","","","","","","","","","","",""
"html-audio-button-response","151","158257","0.0-117.0","CAN_135","135","","","","","","1627","stimuli/tada.m4a","0","","","","","","","","","","",""
"html-button-response","152","158898","0.0-118.0","CAN_135","135","","","","","","635","","0","","","","","","","","","","",""
"html-button-response","153","159908","0.0-119.0","CAN_135","135","","","","","","1003","","0","darkgreenblue","neonyellow","[""darkgreenblue"",""neonyellow"",""low nameability""]","right-left","[""neonyellow"",""darkgreenblue""]","4","low nameability","31","right","trigger",""
"html-button-response","154","160437","0.0-120.0-0.0","CAN_135","135","","","","","","522","<button class=""jspsych-btn""><img src=""stimuli/darkgreenblue.png"" style=""width: 200px;height: 200px;""></button>","1","darkgreenblue","neonyellow","[""darkgreenblue"",""neonyellow"",""low nameability""]","right-left","[""neonyellow"",""darkgreenblue""]","4","low nameability","31","right","response","1"
"html-audio-button-response","155","160643","0.0-120.0-1.0","CAN_135","135","","","","","","null","stimuli/bleep.m4a","null","darkgreenblue","neonyellow","[""darkgreenblue"",""neonyellow"",""low nameability""]","right-left","[""neonyellow"",""darkgreenblue""]","4","low nameability","31","right","audio_feedback","1"
"html-button-response","156","161156","0.0-121.0","CAN_135","135","","","","","","null","<button class=""jspsych-btn""><img src=""stimuli/white_square.png"" style=""width: 200px;height: 200px;""></button>","null","darkgreenblue","neonyellow","[""darkgreenblue"",""neonyellow"",""low nameability""]","right-left","[""neonyellow"",""darkgreenblue""]","4","low nameability","31","right","iti",""
"html-button-response","157","161782","0.0-122.0","CAN_135","135","","","","","","611","","0","mustard","darkgreenblue","[""mustard"",""darkgreenblue"",""low nameability""]","right-left","[""darkgreenblue"",""mustard""]","4","low nameability","32","right","trigger",""
"html-button-response","158","162376","0.0-123.0-0.0","CAN_135","135","","","","","","585","<button class=""jspsych-btn""><img src=""stimuli/mustard.png"" style=""width: 200px;height: 200px;""></button>","1","mustard","darkgreenblue","[""mustard"",""darkgreenblue"",""low nameability""]","right-left","[""darkgreenblue"",""mustard""]","4","low nameability","32","right","response","1"
"html-audio-button-response","159","162577","0.0-123.0-1.0","CAN_135","135","","","","","","null","stimuli/bleep.m4a","null","mustard","darkgreenblue","[""mustard"",""darkgreenblue"",""low nameability""]","right-left","[""darkgreenblue"",""mustard""]","4","low nameability","32","right","audio_feedback","1"
"html-button-response","160","163095","0.0-124.0","CAN_135","135","","","","","","null","<button class=""jspsych-btn""><img src=""stimuli/white_square.png"" style=""width: 200px;height: 200px;""></button>","null","mustard","darkgreenblue","[""mustard"",""darkgreenblue"",""low nameability""]","right-left","[""darkgreenblue"",""mustard""]","4","low nameability","32","right","iti",""
"html-button-response","161","163682","0.0-125.0","CAN_135","135","","","","","","552","","0","turquoise","lightred","[""turquoise"",""lightred"",""low nameability""]","left-right","[""turquoise"",""lightred"",""low nameability""]","4","low nameability","33","left","trigger",""
"html-button-response","162","164327","0.0-126.0-0.0","CAN_135","135","","","","","","639","<button class=""jspsych-btn""><img src=""stimuli/turquoise.png"" style=""width: 200px;height: 200px;""></button>","0","turquoise","lightred","[""turquoise"",""lightred"",""low nameability""]","left-right","[""turquoise"",""lightred"",""low nameability""]","4","low nameability","33","left","response","1"
"html-audio-button-response","163","164530","0.0-126.0-1.0","CAN_135","135","","","","","","null","stimuli/bleep.m4a","null","turquoise","lightred","[""turquoise"",""lightred"",""low nameability""]","left-right","[""turquoise"",""lightred"",""low nameability""]","4","low nameability","33","left","audio_feedback","1"
"html-button-response","164","165046","0.0-127.0","CAN_135","135","","","","","","null","<button class=""jspsych-btn""><img src=""stimuli/white_square.png"" style=""width: 200px;height: 200px;""></button>","null","turquoise","lightred","[""turquoise"",""lightred"",""low nameability""]","left-right","[""turquoise"",""lightred"",""low nameability""]","4","low nameability","33","left","iti",""
"html-button-response","165","165836","0.0-128.0","CAN_135","135","","","","","","773","","0","red","purple","[""red"",""purple"",""high nameability""]","left-right","[""red"",""purple"",""high nameability""]","4","high nameability","34","left","trigger",""
"html-button-response","166","166378","0.0-129.0-0.0","CAN_135","135","","","","","","534","<button class=""jspsych-btn""><img src=""stimuli/red.png"" style=""width: 200px;height: 200px;""></button>","0","red","purple","[""red"",""purple"",""high nameability""]","left-right","[""red"",""purple"",""high nameability""]","4","high nameability","34","left","response","1"
"html-audio-button-response","167","166583","0.0-129.0-1.0","CAN_135","135","","","","","","null","stimuli/bleep.m4a","null","red","purple","[""red"",""purple"",""high nameability""]","left-right","[""red"",""purple"",""high nameability""]","4","high nameability","34","left","audio_feedback","1"
"html-button-response","168","167102","0.0-130.0","CAN_135","135","","","","","","null","<button class=""jspsych-btn""><img src=""stimuli/white_square.png"" style=""width: 200px;height: 200px;""></button>","null","red","purple","[""red"",""purple"",""high nameability""]","left-right","[""red"",""purple"",""high nameability""]","4","high nameability","34","left","iti",""
"html-button-response","169","167722","0.0-131.0","CAN_135","135","","","","","","603","","0","brown","purple","[""brown"",""purple"",""high nameability""]","right-left","[""purple"",""brown""]","4","high nameability","35","right","trigger",""
"html-button-response","170","168193","0.0-132.0-0.0","CAN_135","135","","","","","","463","<button class=""jspsych-btn""><img src=""stimuli/brown.png"" style=""width: 200px;height: 200px;""></button>","1","brown","purple","[""brown"",""purple"",""high nameability""]","right-left","[""purple"",""brown""]","4","high nameability","35","right","response","1"
"html-audio-button-response","171","168403","0.0-132.0-1.0","CAN_135","135","","","","","","null","stimuli/bleep.m4a","null","brown","purple","[""brown"",""purple"",""high nameability""]","right-left","[""purple"",""brown""]","4","high nameability","35","right","audio_feedback","1"
"html-button-response","172","168928","0.0-133.0","CAN_135","135","","","","","","null","<button class=""jspsych-btn""><img src=""stimuli/white_square.png"" style=""width: 200px;height: 200px;""></button>","null","brown","purple","[""brown"",""purple"",""high nameability""]","right-left","[""purple"",""brown""]","4","high nameability","35","right","iti",""
"html-button-response","173","169492","0.0-134.0","CAN_135","135","","","","","","544","","0","neonyellow","lightred","[""neonyellow"",""lightred"",""low nameability""]","left-right","[""neonyellow"",""lightred"",""low nameability""]","4","low nameability","36","left","trigger",""
"html-button-response","174","170032","0.0-135.0-0.0","CAN_135","135","","","","","","533","<button class=""jspsych-btn""><img src=""stimuli/neonyellow.png"" style=""width: 200px;height: 200px;""></button>","0","neonyellow","lightred","[""neonyellow"",""lightred"",""low nameability""]","left-right","[""neonyellow"",""lightred"",""low nameability""]","4","low nameability","36","left","response","1"
"html-audio-button-response","175","170237","0.0-135.0-1.0","CAN_135","135","","","","","","null","stimuli/bleep.m4a","null","neonyellow","lightred","[""neonyellow"",""lightred"",""low nameability""]","left-right","[""neonyellow"",""lightred"",""low nameability""]","4","low nameability","36","left","audio_feedback","1"
"html-button-response","176","170756","0.0-136.0","CAN_135","135","","","","","","null","<button class=""jspsych-btn""><img src=""stimuli/white_square.png"" style=""width: 200px;height: 200px;""></button>","null","neonyellow","lightred","[""neonyellow"",""lightred"",""low nameability""]","left-right","[""neonyellow"",""lightred"",""low nameability""]","4","low nameability","36","left","iti",""
"html-button-response","177","171275","0.0-137.0","CAN_135","135","","","","","","501","","0","blue","purple","[""blue"",""purple"",""high nameability""]","right-left","[""purple"",""blue""]","4","high nameability","37","right","trigger",""
"html-button-response","178","172152","0.0-138.0-0.0","CAN_135","135","","","","","","870","<button class=""jspsych-btn""><img src=""stimuli/blue.png"" style=""width: 200px;height: 200px;""></button>","1","blue","purple","[""blue"",""purple"",""high nameability""]","right-left","[""purple"",""blue""]","4","high nameability","37","right","response","1"
"html-audio-button-response","179","172359","0.0-138.0-1.0","CAN_135","135","","","","","","null","stimuli/bleep.m4a","null","blue","purple","[""blue"",""purple"",""high nameability""]","right-left","[""purple"",""blue""]","4","high nameability","37","right","audio_feedback","1"
"html-button-response","180","172883","0.0-139.0","CAN_135","135","","","","","","null","<button class=""jspsych-btn""><img src=""stimuli/white_square.png"" style=""width: 200px;height: 200px;""></button>","null","blue","purple","[""blue"",""purple"",""high nameability""]","right-left","[""purple"",""blue""]","4","high nameability","37","right","iti",""
"html-button-response","181","173402","0.0-140.0","CAN_135","135","","","","","","497","","0","red","orange","[""red"",""orange"",""high nameability""]","left-right","[""red"",""orange"",""high nameability""]","4","high nameability","38","left","trigger",""
"html-button-response","182","174003","0.0-141.0-0.0","CAN_135","135","","","","","","587","<button class=""jspsych-btn""><img src=""stimuli/red.png"" style=""width: 200px;height: 200px;""></button>","0","red","orange","[""red"",""orange"",""high nameability""]","left-right","[""red"",""orange"",""high nameability""]","4","high nameability","38","left","response","1"
"html-audio-button-response","183","174212","0.0-141.0-1.0","CAN_135","135","","","","","","null","stimuli/bleep.m4a","null","red","orange","[""red"",""orange"",""high nameability""]","left-right","[""red"",""orange"",""high nameability""]","4","high nameability","38","left","audio_feedback","1"
"html-button-response","184","174724","0.0-142.0","CAN_135","135","","","","","","null","<button class=""jspsych-btn""><img src=""stimuli/white_square.png"" style=""width: 200px;height: 200px;""></button>","null","red","orange","[""red"",""orange"",""high nameability""]","left-right","[""red"",""orange"",""high nameability""]","4","high nameability","38","left","iti",""
"html-button-response","185","175308","0.0-143.0","CAN_135","135","","","","","","562","","0","darkgreenblue","pink","[""darkgreenblue"",""pink"",""low nameability""]","left-right","[""darkgreenblue"",""pink"",""low nameability""]","4","low nameability","39","left","trigger",""
"html-button-response","186","175904","0.0-144.0-0.0","CAN_135","135","","","","","","589","<button class=""jspsych-btn""><img src=""stimuli/darkgreenblue.png"" style=""width: 200px;height: 200px;""></button>","0","darkgreenblue","pink","[""darkgreenblue"",""pink"",""low nameability""]","left-right","[""darkgreenblue"",""pink"",""low nameability""]","4","low nameability","39","left","response","1"
"html-audio-button-response","187","176105","0.0-144.0-1.0","CAN_135","135","","","","","","null","stimuli/bleep.m4a","null","darkgreenblue","pink","[""darkgreenblue"",""pink"",""low nameability""]","left-right","[""darkgreenblue"",""pink"",""low nameability""]","4","low nameability","39","left","audio_feedback","1"
"html-button-response","188","176626","0.0-145.0","CAN_135","135","","","","","","null","<button class=""jspsych-btn""><img src=""stimuli/white_square.png"" style=""width: 200px;height: 200px;""></button>","null","darkgreenblue","pink","[""darkgreenblue"",""pink"",""low nameability""]","left-right","[""darkgreenblue"",""pink"",""low nameability""]","4","low nameability","39","left","iti",""
"html-button-response","189","177210","0.0-146.0","CAN_135","135","","","","","","566","","0","pink","mustard","[""pink"",""mustard"",""low nameability""]","left-right","[""pink"",""mustard"",""low nameability""]","4","low nameability","40","left","trigger",""
"html-button-response","190","177901","0.0-147.0-0.0","CAN_135","135","","","","","","682","<button class=""jspsych-btn""><img src=""stimuli/pink.png"" style=""width: 200px;height: 200px;""></button>","0","pink","mustard","[""pink"",""mustard"",""low nameability""]","left-right","[""pink"",""mustard"",""low nameability""]","4","low nameability","40","left","response","1"
"html-audio-button-response","191","178106","0.0-147.0-1.0","CAN_135","135","","","","","","null","stimuli/bleep.m4a","null","pink","mustard","[""pink"",""mustard"",""low nameability""]","left-right","[""pink"",""mustard"",""low nameability""]","4","low nameability","40","left","audio_feedback","1"
"html-button-response","192","178627","0.0-148.0","CAN_135","135","","","","","","null","<button class=""jspsych-btn""><img src=""stimuli/white_square.png"" style=""width: 200px;height: 200px;""></button>","null","pink","mustard","[""pink"",""mustard"",""low nameability""]","left-right","[""pink"",""mustard"",""low nameability""]","4","low nameability","40","left","iti",""
"pavlovia","193","178691","0.0-149.0","CAN_135","135","","","","","","","","","","","","","","","","","","",""
"pavlovia","194","178698","0.0-150.0","CAN_135","135","","","","","","","","","","","","","","","","","","",""
"html-audio-button-response","195","180140","0.0-151.0","CAN_135","135","","","","","","1517","stimuli/tada.m4a","0","","","","","","","","","","",""
"html-button-response","196","180805","0.0-152.0","CAN_135","135","","","","","","661","","0","","","","","","","","","","",""
"html-button-response","197","181515","0.0-153.0","CAN_135","135","","","","","","702","","0","orange","yellow","[""orange"",""yellow"",""high nameability""]","left-right","[""orange"",""yellow"",""high nameability""]","5","high nameability","41","left","trigger",""
"html-button-response","198","182049","0.0-154.0-0.0","CAN_135","135","","","","","","526","<button class=""jspsych-btn""><img src=""stimuli/orange.png"" style=""width: 200px;height: 200px;""></button>","0","orange","yellow","[""orange"",""yellow"",""high nameability""]","left-right","[""orange"",""yellow"",""high nameability""]","5","high nameability","41","left","response","1"
"html-audio-button-response","199","182250","0.0-154.0-1.0","CAN_135","135","","","","","","null","stimuli/bleep.m4a","null","orange","yellow","[""orange"",""yellow"",""high nameability""]","left-right","[""orange"",""yellow"",""high nameability""]","5","high nameability","41","left","audio_feedback","1"
"html-button-response","200","182772","0.0-155.0","CAN_135","135","","","","","","null","<button class=""jspsych-btn""><img src=""stimuli/white_square.png"" style=""width: 200px;height: 200px;""></button>","null","orange","yellow","[""orange"",""yellow"",""high nameability""]","left-right","[""orange"",""yellow"",""high nameability""]","5","high nameability","41","left","iti",""
"html-button-response","201","183261","0.0-156.0","CAN_135","135","","","","","","457","","0","mustard","neonyellow","[""mustard"",""neonyellow"",""low nameability""]","right-left","[""neonyellow"",""mustard""]","5","low nameability","42","right","trigger",""
"html-button-response","202","183756","0.0-157.0-0.0","CAN_135","135","","","","","","483","<button class=""jspsych-btn""><img src=""stimuli/mustard.png"" style=""width: 200px;height: 200px;""></button>","1","mustard","neonyellow","[""mustard"",""neonyellow"",""low nameability""]","right-left","[""neonyellow"",""mustard""]","5","low nameability","42","right","response","1"
"html-audio-button-response","203","183958","0.0-157.0-1.0","CAN_135","135","","","","","","null","stimuli/bleep.m4a","null","mustard","neonyellow","[""mustard"",""neonyellow"",""low nameability""]","right-left","[""neonyellow"",""mustard""]","5","low nameability","42","right","audio_feedback","1"
"html-button-response","204","184474","0.0-158.0","CAN_135","135","","","","","","null","<button class=""jspsych-btn""><img src=""stimuli/white_square.png"" style=""width: 200px;height: 200px;""></button>","null","mustard","neonyellow","[""mustard"",""neonyellow"",""low nameability""]","right-left","[""neonyellow"",""mustard""]","5","low nameability","42","right","iti",""
"html-button-response","205","184993","0.0-159.0","CAN_135","135","","","","","","499","","0","orange","red","[""orange"",""red"",""high nameability""]","right-left","[""red"",""orange""]","5","high nameability","43","right","trigger",""
"html-button-response","206","185549","0.0-160.0-0.0","CAN_135","135","","","","","","547","<button class=""jspsych-btn""><img src=""stimuli/orange.png"" style=""width: 200px;height: 200px;""></button>","1","orange","red","[""orange"",""red"",""high nameability""]","right-left","[""red"",""orange""]","5","high nameability","43","right","response","1"
"html-audio-button-response","207","185754","0.0-160.0-1.0","CAN_135","135","","","","","","null","stimuli/bleep.m4a","null","orange","red","[""orange"",""red"",""high nameability""]","right-left","[""red"",""orange""]","5","high nameability","43","right","audio_feedback","1"
"html-button-response","208","186275","0.0-161.0","CAN_135","135","","","","","","null","<button class=""jspsych-btn""><img src=""stimuli/white_square.png"" style=""width: 200px;height: 200px;""></button>","null","orange","red","[""orange"",""red"",""high nameability""]","right-left","[""red"",""orange""]","5","high nameability","43","right","iti",""
"html-button-response","209","186848","0.0-162.0","CAN_135","135","","","","","","558","","0","darkgreenblue","turquoise","[""darkgreenblue"",""turquoise"",""low nameability""]","left-right","[""darkgreenblue"",""turquoise"",""low nameability""]","5","low nameability","44","left","trigger",""
"html-button-response","210","187399","0.0-163.0-0.0","CAN_135","135","","","","","","543","<button class=""jspsych-btn""><img src=""stimuli/darkgreenblue.png"" style=""width: 200px;height: 200px;""></button>","0","darkgreenblue","turquoise","[""darkgreenblue"",""turquoise"",""low nameability""]","left-right","[""darkgreenblue"",""turquoise"",""low nameability""]","5","low nameability","44","left","response","1"
"html-audio-button-response","211","187604","0.0-163.0-1.0","CAN_135","135","","","","","","null","stimuli/bleep.m4a","null","darkgreenblue","turquoise","[""darkgreenblue"",""turquoise"",""low nameability""]","left-right","[""darkgreenblue"",""turquoise"",""low nameability""]","5","low nameability","44","left","audio_feedback","1"
"html-button-response","212","188123","0.0-164.0","CAN_135","135","","","","","","null","<button class=""jspsych-btn""><img src=""stimuli/white_square.png"" style=""width: 200px;height: 200px;""></button>","null","darkgreenblue","turquoise","[""darkgreenblue"",""turquoise"",""low nameability""]","left-right","[""darkgreenblue"",""turquoise"",""low nameability""]","5","low nameability","44","left","iti",""
"html-button-response","213","188769","0.0-165.0","CAN_135","135","","","","","","632","","0","neonyellow","pink","[""neonyellow"",""pink"",""low nameability""]","right-left","[""pink"",""neonyellow""]","5","low nameability","45","right","trigger",""
"html-button-response","214","189274","0.0-166.0-0.0","CAN_135","135","","","","","","497","<button class=""jspsych-btn""><img src=""stimuli/neonyellow.png"" style=""width: 200px;height: 200px;""></button>","1","neonyellow","pink","[""neonyellow"",""pink"",""low nameability""]","right-left","[""pink"",""neonyellow""]","5","low nameability","45","right","response","1"
"html-audio-button-response","215","189479","0.0-166.0-1.0","CAN_135","135","","","","","","null","stimuli/bleep.m4a","null","neonyellow","pink","[""neonyellow"",""pink"",""low nameability""]","right-left","[""pink"",""neonyellow""]","5","low nameability","45","right","audio_feedback","1"
"html-button-response","216","189997","0.0-167.0","CAN_135","135","","","","","","null","<button class=""jspsych-btn""><img src=""stimuli/white_square.png"" style=""width: 200px;height: 200px;""></button>","null","neonyellow","pink","[""neonyellow"",""pink"",""low nameability""]","right-left","[""pink"",""neonyellow""]","5","low nameability","45","right","iti",""
"html-button-response","217","190646","0.0-168.0","CAN_135","135","","","","","","634","","0","turquoise","neonyellow","[""turquoise"",""neonyellow"",""low nameability""]","left-right","[""turquoise"",""neonyellow"",""low nameability""]","5","low nameability","46","left","trigger",""
"html-button-response","218","191296","0.0-169.0-0.0","CAN_135","135","","","","","","641","<button class=""jspsych-btn""><img src=""stimuli/turquoise.png"" style=""width: 200px;height: 200px;""></button>","0","turquoise","neonyellow","[""turquoise"",""neonyellow"",""low nameability""]","left-right","[""turquoise"",""neonyellow"",""low nameability""]","5","low nameability","46","left","response","1"
"html-audio-button-response","219","191498","0.0-169.0-1.0","CAN_135","135","","","","","","null","stimuli/bleep.m4a","null","turquoise","neonyellow","[""turquoise"",""neonyellow"",""low nameability""]","left-right","[""turquoise"",""neonyellow"",""low nameability""]","5","low nameability","46","left","audio_feedback","1"
"html-button-response","220","192015","0.0-170.0","CAN_135","135","","","","","","null","<button class=""jspsych-btn""><img src=""stimuli/white_square.png"" style=""width: 200px;height: 200px;""></button>","null","turquoise","neonyellow","[""turquoise"",""neonyellow"",""low nameability""]","left-right","[""turquoise"",""neonyellow"",""low nameability""]","5","low nameability","46","left","iti",""
"html-button-response","221","192676","0.0-171.0","CAN_135","135","","","","","","644","","0","purple","yellow","[""purple"",""yellow"",""high nameability""]","left-right","[""purple"",""yellow"",""high nameability""]","5","high nameability","47","left","trigger",""
"html-button-response","222","193255","0.0-172.0-0.0","CAN_135","135","","","","","","572","<button class=""jspsych-btn""><img src=""stimuli/purple.png"" style=""width: 200px;height: 200px;""></button>","0","purple","yellow","[""purple"",""yellow"",""high nameability""]","left-right","[""purple"",""yellow"",""high nameability""]","5","high nameability","47","left","response","1"
"html-audio-button-response","223","193458","0.0-172.0-1.0","CAN_135","135","","","","","","null","stimuli/bleep.m4a","null","purple","yellow","[""purple"",""yellow"",""high nameability""]","left-right","[""purple"",""yellow"",""high nameability""]","5","high nameability","47","left","audio_feedback","1"
"html-button-response","224","193973","0.0-173.0","CAN_135","135","","","","","","null","<button class=""jspsych-btn""><img src=""stimuli/white_square.png"" style=""width: 200px;height: 200px;""></button>","null","purple","yellow","[""purple"",""yellow"",""high nameability""]","left-right","[""purple"",""yellow"",""high nameability""]","5","high nameability","47","left","iti",""
"html-button-response","225","194646","0.0-174.0","CAN_135","135","","","","","","654","","0","blue","yellow","[""blue"",""yellow"",""high nameability""]","right-left","[""yellow"",""blue""]","5","high nameability","48","right","trigger",""
"html-button-response","226","195132","0.0-175.0-0.0","CAN_135","135","","","","","","478","<button class=""jspsych-btn""><img src=""stimuli/blue.png"" style=""width: 200px;height: 200px;""></button>","1","blue","yellow","[""blue"",""yellow"",""high nameability""]","right-left","[""yellow"",""blue""]","5","high nameability","48","right","response","1"
"html-audio-button-response","227","195334","0.0-175.0-1.0","CAN_135","135","","","","","","null","stimuli/bleep.m4a","null","blue","yellow","[""blue"",""yellow"",""high nameability""]","right-left","[""yellow"",""blue""]","5","high nameability","48","right","audio_feedback","1"
"html-button-response","228","195854","0.0-176.0","CAN_135","135","","","","","","null","<button class=""jspsych-btn""><img src=""stimuli/white_square.png"" style=""width: 200px;height: 200px;""></button>","null","blue","yellow","[""blue"",""yellow"",""high nameability""]","right-left","[""yellow"",""blue""]","5","high nameability","48","right","iti",""
"html-button-response","229","196514","0.0-177.0","CAN_135","135","","","","","","637","","0","yellow","orange","[""yellow"",""orange"",""high nameability""]","right-left","[""orange"",""yellow""]","5","high nameability","49","right","trigger",""
"html-button-response","230","197053","0.0-178.0-0.0","CAN_135","135","","","","","","534","<button class=""jspsych-btn""><img src=""stimuli/yellow.png"" style=""width: 200px;height: 200px;""></button>","1","yellow","orange","[""yellow"",""orange"",""high nameability""]","right-left","[""orange"",""yellow""]","5","high nameability","49","right","response","1"
"html-audio-button-response","231","197259","0.0-178.0-1.0","CAN_135","135","","","","","","null","stimuli/bleep.m4a","null","yellow","orange","[""yellow"",""orange"",""high nameability""]","right-left","[""orange"",""yellow""]","5","high nameability","49","right","audio_feedback","1"
"html-button-response","232","197777","0.0-179.0","CAN_135","135","","","","","","null","<button class=""jspsych-btn""><img src=""stimuli/white_square.png"" style=""width: 200px;height: 200px;""></button>","null","yellow","orange","[""yellow"",""orange"",""high nameability""]","right-left","[""orange"",""yellow""]","5","high nameability","49","right","iti",""
"html-button-response","233","198458","0.0-180.0","CAN_135","135","","","","","","665","","0","orange","brown","[""orange"",""brown"",""high nameability""]","right-left","[""brown"",""orange""]","5","high nameability","50","right","trigger",""
"html-button-response","234","199034","0.0-181.0-0.0","CAN_135","135","","","","","","569","<button class=""jspsych-btn""><img src=""stimuli/orange.png"" style=""width: 200px;height: 200px;""></button>","1","orange","brown","[""orange"",""brown"",""high nameability""]","right-left","[""brown"",""orange""]","5","high nameability","50","right","response","1"
"html-audio-button-response","235","199238","0.0-181.0-1.0","CAN_135","135","","","","","","null","stimuli/bleep.m4a","null","orange","brown","[""orange"",""brown"",""high nameability""]","right-left","[""brown"",""orange""]","5","high nameability","50","right","audio_feedback","1"
"html-button-response","236","199755","0.0-182.0","CAN_135","135","","","","","","null","<button class=""jspsych-btn""><img src=""stimuli/white_square.png"" style=""width: 200px;height: 200px;""></button>","null","orange","brown","[""orange"",""brown"",""high nameability""]","right-left","[""brown"",""orange""]","5","high nameability","50","right","iti",""
"pavlovia","237","199815","0.0-183.0","CAN_135","135","","","","","","","","","","","","","","","","","","",""
"pavlovia","238","199824","0.0-184.0","CAN_135","135","","","","","","","","","","","","","","","","","","",""
"html-audio-button-response","239","201325","0.0-185.0","CAN_135","135","","","","","","1568","stimuli/tada.m4a","0","","","","","","","","","","",""
"html-button-response","240","203497","0.0-186.0","CAN_135","135","","","","","","2166","","0","","","","","","","","","","",""
"html-button-response","241","204245","0.0-187.0","CAN_135","135","","","","","","743","","0","purple","brown","[""purple"",""brown"",""high nameability""]","left-right","[""purple"",""brown"",""high nameability""]","6","high nameability","51","left","trigger",""
"html-button-response","242","204802","0.0-188.0-0.0","CAN_135","135","","","","","","551","<button class=""jspsych-btn""><img src=""stimuli/purple.png"" style=""width: 200px;height: 200px;""></button>","0","purple","brown","[""purple"",""brown"",""high nameability""]","left-right","[""purple"",""brown"",""high nameability""]","6","high nameability","51","left","response","1"
"html-audio-button-response","243","205002","0.0-188.0-1.0","CAN_135","135","","","","","","null","stimuli/bleep.m4a","null","purple","brown","[""purple"",""brown"",""high nameability""]","left-right","[""purple"",""brown"",""high nameability""]","6","high nameability","51","left","audio_feedback","1"
"html-button-response","244","205523","0.0-189.0","CAN_135","135","","","","","","null","<button class=""jspsych-btn""><img src=""stimuli/white_square.png"" style=""width: 200px;height: 200px;""></button>","null","purple","brown","[""purple"",""brown"",""high nameability""]","left-right","[""purple"",""brown"",""high nameability""]","6","high nameability","51","left","iti",""
"html-button-response","245","206147","0.0-190.0","CAN_135","135","","","","","","609","","0","yellow","red","[""yellow"",""red"",""high nameability""]","left-right","[""yellow"",""red"",""high nameability""]","6","high nameability","52","left","trigger",""
"html-button-response","246","206714","0.0-191.0-0.0","CAN_135","135","","","","","","560","<button class=""jspsych-btn""><img src=""stimuli/yellow.png"" style=""width: 200px;height: 200px;""></button>","0","yellow","red","[""yellow"",""red"",""high nameability""]","left-right","[""yellow"",""red"",""high nameability""]","6","high nameability","52","left","response","1"
"html-audio-button-response","247","206918","0.0-191.0-1.0","CAN_135","135","","","","","","null","stimuli/bleep.m4a","null","yellow","red","[""yellow"",""red"",""high nameability""]","left-right","[""yellow"",""red"",""high nameability""]","6","high nameability","52","left","audio_feedback","1"
"html-button-response","248","207431","0.0-192.0","CAN_135","135","","","","","","null","<button class=""jspsych-btn""><img src=""stimuli/white_square.png"" style=""width: 200px;height: 200px;""></button>","null","yellow","red","[""yellow"",""red"",""high nameability""]","left-right","[""yellow"",""red"",""high nameability""]","6","high nameability","52","left","iti",""
"html-button-response","249","208155","0.0-193.0","CAN_135","135","","","","","","708","","0","yellow","brown","[""yellow"",""brown"",""high nameability""]","left-right","[""yellow"",""brown"",""high nameability""]","6","high nameability","53","left","trigger",""
"html-button-response","250","208700","0.0-194.0-0.0","CAN_135","135","","","","","","540","<button class=""jspsych-btn""><img src=""stimuli/yellow.png"" style=""width: 200px;height: 200px;""></button>","0","yellow","brown","[""yellow"",""brown"",""high nameability""]","left-right","[""yellow"",""brown"",""high nameability""]","6","high nameability","53","left","response","1"
"html-audio-button-response","251","208908","0.0-194.0-1.0","CAN_135","135","","","","","","null","stimuli/bleep.m4a","null","yellow","brown","[""yellow"",""brown"",""high nameability""]","left-right","[""yellow"",""brown"",""high nameability""]","6","high nameability","53","left","audio_feedback","1"
"html-button-response","252","209430","0.0-195.0","CAN_135","135","","","","","","null","<button class=""jspsych-btn""><img src=""stimuli/white_square.png"" style=""width: 200px;height: 200px;""></button>","null","yellow","brown","[""yellow"",""brown"",""high nameability""]","left-right","[""yellow"",""brown"",""high nameability""]","6","high nameability","53","left","iti",""
"html-button-response","253","210021","0.0-196.0","CAN_135","135","","","","","","573","","0","lightred","darkgreenblue","[""lightred"",""darkgreenblue"",""low nameability""]","left-right","[""lightred"",""darkgreenblue"",""low nameability""]","6","low nameability","54","left","trigger",""
"html-button-response","254","210657","0.0-197.0-0.0","CAN_135","135","","","","","","628","<button class=""jspsych-btn""><img src=""stimuli/lightred.png"" style=""width: 200px;height: 200px;""></button>","0","lightred","darkgreenblue","[""lightred"",""darkgreenblue"",""low nameability""]","left-right","[""lightred"",""darkgreenblue"",""low nameability""]","6","low nameability","54","left","response","1"
"html-audio-button-response","255","210856","0.0-197.0-1.0","CAN_135","135","","","","","","null","stimuli/bleep.m4a","null","lightred","darkgreenblue","[""lightred"",""darkgreenblue"",""low nameability""]","left-right","[""lightred"",""darkgreenblue"",""low nameability""]","6","low nameability","54","left","audio_feedback","1"
"html-button-response","256","211371","0.0-198.0","CAN_135","135","","","","","","null","<button class=""jspsych-btn""><img src=""stimuli/white_square.png"" style=""width: 200px;height: 200px;""></button>","null","lightred","darkgreenblue","[""lightred"",""darkgreenblue"",""low nameability""]","left-right","[""lightred"",""darkgreenblue"",""low nameability""]","6","low nameability","54","left","iti",""
"html-button-response","257","211930","0.0-199.0","CAN_135","135","","","","","","544","","0","darkgreenblue","lightred","[""darkgreenblue"",""lightred"",""low nameability""]","right-left","[""lightred"",""darkgreenblue""]","6","low nameability","55","right","trigger",""
"html-button-response","258","212411","0.0-200.0-0.0","CAN_135","135","","","","","","475","<button class=""jspsych-btn""><img src=""stimuli/darkgreenblue.png"" style=""width: 200px;height: 200px;""></button>","1","darkgreenblue","lightred","[""darkgreenblue"",""lightred"",""low nameability""]","right-left","[""lightred"",""darkgreenblue""]","6","low nameability","55","right","response","1"
"html-audio-button-response","259","212614","0.0-200.0-1.0","CAN_135","135","","","","","","null","stimuli/bleep.m4a","null","darkgreenblue","lightred","[""darkgreenblue"",""lightred"",""low nameability""]","right-left","[""lightred"",""darkgreenblue""]","6","low nameability","55","right","audio_feedback","1"
"html-button-response","260","213130","0.0-201.0","CAN_135","135","","","","","","null","<button class=""jspsych-btn""><img src=""stimuli/white_square.png"" style=""width: 200px;height: 200px;""></button>","null","darkgreenblue","lightred","[""darkgreenblue"",""lightred"",""low nameability""]","right-left","[""lightred"",""darkgreenblue""]","6","low nameability","55","right","iti",""
"html-button-response","261","213663","0.0-202.0","CAN_135","135","","","","","","515","","0","blue","red","[""blue"",""red"",""high nameability""]","right-left","[""red"",""blue""]","6","high nameability","56","right","trigger",""
"html-button-response","262","214131","0.0-203.0-0.0","CAN_135","135","","","","","","463","<button class=""jspsych-btn""><img src=""stimuli/blue.png"" style=""width: 200px;height: 200px;""></button>","1","blue","red","[""blue"",""red"",""high nameability""]","right-left","[""red"",""blue""]","6","high nameability","56","right","response","1"
"html-audio-button-response","263","214334","0.0-203.0-1.0","CAN_135","135","","","","","","null","stimuli/bleep.m4a","null","blue","red","[""blue"",""red"",""high nameability""]","right-left","[""red"",""blue""]","6","high nameability","56","right","audio_feedback","1"
"html-button-response","264","214851","0.0-204.0","CAN_135","135","","","","","","null","<button class=""jspsych-btn""><img src=""stimuli/white_square.png"" style=""width: 200px;height: 200px;""></button>","null","blue","red","[""blue"",""red"",""high nameability""]","right-left","[""red"",""blue""]","6","high nameability","56","right","iti",""
"html-button-response","265","215374","0.0-205.0","CAN_135","135","","","","","","507","","0","pink","neonyellow","[""pink"",""neonyellow"",""low nameability""]","left-right","[""pink"",""neonyellow"",""low nameability""]","6","low nameability","57","left","trigger",""
"html-button-response","266","215999","0.0-206.0-0.0","CAN_135","135","","","","","","617","<button class=""jspsych-btn""><img src=""stimuli/pink.png"" style=""width: 200px;height: 200px;""></button>","0","pink","neonyellow","[""pink"",""neonyellow"",""low nameability""]","left-right","[""pink"",""neonyellow"",""low nameability""]","6","low nameability","57","left","response","1"
"html-audio-button-response","267","216204","0.0-206.0-1.0","CAN_135","135","","","","","","null","stimuli/bleep.m4a","null","pink","neonyellow","[""pink"",""neonyellow"",""low nameability""]","left-right","[""pink"",""neonyellow"",""low nameability""]","6","low nameability","57","left","audio_feedback","1"
"html-button-response","268","216727","0.0-207.0","CAN_135","135","","","","","","null","<button class=""jspsych-btn""><img src=""stimuli/white_square.png"" style=""width: 200px;height: 200px;""></button>","null","pink","neonyellow","[""pink"",""neonyellow"",""low nameability""]","left-right","[""pink"",""neonyellow"",""low nameability""]","6","low nameability","57","left","iti",""
"html-button-response","269","217243","0.0-208.0","CAN_135","135","","","","","","501","","0","neonyellow","darkgreenblue","[""neonyellow"",""darkgreenblue"",""low nameability""]","left-right","[""neonyellow"",""darkgreenblue"",""low nameability""]","6","low nameability","58","left","trigger",""
"html-button-response","270","217868","0.0-209.0-0.0","CAN_135","135","","","","","","618","<button class=""jspsych-btn""><img src=""stimuli/neonyellow.png"" style=""width: 200px;height: 200px;""></button>","0","neonyellow","darkgreenblue","[""neonyellow"",""darkgreenblue"",""low nameability""]","left-right","[""neonyellow"",""darkgreenblue"",""low nameability""]","6","low nameability","58","left","response","1"
"html-audio-button-response","271","218070","0.0-209.0-1.0","CAN_135","135","","","","","","null","stimuli/bleep.m4a","null","neonyellow","darkgreenblue","[""neonyellow"",""darkgreenblue"",""low nameability""]","left-right","[""neonyellow"",""darkgreenblue"",""low nameability""]","6","low nameability","58","left","audio_feedback","1"
"html-button-response","272","218594","0.0-210.0","CAN_135","135","","","","","","null","<button class=""jspsych-btn""><img src=""stimuli/white_square.png"" style=""width: 200px;height: 200px;""></button>","null","neonyellow","darkgreenblue","[""neonyellow"",""darkgreenblue"",""low nameability""]","left-right","[""neonyellow"",""darkgreenblue"",""low nameability""]","6","low nameability","58","left","iti",""
"html-button-response","273","219065","0.0-211.0","CAN_135","135","","","","","","457","","0","lightred","mustard","[""lightred"",""mustard"",""low nameability""]","right-left","[""mustard"",""lightred""]","6","low nameability","59","right","trigger",""
"html-button-response","274","219672","0.0-212.0-0.0","CAN_135","135","","","","","","597","<button class=""jspsych-btn""><img src=""stimuli/lightred.png"" style=""width: 200px;height: 200px;""></button>","1","lightred","mustard","[""lightred"",""mustard"",""low nameability""]","right-left","[""mustard"",""lightred""]","6","low nameability","59","right","response","1"
"html-audio-button-response","275","219880","0.0-212.0-1.0","CAN_135","135","","","","","","null","stimuli/bleep.m4a","null","lightred","mustard","[""lightred"",""mustard"",""low nameability""]","right-left","[""mustard"",""lightred""]","6","low nameability","59","right","audio_feedback","1"
"html-button-response","276","220395","0.0-213.0","CAN_135","135","","","","","","null","<button class=""jspsych-btn""><img src=""stimuli/white_square.png"" style=""width: 200px;height: 200px;""></button>","null","lightred","mustard","[""lightred"",""mustard"",""low nameability""]","right-left","[""mustard"",""lightred""]","6","low nameability","59","right","iti",""
"html-button-response","277","220926","0.0-214.0","CAN_135","135","","","","","","516","","0","pink","darkgreenblue","[""pink"",""darkgreenblue"",""low nameability""]","right-left","[""darkgreenblue"",""pink""]","6","low nameability","60","right","trigger",""
"html-button-response","278","221546","0.0-215.0-0.0","CAN_135","135","","","","","","614","<button class=""jspsych-btn""><img src=""stimuli/pink.png"" style=""width: 200px;height: 200px;""></button>","1","pink","darkgreenblue","[""pink"",""darkgreenblue"",""low nameability""]","right-left","[""darkgreenblue"",""pink""]","6","low nameability","60","right","response","1"
"html-audio-button-response","279","221750","0.0-215.0-1.0","CAN_135","135","","","","","","null","stimuli/bleep.m4a","null","pink","darkgreenblue","[""pink"",""darkgreenblue"",""low nameability""]","right-left","[""darkgreenblue"",""pink""]","6","low nameability","60","right","audio_feedback","1"
"html-button-response","280","222271","0.0-216.0","CAN_135","135","","","","","","null","<button class=""jspsych-btn""><img src=""stimuli/white_square.png"" style=""width: 200px;height: 200px;""></button>","null","pink","darkgreenblue","[""pink"",""darkgreenblue"",""low nameability""]","right-left","[""darkgreenblue"",""pink""]","6","low nameability","60","right","iti",""
