"trial_type","trial_index","time_elapsed","internal_node_id","subject_id","seed","success","timeout","failed_images","failed_audio","failed_video","rt","stimulus","response","target","foil","choices","combination_order","choices_in_order","round","condition","trial_counter","target_location","trial_kind","correct"
"pavlovia","0","20","0.0-0.0","CAN_132","132","","","","","","","","","","","","","","","","","","",""
"preload","1","1177","0.0-1.0","CAN_132","132","true","false","[]","[]","[]","","","","","","","","","","","","","",""
"fullscreen","2","7573","0.0-2.0","CAN_132","132","true","","","","","","","","","","","","","","","","","",""
"html-button-response","3","39154","0.0-3.0","CAN_132","132","","","","","","31557","","0","","","","","","","","","","",""
"html-button-response","4","41327","0.0-4.0","CAN_132","132","","","","","","2161","","0","star","square","[""square"",""star""]","left-right","[""square"",""star""]","1","practice","1","right","trigger",""
"html-button-response","5","44890","0.0-5.0-0.0","CAN_132","132","","","","","","3544","<button class=""jspsych-btn""><img src=""stimuli/star.png"" style=""width: 200px;height: 200px;""></button>","1","star","square","[""square"",""star""]","left-right","[""square"",""star""]","1","practice","1","right","response","1"
"html-audio-button-response","6","45101","0.0-5.0-1.0","CAN_132","132","","","","","","null","stimuli/bleep.m4a","null","star","square","[""square"",""star""]","left-right","[""square"",""star""]","1","practice","1","right","audio_feedback","1"
"html-button-response","7","45631","0.0-6.0","CAN_132","132","","","","","","null","<button class=""jspsych-btn""><img src=""stimuli/white_square.png"" style=""width: 200px;height: 200px;""></button>","null","star","square","[""square"",""star""]","left-right","[""square"",""star""]","1","practice","1","right","iti",""
"html-button-response","8","47170","0.0-7.0","CAN_132","132","","","","","","1515","","0","triangle","pentagram","[""triangle"",""pentagram""]","left-right","[""triangle"",""pentagram""]","1","practice","1","left","trigger",""
"html-button-response","9","48187","0.0-8.0-0.0","CAN_132","132","","","","","","1009","<button class=""jspsych-btn""><img src=""stimuli/triangle.png"" style=""width: 200px;height: 200px;""></button>","0","triangle","pentagram","[""triangle"",""pentagram""]","left-right","[""triangle"",""pentagram""]","1","practice","1","left","response","1"
"html-audio-button-response","10","48401","0.0-8.0-1.0","CAN_132","132","","","","","","null","stimuli/bleep.m4a","null","triangle","pentagram","[""triangle"",""pentagram""]","left-right","[""triangle"",""pentagram""]","1","practice","1","left","audio_feedback","1"
"html-button-response","11","48926","0.0-9.0","CAN_132","132","","","","","","null","<button class=""jspsych-btn""><img src=""stimuli/white_square.png"" style=""width: 200px;height: 200px;""></button>","null","triangle","pentagram","[""triangle"",""pentagram""]","left-right","[""triangle"",""pentagram""]","1","practice","1","left","iti",""
"html-button-response","12","49971","0.0-10.0","CAN_132","132","","","","","","1030","","0","diamond","rectangle","[""rectangle"",""diamond""]","left-right","[""rectangle"",""diamond""]","1","practice","1","right","trigger",""
"html-button-response","13","50936","0.0-11.0-0.0","CAN_132","132","","","","","","954","<button class=""jspsych-btn""><img src=""stimuli/diamond.png"" style=""width: 200px;height: 200px;""></button>","1","diamond","rectangle","[""rectangle"",""diamond""]","left-right","[""rectangle"",""diamond""]","1","practice","1","right","response","1"
"html-audio-button-response","14","51147","0.0-11.0-1.0","CAN_132","132","","","","","","null","stimuli/bleep.m4a","null","diamond","rectangle","[""rectangle"",""diamond""]","left-right","[""rectangle"",""diamond""]","1","practice","1","right","audio_feedback","1"
"html-button-response","15","51669","0.0-12.0","CAN_132","132","","","","","","null","<button class=""jspsych-btn""><img src=""stimuli/white_square.png"" style=""width: 200px;height: 200px;""></button>","null","diamond","rectangle","[""rectangle"",""diamond""]","left-right","[""rectangle"",""diamond""]","1","practice","1","right","iti",""
"html-button-response","16","52468","0.0-13.0","CAN_132","132","","","","","","783","","0","pentagram","star","[""pentagram"",""star""]","left-right","[""pentagram"",""star""]","1","practice","1","left","trigger",""
"html-button-response","17","53392","0.0-14.0-0.0","CAN_132","132","","","","","","915","<button class=""jspsych-btn""><img src=""stimuli/pentagram.png"" style=""width: 200px;height: 200px;""></button>","0","pentagram","star","[""pentagram"",""star""]","left-right","[""pentagram"",""star""]","1","practice","1","left","response","1"
"html-audio-button-response","18","53598","0.0-14.0-1.0","CAN_132","132","","","","","","null","stimuli/bleep.m4a","null","pentagram","star","[""pentagram"",""star""]","left-right","[""pentagram"",""star""]","1","practice","1","left","audio_feedback","1"
"html-button-response","19","54121","0.0-15.0","CAN_132","132","","","","","","null","<button class=""jspsych-btn""><img src=""stimuli/white_square.png"" style=""width: 200px;height: 200px;""></button>","null","pentagram","star","[""pentagram"",""star""]","left-right","[""pentagram"",""star""]","1","practice","1","left","iti",""
"html-button-response","20","63755","0.0-16.0","CAN_132","132","","","","","","9617","","0","","","","","","","","","","",""
"html-button-response","21","64649","0.0-17.0","CAN_132","132","","","","","","883","","0","turquoise","pink","[""turquoise"",""pink"",""low nameability""]","right-left","[""pink"",""turquoise""]","1","low nameability","1","right","trigger",""
"html-button-response","22","65315","0.0-18.0-0.0","CAN_132","132","","","","","","655","<button class=""jspsych-btn""><img src=""stimuli/turquoise.png"" style=""width: 200px;height: 200px;""></button>","1","turquoise","pink","[""turquoise"",""pink"",""low nameability""]","right-left","[""pink"",""turquoise""]","1","low nameability","1","right","response","1"
"html-audio-button-response","23","65519","0.0-18.0-1.0","CAN_132","132","","","","","","null","stimuli/bleep.m4a","null","turquoise","pink","[""turquoise"",""pink"",""low nameability""]","right-left","[""pink"",""turquoise""]","1","low nameability","1","right","audio_feedback","1"
"html-button-response","24","66038","0.0-19.0","CAN_132","132","","","","","","null","<button class=""jspsych-btn""><img src=""stimuli/white_square.png"" style=""width: 200px;height: 200px;""></button>","null","turquoise","pink","[""turquoise"",""pink"",""low nameability""]","right-left","[""pink"",""turquoise""]","1","low nameability","1","right","iti",""
"html-button-response","25","66618","0.0-20.0","CAN_132","132","","","","","","565","","0","neonyellow","turquoise","[""neonyellow"",""turquoise"",""low nameability""]","right-left","[""turquoise"",""neonyellow""]","1","low nameability","2","right","trigger",""
"html-button-response","26","67221","0.0-21.0-0.0","CAN_132","132","","","","","","594","<button class=""jspsych-btn""><img src=""stimuli/neonyellow.png"" style=""width: 200px;height: 200px;""></button>","1","neonyellow","turquoise","[""neonyellow"",""turquoise"",""low nameability""]","right-left","[""turquoise"",""neonyellow""]","1","low nameability","2","right","response","1"
"html-audio-button-response","27","67431","0.0-21.0-1.0","CAN_132","132","","","","","","null","stimuli/bleep.m4a","null","neonyellow","turquoise","[""neonyellow"",""turquoise"",""low nameability""]","right-left","[""turquoise"",""neonyellow""]","1","low nameability","2","right","audio_feedback","1"
"html-button-response","28","67953","0.0-22.0","CAN_132","132","","","","","","null","<button class=""jspsych-btn""><img src=""stimuli/white_square.png"" style=""width: 200px;height: 200px;""></button>","null","neonyellow","turquoise","[""neonyellow"",""turquoise"",""low nameability""]","right-left","[""turquoise"",""neonyellow""]","1","low nameability","2","right","iti",""
"html-button-response","29","68456","0.0-23.0","CAN_132","132","","","","","","494","","0","darkgreenblue","lightred","[""darkgreenblue"",""lightred"",""low nameability""]","right-left","[""lightred"",""darkgreenblue""]","1","low nameability","3","right","trigger",""
"html-button-response","30","69063","0.0-24.0-0.0","CAN_132","132","","","","","","598","<button class=""jspsych-btn""><img src=""stimuli/darkgreenblue.png"" style=""width: 200px;height: 200px;""></button>","1","darkgreenblue","lightred","[""darkgreenblue"",""lightred"",""low nameability""]","right-left","[""lightred"",""darkgreenblue""]","1","low nameability","3","right","response","1"
"html-audio-button-response","31","69268","0.0-24.0-1.0","CAN_132","132","","","","","","null","stimuli/bleep.m4a","null","darkgreenblue","lightred","[""darkgreenblue"",""lightred"",""low nameability""]","right-left","[""lightred"",""darkgreenblue""]","1","low nameability","3","right","audio_feedback","1"
"html-button-response","32","69788","0.0-25.0","CAN_132","132","","","","","","null","<button class=""jspsych-btn""><img src=""stimuli/white_square.png"" style=""width: 200px;height: 200px;""></button>","null","darkgreenblue","lightred","[""darkgreenblue"",""lightred"",""low nameability""]","right-left","[""lightred"",""darkgreenblue""]","1","low nameability","3","right","iti",""
"html-button-response","33","70383","0.0-26.0","CAN_132","132","","","","","","573","","0","yellow","red","[""yellow"",""red"",""high nameability""]","right-left","[""red"",""yellow""]","1","high nameability","4","right","trigger",""
"html-button-response","34","70987","0.0-27.0-0.0","CAN_132","132","","","","","","594","<button class=""jspsych-btn""><img src=""stimuli/yellow.png"" style=""width: 200px;height: 200px;""></button>","1","yellow","red","[""yellow"",""red"",""high nameability""]","right-left","[""red"",""yellow""]","1","high nameability","4","right","response","1"
"html-audio-button-response","35","71189","0.0-27.0-1.0","CAN_132","132","","","","","","null","stimuli/bleep.m4a","null","yellow","red","[""yellow"",""red"",""high nameability""]","right-left","[""red"",""yellow""]","1","high nameability","4","right","audio_feedback","1"
"html-button-response","36","71713","0.0-28.0","CAN_132","132","","","","","","null","<button class=""jspsych-btn""><img src=""stimuli/white_square.png"" style=""width: 200px;height: 200px;""></button>","null","yellow","red","[""yellow"",""red"",""high nameability""]","right-left","[""red"",""yellow""]","1","high nameability","4","right","iti",""
"html-button-response","37","72257","0.0-29.0","CAN_132","132","","","","","","528","","0","pink","mustard","[""pink"",""mustard"",""low nameability""]","left-right","[""pink"",""mustard"",""low nameability""]","1","low nameability","5","left","trigger",""
"html-button-response","38","72911","0.0-30.0-0.0","CAN_132","132","","","","","","646","<button class=""jspsych-btn""><img src=""stimuli/pink.png"" style=""width: 200px;height: 200px;""></button>","0","pink","mustard","[""pink"",""mustard"",""low nameability""]","left-right","[""pink"",""mustard"",""low nameability""]","1","low nameability","5","left","response","1"
"html-audio-button-response","39","73117","0.0-30.0-1.0","CAN_132","132","","","","","","null","stimuli/bleep.m4a","null","pink","mustard","[""pink"",""mustard"",""low nameability""]","left-right","[""pink"",""mustard"",""low nameability""]","1","low nameability","5","left","audio_feedback","1"
"html-button-response","40","73635","0.0-31.0","CAN_132","132","","","","","","null","<button class=""jspsych-btn""><img src=""stimuli/white_square.png"" style=""width: 200px;height: 200px;""></button>","null","pink","mustard","[""pink"",""mustard"",""low nameability""]","left-right","[""pink"",""mustard"",""low nameability""]","1","low nameability","5","left","iti",""
"html-button-response","41","74155","0.0-32.0","CAN_132","132","","","","","","504","","0","mustard","pink","[""mustard"",""pink"",""low nameability""]","left-right","[""mustard"",""pink"",""low nameability""]","1","low nameability","6","left","trigger",""
"html-button-response","42","75003","0.0-33.0-0.0","CAN_132","132","","","","","","839","<button class=""jspsych-btn""><img src=""stimuli/mustard.png"" style=""width: 200px;height: 200px;""></button>","0","mustard","pink","[""mustard"",""pink"",""low nameability""]","left-right","[""mustard"",""pink"",""low nameability""]","1","low nameability","6","left","response","1"
"html-audio-button-response","43","75208","0.0-33.0-1.0","CAN_132","132","","","","","","null","stimuli/bleep.m4a","null","mustard","pink","[""mustard"",""pink"",""low nameability""]","left-right","[""mustard"",""pink"",""low nameability""]","1","low nameability","6","left","audio_feedback","1"
"html-button-response","44","75727","0.0-34.0","CAN_132","132","","","","","","null","<button class=""jspsych-btn""><img src=""stimuli/white_square.png"" style=""width: 200px;height: 200px;""></button>","null","mustard","pink","[""mustard"",""pink"",""low nameability""]","left-right","[""mustard"",""pink"",""low nameability""]","1","low nameability","6","left","iti",""
"html-button-response","45","76295","0.0-35.0","CAN_132","132","","","","","","554","","0","blue","brown","[""blue"",""brown"",""high nameability""]","right-left","[""brown"",""blue""]","1","high nameability","7","right","trigger",""
"html-button-response","46","76856","0.0-36.0-0.0","CAN_132","132","","","","","","551","<button class=""jspsych-btn""><img src=""stimuli/blue.png"" style=""width: 200px;height: 200px;""></button>","1","blue","brown","[""blue"",""brown"",""high nameability""]","right-left","[""brown"",""blue""]","1","high nameability","7","right","response","1"
"html-audio-button-response","47","77061","0.0-36.0-1.0","CAN_132","132","","","","","","null","stimuli/bleep.m4a","null","blue","brown","[""blue"",""brown"",""high nameability""]","right-left","[""brown"",""blue""]","1","high nameability","7","right","audio_feedback","1"
"html-button-response","48","77580","0.0-37.0","CAN_132","132","","","","","","null","<button class=""jspsych-btn""><img src=""stimuli/white_square.png"" style=""width: 200px;height: 200px;""></button>","null","blue","brown","[""blue"",""brown"",""high nameability""]","right-left","[""brown"",""blue""]","1","high nameability","7","right","iti",""
"html-button-response","49","78087","0.0-38.0","CAN_132","132","","","","","","488","","0","brown","yellow","[""brown"",""yellow"",""high nameability""]","right-left","[""yellow"",""brown""]","1","high nameability","8","right","trigger",""
"html-button-response","50","78768","0.0-39.0-0.0","CAN_132","132","","","","","","675","<button class=""jspsych-btn""><img src=""stimuli/brown.png"" style=""width: 200px;height: 200px;""></button>","1","brown","yellow","[""brown"",""yellow"",""high nameability""]","right-left","[""yellow"",""brown""]","1","high nameability","8","right","response","1"
"html-audio-button-response","51","78971","0.0-39.0-1.0","CAN_132","132","","","","","","null","stimuli/bleep.m4a","null","brown","yellow","[""brown"",""yellow"",""high nameability""]","right-left","[""yellow"",""brown""]","1","high nameability","8","right","audio_feedback","1"
"html-button-response","52","79488","0.0-40.0","CAN_132","132","","","","","","null","<button class=""jspsych-btn""><img src=""stimuli/white_square.png"" style=""width: 200px;height: 200px;""></button>","null","brown","yellow","[""brown"",""yellow"",""high nameability""]","right-left","[""yellow"",""brown""]","1","high nameability","8","right","iti",""
"html-button-response","53","80135","0.0-41.0","CAN_132","132","","","","","","629","","0","pink","neonyellow","[""pink"",""neonyellow"",""low nameability""]","left-right","[""pink"",""neonyellow"",""low nameability""]","1","low nameability","9","left","trigger",""
"html-button-response","54","80833","0.0-42.0-0.0","CAN_132","132","","","","","","689","<button class=""jspsych-btn""><img src=""stimuli/pink.png"" style=""width: 200px;height: 200px;""></button>","0","pink","neonyellow","[""pink"",""neonyellow"",""low nameability""]","left-right","[""pink"",""neonyellow"",""low nameability""]","1","low nameability","9","left","response","1"
"html-audio-button-response","55","81037","0.0-42.0-1.0","CAN_132","132","","","","","","null","stimuli/bleep.m4a","null","pink","neonyellow","[""pink"",""neonyellow"",""low nameability""]","left-right","[""pink"",""neonyellow"",""low nameability""]","1","low nameability","9","left","audio_feedback","1"
"html-button-response","56","81559","0.0-43.0","CAN_132","132","","","","","","null","<button class=""jspsych-btn""><img src=""stimuli/white_square.png"" style=""width: 200px;height: 200px;""></button>","null","pink","neonyellow","[""pink"",""neonyellow"",""low nameability""]","left-right","[""pink"",""neonyellow"",""low nameability""]","1","low nameability","9","left","iti",""
"html-button-response","57","81991","0.0-44.0","CAN_132","132","","","","","","413","","0","lightred","pink","[""lightred"",""pink"",""low nameability""]","right-left","[""pink"",""lightred""]","1","low nameability","10","right","trigger",""
"html-button-response","58","82519","0.0-45.0-0.0","CAN_132","132","","","","","","520","<button class=""jspsych-btn""><img src=""stimuli/lightred.png"" style=""width: 200px;height: 200px;""></button>","1","lightred","pink","[""lightred"",""pink"",""low nameability""]","right-left","[""pink"",""lightred""]","1","low nameability","10","right","response","1"
"html-audio-button-response","59","82720","0.0-45.0-1.0","CAN_132","132","","","","","","null","stimuli/bleep.m4a","null","lightred","pink","[""lightred"",""pink"",""low nameability""]","right-left","[""pink"",""lightred""]","1","low nameability","10","right","audio_feedback","1"
"html-button-response","60","83240","0.0-46.0","CAN_132","132","","","","","","null","<button class=""jspsych-btn""><img src=""stimuli/white_square.png"" style=""width: 200px;height: 200px;""></button>","null","lightred","pink","[""lightred"",""pink"",""low nameability""]","right-left","[""pink"",""lightred""]","1","low nameability","10","right","iti",""
"pavlovia","61","83351","0.0-47.0","CAN_132","132","","","","","","","","","","","","","","","","","","",""
"pavlovia","62","83369","0.0-48.0","CAN_132","132","","","","","","","","","","","","","","","","","","",""
"html-audio-button-response","63","84995","0.0-49.0","CAN_132","132","","","","","","1752","stimuli/tada.m4a","0","","","","","","","","","","",""
"html-button-response","64","85523","0.0-50.0","CAN_132","132","","","","","","521","","0","","","","","","","","","","",""
"html-button-response","65","86630","0.0-51.0","CAN_132","132","","","","","","1099","","0","red","blue","[""red"",""blue"",""high nameability""]","left-right","[""red"",""blue"",""high nameability""]","2","high nameability","11","left","trigger",""
"html-button-response","66","87209","0.0-52.0-0.0","CAN_132","132","","","","","","568","<button class=""jspsych-btn""><img src=""stimuli/red.png"" style=""width: 200px;height: 200px;""></button>","0","red","blue","[""red"",""blue"",""high nameability""]","left-right","[""red"",""blue"",""high nameability""]","2","high nameability","11","left","response","1"
"html-audio-button-response","67","87414","0.0-52.0-1.0","CAN_132","132","","","","","","null","stimuli/bleep.m4a","null","red","blue","[""red"",""blue"",""high nameability""]","left-right","[""red"",""blue"",""high nameability""]","2","high nameability","11","left","audio_feedback","1"
"html-button-response","68","87930","0.0-53.0","CAN_132","132","","","","","","null","<button class=""jspsych-btn""><img src=""stimuli/white_square.png"" style=""width: 200px;height: 200px;""></button>","null","red","blue","[""red"",""blue"",""high nameability""]","left-right","[""red"",""blue"",""high nameability""]","2","high nameability","11","left","iti",""
"html-button-response","69","88346","0.0-54.0","CAN_132","132","","","","","","399","","0","neonyellow","pink","[""neonyellow"",""pink"",""low nameability""]","right-left","[""pink"",""neonyellow""]","2","low nameability","12","right","trigger",""
"html-button-response","70","88882","0.0-55.0-0.0","CAN_132","132","","","","","","530","<button class=""jspsych-btn""><img src=""stimuli/neonyellow.png"" style=""width: 200px;height: 200px;""></button>","1","neonyellow","pink","[""neonyellow"",""pink"",""low nameability""]","right-left","[""pink"",""neonyellow""]","2","low nameability","12","right","response","1"
"html-audio-button-response","71","89089","0.0-55.0-1.0","CAN_132","132","","","","","","null","stimuli/bleep.m4a","null","neonyellow","pink","[""neonyellow"",""pink"",""low nameability""]","right-left","[""pink"",""neonyellow""]","2","low nameability","12","right","audio_feedback","1"
"html-button-response","72","89608","0.0-56.0","CAN_132","132","","","","","","null","<button class=""jspsych-btn""><img src=""stimuli/white_square.png"" style=""width: 200px;height: 200px;""></button>","null","neonyellow","pink","[""neonyellow"",""pink"",""low nameability""]","right-left","[""pink"",""neonyellow""]","2","low nameability","12","right","iti",""
"html-button-response","73","90027","0.0-57.0","CAN_132","132","","","","","","401","","0","mustard","neonyellow","[""mustard"",""neonyellow"",""low nameability""]","right-left","[""neonyellow"",""mustard""]","2","low nameability","13","right","trigger",""
"html-button-response","74","90652","0.0-58.0-0.0","CAN_132","132","","","","","","618","<button class=""jspsych-btn""><img src=""stimuli/mustard.png"" style=""width: 200px;height: 200px;""></button>","1","mustard","neonyellow","[""mustard"",""neonyellow"",""low nameability""]","right-left","[""neonyellow"",""mustard""]","2","low nameability","13","right","response","1"
"html-audio-button-response","75","90858","0.0-58.0-1.0","CAN_132","132","","","","","","null","stimuli/bleep.m4a","null","mustard","neonyellow","[""mustard"",""neonyellow"",""low nameability""]","right-left","[""neonyellow"",""mustard""]","2","low nameability","13","right","audio_feedback","1"
"html-button-response","76","91378","0.0-59.0","CAN_132","132","","","","","","null","<button class=""jspsych-btn""><img src=""stimuli/white_square.png"" style=""width: 200px;height: 200px;""></button>","null","mustard","neonyellow","[""mustard"",""neonyellow"",""low nameability""]","right-left","[""neonyellow"",""mustard""]","2","low nameability","13","right","iti",""
"html-button-response","77","91807","0.0-60.0","CAN_132","132","","","","","","406","","0","pink","darkgreenblue","[""pink"",""darkgreenblue"",""low nameability""]","left-right","[""pink"",""darkgreenblue"",""low nameability""]","2","low nameability","14","left","trigger",""
"html-button-response","78","92334","0.0-61.0-0.0","CAN_132","132","","","","","","521","<button class=""jspsych-btn""><img src=""stimuli/pink.png"" style=""width: 200px;height: 200px;""></button>","0","pink","darkgreenblue","[""pink"",""darkgreenblue"",""low nameability""]","left-right","[""pink"",""darkgreenblue"",""low nameability""]","2","low nameability","14","left","response","1"
"html-audio-button-response","79","92538","0.0-61.0-1.0","CAN_132","132","","","","","","null","stimuli/bleep.m4a","null","pink","darkgreenblue","[""pink"",""darkgreenblue"",""low nameability""]","left-right","[""pink"",""darkgreenblue"",""low nameability""]","2","low nameability","14","left","audio_feedback","1"
"html-button-response","80","93058","0.0-62.0","CAN_132","132","","","","","","null","<button class=""jspsych-btn""><img src=""stimuli/white_square.png"" style=""width: 200px;height: 200px;""></button>","null","pink","darkgreenblue","[""pink"",""darkgreenblue"",""low nameability""]","left-right","[""pink"",""darkgreenblue"",""low nameability""]","2","low nameability","14","left","iti",""
"html-button-response","81","93479","0.0-63.0","CAN_132","132","","","","","","403","","0","lightred","mustard","[""lightred"",""mustard"",""low nameability""]","left-right","[""lightred"",""mustard"",""low nameability""]","2","low nameability","15","left","trigger",""
"html-button-response","82","94020","0.0-64.0-0.0","CAN_132","132","","","","","","535","<button class=""jspsych-btn""><img src=""stimuli/lightred.png"" style=""width: 200px;height: 200px;""></button>","0","lightred","mustard","[""lightred"",""mustard"",""low nameability""]","left-right","[""lightred"",""mustard"",""low nameability""]","2","low nameability","15","left","response","1"
"html-audio-button-response","83","94225","0.0-64.0-1.0","CAN_132","132","","","","","","null","stimuli/bleep.m4a","null","lightred","mustard","[""lightred"",""mustard"",""low nameability""]","left-right","[""lightred"",""mustard"",""low nameability""]","2","low nameability","15","left","audio_feedback","1"
"html-button-response","84","94741","0.0-65.0","CAN_132","132","","","","","","null","<button class=""jspsych-btn""><img src=""stimuli/white_square.png"" style=""width: 200px;height: 200px;""></button>","null","lightred","mustard","[""lightred"",""mustard"",""low nameability""]","left-right","[""lightred"",""mustard"",""low nameability""]","2","low nameability","15","left","iti",""
"html-button-response","85","95188","0.0-66.0","CAN_132","132","","","","","","428","","0","brown","red","[""brown"",""red"",""high nameability""]","right-left","[""red"",""brown""]","2","high nameability","16","right","trigger",""
"html-button-response","86","95738","0.0-67.0-0.0","CAN_132","132","","","","","","543","<button class=""jspsych-btn""><img src=""stimuli/brown.png"" style=""width: 200px;height: 200px;""></button>","1","brown","red","[""brown"",""red"",""high nameability""]","right-left","[""red"",""brown""]","2","high nameability","16","right","response","1"
"html-audio-button-response","87","95942","0.0-67.0-1.0","CAN_132","132","","","","","","null","stimuli/bleep.m4a","null","brown","red","[""brown"",""red"",""high nameability""]","right-left","[""red"",""brown""]","2","high nameability","16","right","audio_feedback","1"
"html-button-response","88","96464","0.0-68.0","CAN_132","132","","","","","","null","<button class=""jspsych-btn""><img src=""stimuli/white_square.png"" style=""width: 200px;height: 200px;""></button>","null","brown","red","[""brown"",""red"",""high nameability""]","right-left","[""red"",""brown""]","2","high nameability","16","right","iti",""
"html-button-response","89","96936","0.0-69.0","CAN_132","132","","","","","","455","","0","brown","orange","[""brown"",""orange"",""high nameability""]","right-left","[""orange"",""brown""]","2","high nameability","17","right","trigger",""
"html-button-response","90","97438","0.0-70.0-0.0","CAN_132","132","","","","","","492","<button class=""jspsych-btn""><img src=""stimuli/brown.png"" style=""width: 200px;height: 200px;""></button>","1","brown","orange","[""brown"",""orange"",""high nameability""]","right-left","[""orange"",""brown""]","2","high nameability","17","right","response","1"
"html-audio-button-response","91","97641","0.0-70.0-1.0","CAN_132","132","","","","","","null","stimuli/bleep.m4a","null","brown","orange","[""brown"",""orange"",""high nameability""]","right-left","[""orange"",""brown""]","2","high nameability","17","right","audio_feedback","1"
"html-button-response","92","98154","0.0-71.0","CAN_132","132","","","","","","null","<button class=""jspsych-btn""><img src=""stimuli/white_square.png"" style=""width: 200px;height: 200px;""></button>","null","brown","orange","[""brown"",""orange"",""high nameability""]","right-left","[""orange"",""brown""]","2","high nameability","17","right","iti",""
"html-button-response","93","98571","0.0-72.0","CAN_132","132","","","","","","410","","0","brown","blue","[""brown"",""blue"",""high nameability""]","right-left","[""blue"",""brown""]","2","high nameability","18","right","trigger",""
"html-button-response","94","99103","0.0-73.0-0.0","CAN_132","132","","","","","","520","<button class=""jspsych-btn""><img src=""stimuli/brown.png"" style=""width: 200px;height: 200px;""></button>","1","brown","blue","[""brown"",""blue"",""high nameability""]","right-left","[""blue"",""brown""]","2","high nameability","18","right","response","1"
"html-audio-button-response","95","99306","0.0-73.0-1.0","CAN_132","132","","","","","","null","stimuli/bleep.m4a","null","brown","blue","[""brown"",""blue"",""high nameability""]","right-left","[""blue"",""brown""]","2","high nameability","18","right","audio_feedback","1"
"html-button-response","96","99831","0.0-74.0","CAN_132","132","","","","","","null","<button class=""jspsych-btn""><img src=""stimuli/white_square.png"" style=""width: 200px;height: 200px;""></button>","null","brown","blue","[""brown"",""blue"",""high nameability""]","right-left","[""blue"",""brown""]","2","high nameability","18","right","iti",""
"html-button-response","97","100278","0.0-75.0","CAN_132","132","","","","","","432","","0","mustard","turquoise","[""mustard"",""turquoise"",""low nameability""]","right-left","[""turquoise"",""mustard""]","2","low nameability","19","right","trigger",""
"html-button-response","98","100883","0.0-76.0-0.0","CAN_132","132","","","","","","598","<button class=""jspsych-btn""><img src=""stimuli/mustard.png"" style=""width: 200px;height: 200px;""></button>","1","mustard","turquoise","[""mustard"",""turquoise"",""low nameability""]","right-left","[""turquoise"",""mustard""]","2","low nameability","19","right","response","1"
"html-audio-button-response","99","101090","0.0-76.0-1.0","CAN_132","132","","","","","","null","stimuli/bleep.m4a","null","mustard","turquoise","[""mustard"",""turquoise"",""low nameability""]","right-left","[""turquoise"",""mustard""]","2","low nameability","19","right","audio_feedback","1"
"html-button-response","100","101606","0.0-77.0","CAN_132","132","","","","","","null","<button class=""jspsych-btn""><img src=""stimuli/white_square.png"" style=""width: 200px;height: 200px;""></button>","null","mustard","turquoise","[""mustard"",""turquoise"",""low nameability""]","right-left","[""turquoise"",""mustard""]","2","low nameability","19","right","iti",""
"html-button-response","101","102067","0.0-78.0","CAN_132","132","","","","","","444","","0","darkgreenblue","pink","[""darkgreenblue"",""pink"",""low nameability""]","right-left","[""pink"",""darkgreenblue""]","2","low nameability","20","right","trigger",""
"html-button-response","102","102637","0.0-79.0-0.0","CAN_132","132","","","","","","562","<button class=""jspsych-btn""><img src=""stimuli/darkgreenblue.png"" style=""width: 200px;height: 200px;""></button>","1","darkgreenblue","pink","[""darkgreenblue"",""pink"",""low nameability""]","right-left","[""pink"",""darkgreenblue""]","2","low nameability","20","right","response","1"
"html-audio-button-response","103","102841","0.0-79.0-1.0","CAN_132","132","","","","","","null","stimuli/bleep.m4a","null","darkgreenblue","pink","[""darkgreenblue"",""pink"",""low nameability""]","right-left","[""pink"",""darkgreenblue""]","2","low nameability","20","right","audio_feedback","1"
"html-button-response","104","103361","0.0-80.0","CAN_132","132","","","","","","null","<button class=""jspsych-btn""><img src=""stimuli/white_square.png"" style=""width: 200px;height: 200px;""></button>","null","darkgreenblue","pink","[""darkgreenblue"",""pink"",""low nameability""]","right-left","[""pink"",""darkgreenblue""]","2","low nameability","20","right","iti",""
"pavlovia","105","103419","0.0-81.0","CAN_132","132","","","","","","","","","","","","","","","","","","",""
"pavlovia","106","103427","0.0-82.0","CAN_132","132","","","","","","","","","","","","","","","","","","",""
"html-audio-button-response","107","106116","0.0-83.0","CAN_132","132","","","","","","2747","stimuli/tada.m4a","0","","","","","","","","","","",""
"html-button-response","108","106657","0.0-84.0","CAN_132","132","","","","","","535","","0","","","","","","","","","","",""
"html-button-response","109","107633","0.0-85.0","CAN_132","132","","","","","","967","","0","lightred","neonyellow","[""lightred"",""neonyellow"",""low nameability""]","left-right","[""lightred"",""neonyellow"",""low nameability""]","3","low nameability","21","left","trigger",""
"html-button-response","110","108259","0.0-86.0-0.0","CAN_132","132","","","","","","613","<button class=""jspsych-btn""><img src=""stimuli/lightred.png"" style=""width: 200px;height: 200px;""></button>","0","lightred","neonyellow","[""lightred"",""neonyellow"",""low nameability""]","left-right","[""lightred"",""neonyellow"",""low nameability""]","3","low nameability","21","left","response","1"
"html-audio-button-response","111","108464","0.0-86.0-1.0","CAN_132","132","","","","","","null","stimuli/bleep.m4a","null","lightred","neonyellow","[""lightred"",""neonyellow"",""low nameability""]","left-right","[""lightred"",""neonyellow"",""low nameability""]","3","low nameability","21","left","audio_feedback","1"
"html-button-response","112","108982","0.0-87.0","CAN_132","132","","","","","","null","<button class=""jspsych-btn""><img src=""stimuli/white_square.png"" style=""width: 200px;height: 200px;""></button>","null","lightred","neonyellow","[""lightred"",""neonyellow"",""low nameability""]","left-right","[""lightred"",""neonyellow"",""low nameability""]","3","low nameability","21","left","iti",""
"html-button-response","113","109415","0.0-88.0","CAN_132","132","","","","","","414","","0","orange","yellow","[""orange"",""yellow"",""high nameability""]","left-right","[""orange"",""yellow"",""high nameability""]","3","high nameability","22","left","trigger",""
"html-button-response","114","110026","0.0-89.0-0.0","CAN_132","132","","","","","","605","<button class=""jspsych-btn""><img src=""stimuli/orange.png"" style=""width: 200px;height: 200px;""></button>","0","orange","yellow","[""orange"",""yellow"",""high nameability""]","left-right","[""orange"",""yellow"",""high nameability""]","3","high nameability","22","left","response","1"
"html-audio-button-response","115","110230","0.0-89.0-1.0","CAN_132","132","","","","","","null","stimuli/bleep.m4a","null","orange","yellow","[""orange"",""yellow"",""high nameability""]","left-right","[""orange"",""yellow"",""high nameability""]","3","high nameability","22","left","audio_feedback","1"
"html-button-response","116","110751","0.0-90.0","CAN_132","132","","","","","","null","<button class=""jspsych-btn""><img src=""stimuli/white_square.png"" style=""width: 200px;height: 200px;""></button>","null","orange","yellow","[""orange"",""yellow"",""high nameability""]","left-right","[""orange"",""yellow"",""high nameability""]","3","high nameability","22","left","iti",""
"html-button-response","117","111304","0.0-91.0","CAN_132","132","","","","","","537","","0","purple","red","[""purple"",""red"",""high nameability""]","left-right","[""purple"",""red"",""high nameability""]","3","high nameability","23","left","trigger",""
"html-button-response","118","111906","0.0-92.0-0.0","CAN_132","132","","","","","","593","<button class=""jspsych-btn""><img src=""stimuli/purple.png"" style=""width: 200px;height: 200px;""></button>","0","purple","red","[""purple"",""red"",""high nameability""]","left-right","[""purple"",""red"",""high nameability""]","3","high nameability","23","left","response","1"
"html-audio-button-response","119","112109","0.0-92.0-1.0","CAN_132","132","","","","","","null","stimuli/bleep.m4a","null","purple","red","[""purple"",""red"",""high nameability""]","left-right","[""purple"",""red"",""high nameability""]","3","high nameability","23","left","audio_feedback","1"
"html-button-response","120","112635","0.0-93.0","CAN_132","132","","","","","","null","<button class=""jspsych-btn""><img src=""stimuli/white_square.png"" style=""width: 200px;height: 200px;""></button>","null","purple","red","[""purple"",""red"",""high nameability""]","left-right","[""purple"",""red"",""high nameability""]","3","high nameability","23","left","iti",""
"html-button-response","121","113038","0.0-94.0","CAN_132","132","","","","","","381","","0","darkgreenblue","neonyellow","[""darkgreenblue"",""neonyellow"",""low nameability""]","left-right","[""darkgreenblue"",""neonyellow"",""low nameability""]","3","low nameability","24","left","trigger",""
"html-button-response","122","113565","0.0-95.0-0.0","CAN_132","132","","","","","","518","<button class=""jspsych-btn""><img src=""stimuli/darkgreenblue.png"" style=""width: 200px;height: 200px;""></button>","0","darkgreenblue","neonyellow","[""darkgreenblue"",""neonyellow"",""low nameability""]","left-right","[""darkgreenblue"",""neonyellow"",""low nameability""]","3","low nameability","24","left","response","1"
"html-audio-button-response","123","113769","0.0-95.0-1.0","CAN_132","132","","","","","","null","stimuli/bleep.m4a","null","darkgreenblue","neonyellow","[""darkgreenblue"",""neonyellow"",""low nameability""]","left-right","[""darkgreenblue"",""neonyellow"",""low nameability""]","3","low nameability","24","left","audio_feedback","1"
"html-button-response","124","114291","0.0-96.0","CAN_132","132","","","","","","null","<button class=""jspsych-btn""><img src=""stimuli/white_square.png"" style=""width: 200px;height: 200px;""></button>","null","darkgreenblue","neonyellow","[""darkgreenblue"",""neonyellow"",""low nameability""]","left-right","[""darkgreenblue"",""neonyellow"",""low nameability""]","3","low nameability","24","left","iti",""
"html-button-response","125","114673","0.0-97.0","CAN_132","132","","","","","","364","","0","turquoise","mustard","[""turquoise"",""mustard"",""low nameability""]","left-right","[""turquoise"",""mustard"",""low nameability""]","3","low nameability","25","left","trigger",""
"html-button-response","126","115226","0.0-98.0-0.0","CAN_132","132","","","","","","531","<button class=""jspsych-btn""><img src=""stimuli/turquoise.png"" style=""width: 200px;height: 200px;""></button>","0","turquoise","mustard","[""turquoise"",""mustard"",""low nameability""]","left-right","[""turquoise"",""mustard"",""low nameability""]","3","low nameability","25","left","response","1"
"html-audio-button-response","127","115437","0.0-98.0-1.0","CAN_132","132","","","","","","null","stimuli/bleep.m4a","null","turquoise","mustard","[""turquoise"",""mustard"",""low nameability""]","left-right","[""turquoise"",""mustard"",""low nameability""]","3","low nameability","25","left","audio_feedback","1"
"html-button-response","128","115970","0.0-99.0","CAN_132","132","","","","","","null","<button class=""jspsych-btn""><img src=""stimuli/white_square.png"" style=""width: 200px;height: 200px;""></button>","null","turquoise","mustard","[""turquoise"",""mustard"",""low nameability""]","left-right","[""turquoise"",""mustard"",""low nameability""]","3","low nameability","25","left","iti",""
"html-button-response","129","116396","0.0-100.0","CAN_132","132","","","","","","398","","0","red","brown","[""red"",""brown"",""high nameability""]","left-right","[""red"",""brown"",""high nameability""]","3","high nameability","26","left","trigger",""
"html-button-response","130","116929","0.0-101.0-0.0","CAN_132","132","","","","","","521","<button class=""jspsych-btn""><img src=""stimuli/red.png"" style=""width: 200px;height: 200px;""></button>","0","red","brown","[""red"",""brown"",""high nameability""]","left-right","[""red"",""brown"",""high nameability""]","3","high nameability","26","left","response","1"
"html-audio-button-response","131","117137","0.0-101.0-1.0","CAN_132","132","","","","","","null","stimuli/bleep.m4a","null","red","brown","[""red"",""brown"",""high nameability""]","left-right","[""red"",""brown"",""high nameability""]","3","high nameability","26","left","audio_feedback","1"
"html-button-response","132","117654","0.0-102.0","CAN_132","132","","","","","","null","<button class=""jspsych-btn""><img src=""stimuli/white_square.png"" style=""width: 200px;height: 200px;""></button>","null","red","brown","[""red"",""brown"",""high nameability""]","left-right","[""red"",""brown"",""high nameability""]","3","high nameability","26","left","iti",""
"html-button-response","133","118080","0.0-103.0","CAN_132","132","","","","","","406","","0","lightred","turquoise","[""lightred"",""turquoise"",""low nameability""]","left-right","[""lightred"",""turquoise"",""low nameability""]","3","low nameability","27","left","trigger",""
"html-button-response","134","118747","0.0-104.0-0.0","CAN_132","132","","","","","","654","<button class=""jspsych-btn""><img src=""stimuli/lightred.png"" style=""width: 200px;height: 200px;""></button>","0","lightred","turquoise","[""lightred"",""turquoise"",""low nameability""]","left-right","[""lightred"",""turquoise"",""low nameability""]","3","low nameability","27","left","response","1"
"html-audio-button-response","135","118963","0.0-104.0-1.0","CAN_132","132","","","","","","null","stimuli/bleep.m4a","null","lightred","turquoise","[""lightred"",""turquoise"",""low nameability""]","left-right","[""lightred"",""turquoise"",""low nameability""]","3","low nameability","27","left","audio_feedback","1"
"html-button-response","136","119497","0.0-105.0","CAN_132","132","","","","","","null","<button class=""jspsych-btn""><img src=""stimuli/white_square.png"" style=""width: 200px;height: 200px;""></button>","null","lightred","turquoise","[""lightred"",""turquoise"",""low nameability""]","left-right","[""lightred"",""turquoise"",""low nameability""]","3","low nameability","27","left","iti",""
"html-button-response","137","119925","0.0-106.0","CAN_132","132","","","","","","398","","0","lightred","darkgreenblue","[""lightred"",""darkgreenblue"",""low nameability""]","right-left","[""darkgreenblue"",""lightred""]","3","low nameability","28","right","trigger",""
"html-button-response","138","120502","0.0-107.0-0.0","CAN_132","132","","","","","","564","<button class=""jspsych-btn""><img src=""stimuli/lightred.png"" style=""width: 200px;height: 200px;""></button>","1","lightred","darkgreenblue","[""lightred"",""darkgreenblue"",""low nameability""]","right-left","[""darkgreenblue"",""lightred""]","3","low nameability","28","right","response","1"
"html-audio-button-response","139","120718","0.0-107.0-1.0","CAN_132","132","","","","","","null","stimuli/bleep.m4a","null","lightred","darkgreenblue","[""lightred"",""darkgreenblue"",""low nameability""]","right-left","[""darkgreenblue"",""lightred""]","3","low nameability","28","right","audio_feedback","1"
"html-button-response","140","121249","0.0-108.0","CAN_132","132","","","","","","null","<button class=""jspsych-btn""><img src=""stimuli/white_square.png"" style=""width: 200px;height: 200px;""></button>","null","lightred","darkgreenblue","[""lightred"",""darkgreenblue"",""low nameability""]","right-left","[""darkgreenblue"",""lightred""]","3","low nameability","28","right","iti",""
"html-button-response","141","121680","0.0-109.0","CAN_132","132","","","","","","410","","0","blue","red","[""blue"",""red"",""high nameability""]","left-right","[""blue"",""red"",""high nameability""]","3","high nameability","29","left","trigger",""
"html-button-response","142","122259","0.0-110.0-0.0","CAN_132","132","","","","","","571","<button class=""jspsych-btn""><img src=""stimuli/blue.png"" style=""width: 200px;height: 200px;""></button>","0","blue","red","[""blue"",""red"",""high nameability""]","left-right","[""blue"",""red"",""high nameability""]","3","high nameability","29","left","response","1"
"html-audio-button-response","143","122466","0.0-110.0-1.0","CAN_132","132","","","","","","null","stimuli/bleep.m4a","null","blue","red","[""blue"",""red"",""high nameability""]","left-right","[""blue"",""red"",""high nameability""]","3","high nameability","29","left","audio_feedback","1"
"html-button-response","144","122998","0.0-111.0","CAN_132","132","","","","","","null","<button class=""jspsych-btn""><img src=""stimuli/white_square.png"" style=""width: 200px;height: 200px;""></button>","null","blue","red","[""blue"",""red"",""high nameability""]","left-right","[""blue"",""red"",""high nameability""]","3","high nameability","29","left","iti",""
"html-button-response","145","123443","0.0-112.0","CAN_132","132","","","","","","421","","0","purple","orange","[""purple"",""orange"",""high nameability""]","left-right","[""purple"",""orange"",""high nameability""]","3","high nameability","30","left","trigger",""
"html-button-response","146","123929","0.0-113.0-0.0","CAN_132","132","","","","","","479","<button class=""jspsych-btn""><img src=""stimuli/purple.png"" style=""width: 200px;height: 200px;""></button>","0","purple","orange","[""purple"",""orange"",""high nameability""]","left-right","[""purple"",""orange"",""high nameability""]","3","high nameability","30","left","response","1"
"html-audio-button-response","147","124134","0.0-113.0-1.0","CAN_132","132","","","","","","null","stimuli/bleep.m4a","null","purple","orange","[""purple"",""orange"",""high nameability""]","left-right","[""purple"",""orange"",""high nameability""]","3","high nameability","30","left","audio_feedback","1"
"html-button-response","148","124662","0.0-114.0","CAN_132","132","","","","","","null","<button class=""jspsych-btn""><img src=""stimuli/white_square.png"" style=""width: 200px;height: 200px;""></button>","null","purple","orange","[""purple"",""orange"",""high nameability""]","left-right","[""purple"",""orange"",""high nameability""]","3","high nameability","30","left","iti",""
"pavlovia","149","124770","0.0-115.0","CAN_132","132","","","","","","","","","","","","","","","","","","",""
"pavlovia","150","124784","0.0-116.0","CAN_132","132","","","","","","","","","","","","","","","","","","",""
"html-audio-button-response","151","126280","0.0-117.0","CAN_132","132","","","","","","1616","stimuli/tada.m4a","0","","","","","","","","","","",""
"html-button-response","152","126938","0.0-118.0","CAN_132","132","","","","","","648","","0","","","","","","","","","","",""
"html-button-response","153","127785","0.0-119.0","CAN_132","132","","","","","","839","","0","darkgreenblue","turquoise","[""darkgreenblue"",""turquoise"",""low nameability""]","right-left","[""turquoise"",""darkgreenblue""]","4","low nameability","31","right","trigger",""
"html-button-response","154","128364","0.0-120.0-0.0","CAN_132","132","","","","","","569","<button class=""jspsych-btn""><img src=""stimuli/darkgreenblue.png"" style=""width: 200px;height: 200px;""></button>","1","darkgreenblue","turquoise","[""darkgreenblue"",""turquoise"",""low nameability""]","right-left","[""turquoise"",""darkgreenblue""]","4","low nameability","31","right","response","1"
"html-audio-button-response","155","128569","0.0-120.0-1.0","CAN_132","132","","","","","","null","stimuli/bleep.m4a","null","darkgreenblue","turquoise","[""darkgreenblue"",""turquoise"",""low nameability""]","right-left","[""turquoise"",""darkgreenblue""]","4","low nameability","31","right","audio_feedback","1"
"html-button-response","156","129092","0.0-121.0","CAN_132","132","","","","","","null","<button class=""jspsych-btn""><img src=""stimuli/white_square.png"" style=""width: 200px;height: 200px;""></button>","null","darkgreenblue","turquoise","[""darkgreenblue"",""turquoise"",""low nameability""]","right-left","[""turquoise"",""darkgreenblue""]","4","low nameability","31","right","iti",""
"html-button-response","157","129543","0.0-122.0","CAN_132","132","","","","","","434","","0","yellow","orange","[""yellow"",""orange"",""high nameability""]","right-left","[""orange"",""yellow""]","4","high nameability","32","right","trigger",""
"html-button-response","158","130084","0.0-123.0-0.0","CAN_132","132","","","","","","533","<button class=""jspsych-btn""><img src=""stimuli/yellow.png"" style=""width: 200px;height: 200px;""></button>","1","yellow","orange","[""yellow"",""orange"",""high nameability""]","right-left","[""orange"",""yellow""]","4","high nameability","32","right","response","1"
"html-audio-button-response","159","130290","0.0-123.0-1.0","CAN_132","132","","","","","","null","stimuli/bleep.m4a","null","yellow","orange","[""yellow"",""orange"",""high nameability""]","right-left","[""orange"",""yellow""]","4","high nameability","32","right","audio_feedback","1"
"html-button-response","160","130812","0.0-124.0","CAN_132","132","","","","","","null","<button class=""jspsych-btn""><img src=""stimuli/white_square.png"" style=""width: 200px;height: 200px;""></button>","null","yellow","orange","[""yellow"",""orange"",""high nameability""]","right-left","[""orange"",""yellow""]","4","high nameability","32","right","iti",""
"html-button-response","161","131427","0.0-125.0","CAN_132","132","","","","","","588","","0","yellow","brown","[""yellow"",""brown"",""high nameability""]","right-left","[""brown"",""yellow""]","4","high nameability","33","right","trigger",""
"html-button-response","162","131913","0.0-126.0-0.0","CAN_132","132","","","","","","475","<button class=""jspsych-btn""><img src=""stimuli/yellow.png"" style=""width: 200px;height: 200px;""></button>","1","yellow","brown","[""yellow"",""brown"",""high nameability""]","right-left","[""brown"",""yellow""]","4","high nameability","33","right","response","1"
"html-audio-button-response","163","132119","0.0-126.0-1.0","CAN_132","132","","","","","","null","stimuli/bleep.m4a","null","yellow","brown","[""yellow"",""brown"",""high nameability""]","right-left","[""brown"",""yellow""]","4","high nameability","33","right","audio_feedback","1"
"html-button-response","164","132639","0.0-127.0","CAN_132","132","","","","","","null","<button class=""jspsych-btn""><img src=""stimuli/white_square.png"" style=""width: 200px;height: 200px;""></button>","null","yellow","brown","[""yellow"",""brown"",""high nameability""]","right-left","[""brown"",""yellow""]","4","high nameability","33","right","iti",""
"html-button-response","165","133077","0.0-128.0","CAN_132","132","","","","","","422","","0","purple","brown","[""purple"",""brown"",""high nameability""]","right-left","[""brown"",""purple""]","4","high nameability","34","right","trigger",""
"html-button-response","166","133752","0.0-129.0-0.0","CAN_132","132","","","","","","662","<button class=""jspsych-btn""><img src=""stimuli/purple.png"" style=""width: 200px;height: 200px;""></button>","1","purple","brown","[""purple"",""brown"",""high nameability""]","right-left","[""brown"",""purple""]","4","high nameability","34","right","response","1"
"html-audio-button-response","167","133957","0.0-129.0-1.0","CAN_132","132","","","","","","null","stimuli/bleep.m4a","null","purple","brown","[""purple"",""brown"",""high nameability""]","right-left","[""brown"",""purple""]","4","high nameability","34","right","audio_feedback","1"
"html-button-response","168","134474","0.0-130.0","CAN_132","132","","","","","","null","<button class=""jspsych-btn""><img src=""stimuli/white_square.png"" style=""width: 200px;height: 200px;""></button>","null","purple","brown","[""purple"",""brown"",""high nameability""]","right-left","[""brown"",""purple""]","4","high nameability","34","right","iti",""
"html-button-response","169","134999","0.0-131.0","CAN_132","132","","","","","","504","","0","orange","purple","[""orange"",""purple"",""high nameability""]","left-right","[""orange"",""purple"",""high nameability""]","4","high nameability","35","left","trigger",""
"html-button-response","170","135569","0.0-132.0-0.0","CAN_132","132","","","","","","564","<button class=""jspsych-btn""><img src=""stimuli/orange.png"" style=""width: 200px;height: 200px;""></button>","0","orange","purple","[""orange"",""purple"",""high nameability""]","left-right","[""orange"",""purple"",""high nameability""]","4","high nameability","35","left","response","1"
"html-audio-button-response","171","135774","0.0-132.0-1.0","CAN_132","132","","","","","","null","stimuli/bleep.m4a","null","orange","purple","[""orange"",""purple"",""high nameability""]","left-right","[""orange"",""purple"",""high nameability""]","4","high nameability","35","left","audio_feedback","1"
"html-button-response","172","136293","0.0-133.0","CAN_132","132","","","","","","null","<button class=""jspsych-btn""><img src=""stimuli/white_square.png"" style=""width: 200px;height: 200px;""></button>","null","orange","purple","[""orange"",""purple"",""high nameability""]","left-right","[""orange"",""purple"",""high nameability""]","4","high nameability","35","left","iti",""
"html-button-response","173","136746","0.0-134.0","CAN_132","132","","","","","","436","","0","neonyellow","lightred","[""neonyellow"",""lightred"",""low nameability""]","left-right","[""neonyellow"",""lightred"",""low nameability""]","4","low nameability","36","left","trigger",""
"html-button-response","174","137339","0.0-135.0-0.0","CAN_132","132","","","","","","584","<button class=""jspsych-btn""><img src=""stimuli/neonyellow.png"" style=""width: 200px;height: 200px;""></button>","0","neonyellow","lightred","[""neonyellow"",""lightred"",""low nameability""]","left-right","[""neonyellow"",""lightred"",""low nameability""]","4","low nameability","36","left","response","1"
"html-audio-button-response","175","137551","0.0-135.0-1.0","CAN_132","132","","","","","","null","stimuli/bleep.m4a","null","neonyellow","lightred","[""neonyellow"",""lightred"",""low nameability""]","left-right","[""neonyellow"",""lightred"",""low nameability""]","4","low nameability","36","left","audio_feedback","1"
"html-button-response","176","138075","0.0-136.0","CAN_132","132","","","","","","null","<button class=""jspsych-btn""><img src=""stimuli/white_square.png"" style=""width: 200px;height: 200px;""></button>","null","neonyellow","lightred","[""neonyellow"",""lightred"",""low nameability""]","left-right","[""neonyellow"",""lightred"",""low nameability""]","4","low nameability","36","left","iti",""
"html-button-response","177","138502","0.0-137.0","CAN_132","132","","","","","","413","","0","turquoise","lightred","[""turquoise"",""lightred"",""low nameability""]","right-left","[""lightred"",""turquoise""]","4","low nameability","37","right","trigger",""
"html-button-response","178","138988","0.0-138.0-0.0","CAN_132","132","","","","","","478","<button class=""jspsych-btn""><img src=""stimuli/turquoise.png"" style=""width: 200px;height: 200px;""></button>","1","turquoise","lightred","[""turquoise"",""lightred"",""low nameability""]","right-left","[""lightred"",""turquoise""]","4","low nameability","37","right","response","1"
"html-audio-button-response","179","139194","0.0-138.0-1.0","CAN_132","132","","","","","","null","stimuli/bleep.m4a","null","turquoise","lightred","[""turquoise"",""lightred"",""low nameability""]","right-left","[""lightred"",""turquoise""]","4","low nameability","37","right","audio_feedback","1"
"html-button-response","180","139718","0.0-139.0","CAN_132","132","","","","","","null","<button class=""jspsych-btn""><img src=""stimuli/white_square.png"" style=""width: 200px;height: 200px;""></button>","null","turquoise","lightred","[""turquoise"",""lightred"",""low nameability""]","right-left","[""lightred"",""turquoise""]","4","low nameability","37","right","iti",""
"html-button-response","181","140153","0.0-140.0","CAN_132","132","","","","","","417","","0","neonyellow","darkgreenblue","[""neonyellow"",""darkgreenblue"",""low nameability""]","left-right","[""neonyellow"",""darkgreenblue"",""low nameability""]","4","low nameability","38","left","trigger",""
"html-button-response","182","140671","0.0-141.0-0.0","CAN_132","132","","","","","","511","<button class=""jspsych-btn""><img src=""stimuli/neonyellow.png"" style=""width: 200px;height: 200px;""></button>","0","neonyellow","darkgreenblue","[""neonyellow"",""darkgreenblue"",""low nameability""]","left-right","[""neonyellow"",""darkgreenblue"",""low nameability""]","4","low nameability","38","left","response","1"
"html-audio-button-response","183","140874","0.0-141.0-1.0","CAN_132","132","","","","","","null","stimuli/bleep.m4a","null","neonyellow","darkgreenblue","[""neonyellow"",""darkgreenblue"",""low nameability""]","left-right","[""neonyellow"",""darkgreenblue"",""low nameability""]","4","low nameability","38","left","audio_feedback","1"
"html-button-response","184","141398","0.0-142.0","CAN_132","132","","","","","","null","<button class=""jspsych-btn""><img src=""stimuli/white_square.png"" style=""width: 200px;height: 200px;""></button>","null","neonyellow","darkgreenblue","[""neonyellow"",""darkgreenblue"",""low nameability""]","left-right","[""neonyellow"",""darkgreenblue"",""low nameability""]","4","low nameability","38","left","iti",""
"html-button-response","185","141837","0.0-143.0","CAN_132","132","","","","","","421","","0","mustard","darkgreenblue","[""mustard"",""darkgreenblue"",""low nameability""]","right-left","[""darkgreenblue"",""mustard""]","4","low nameability","39","right","trigger",""
"html-button-response","186","142286","0.0-144.0-0.0","CAN_132","132","","","","","","440","<button class=""jspsych-btn""><img src=""stimuli/mustard.png"" style=""width: 200px;height: 200px;""></button>","1","mustard","darkgreenblue","[""mustard"",""darkgreenblue"",""low nameability""]","right-left","[""darkgreenblue"",""mustard""]","4","low nameability","39","right","response","1"
"html-audio-button-response","187","142490","0.0-144.0-1.0","CAN_132","132","","","","","","null","stimuli/bleep.m4a","null","mustard","darkgreenblue","[""mustard"",""darkgreenblue"",""low nameability""]","right-left","[""darkgreenblue"",""mustard""]","4","low nameability","39","right","audio_feedback","1"
"html-button-response","188","143005","0.0-145.0","CAN_132","132","","","","","","null","<button class=""jspsych-btn""><img src=""stimuli/white_square.png"" style=""width: 200px;height: 200px;""></button>","null","mustard","darkgreenblue","[""mustard"",""darkgreenblue"",""low nameability""]","right-left","[""darkgreenblue"",""mustard""]","4","low nameability","39","right","iti",""
"html-button-response","189","143427","0.0-146.0","CAN_132","132","","","","","","402","","0","red","orange","[""red"",""orange"",""high nameability""]","left-right","[""red"",""orange"",""high nameability""]","4","high nameability","40","left","trigger",""
"html-button-response","190","144090","0.0-147.0-0.0","CAN_132","132","","","","","","654","<button class=""jspsych-btn""><img src=""stimuli/red.png"" style=""width: 200px;height: 200px;""></button>","1","red","orange","[""red"",""orange"",""high nameability""]","left-right","[""red"",""orange"",""high nameability""]","4","high nameability","40","left","response","0"
"html-audio-button-response","191","144724","0.0-147.0-1.0","CAN_132","132","","","","","","null","stimuli/boing.m4a","null","red","orange","[""red"",""orange"",""high nameability""]","left-right","[""red"",""orange"",""high nameability""]","4","high nameability","40","left","audio_feedback","0"
"html-button-response","192","146055","0.0-147.1-0.1","CAN_132","132","","","","","","1306","<button class=""jspsych-btn""><img src=""stimuli/red.png"" style=""width: 200px;height: 200px;""></button>","0","red","orange","[""red"",""orange"",""high nameability""]","left-right","[""red"",""orange"",""high nameability""]","4","high nameability","40","left","response","1"
"html-audio-button-response","193","146258","0.0-147.1-1.1","CAN_132","132","","","","","","null","stimuli/bleep.m4a","null","red","orange","[""red"",""orange"",""high nameability""]","left-right","[""red"",""orange"",""high nameability""]","4","high nameability","40","left","audio_feedback","1"
"html-button-response","194","146785","0.0-148.0","CAN_132","132","","","","","","null","<button class=""jspsych-btn""><img src=""stimuli/white_square.png"" style=""width: 200px;height: 200px;""></button>","null","red","orange","[""red"",""orange"",""high nameability""]","left-right","[""red"",""orange"",""high nameability""]","4","high nameability","40","left","iti",""
"pavlovia","195","146876","0.0-149.0","CAN_132","132","","","","","","","","","","","","","","","","","","",""
"pavlovia","196","146888","0.0-150.0","CAN_132","132","","","","","","","","","","","","","","","","","","",""
"html-audio-button-response","197","148244","0.0-151.0","CAN_132","132","","","","","","1464","stimuli/tada.m4a","0","","","","","","","","","","",""
"html-button-response","198","148849","0.0-152.0","CAN_132","132","","","","","","599","","0","","","","","","","","","","",""
"html-button-response","199","149647","0.0-153.0","CAN_132","132","","","","","","789","","0","blue","purple","[""blue"",""purple"",""high nameability""]","left-right","[""blue"",""purple"",""high nameability""]","5","high nameability","41","left","trigger",""
"html-button-response","200","150348","0.0-154.0-0.0","CAN_132","132","","","","","","692","<button class=""jspsych-btn""><img src=""stimuli/blue.png"" style=""width: 200px;height: 200px;""></button>","0","blue","purple","[""blue"",""purple"",""high nameability""]","left-right","[""blue"",""purple"",""high nameability""]","5","high nameability","41","left","response","1"
"html-audio-button-response","201","150552","0.0-154.0-1.0","CAN_132","132","","","","","","null","stimuli/bleep.m4a","null","blue","purple","[""blue"",""purple"",""high nameability""]","left-right","[""blue"",""purple"",""high nameability""]","5","high nameability","41","left","audio_feedback","1"
"html-button-response","202","151066","0.0-155.0","CAN_132","132","","","","","","null","<button class=""jspsych-btn""><img src=""stimuli/white_square.png"" style=""width: 200px;height: 200px;""></button>","null","blue","purple","[""blue"",""purple"",""high nameability""]","left-right","[""blue"",""purple"",""high nameability""]","5","high nameability","41","left","iti",""
"html-button-response","203","151491","0.0-156.0","CAN_132","132","","","","","","406","","0","turquoise","darkgreenblue","[""turquoise"",""darkgreenblue"",""low nameability""]","left-right","[""turquoise"",""darkgreenblue"",""low nameability""]","5","low nameability","42","left","trigger",""
"html-button-response","204","152029","0.0-157.0-0.0","CAN_132","132","","","","","","530","<button class=""jspsych-btn""><img src=""stimuli/turquoise.png"" style=""width: 200px;height: 200px;""></button>","0","turquoise","darkgreenblue","[""turquoise"",""darkgreenblue"",""low nameability""]","left-right","[""turquoise"",""darkgreenblue"",""low nameability""]","5","low nameability","42","left","response","1"
"html-audio-button-response","205","152230","0.0-157.0-1.0","CAN_132","132","","","","","","null","stimuli/bleep.m4a","null","turquoise","darkgreenblue","[""turquoise"",""darkgreenblue"",""low nameability""]","left-right","[""turquoise"",""darkgreenblue"",""low nameability""]","5","low nameability","42","left","audio_feedback","1"
"html-button-response","206","152754","0.0-158.0","CAN_132","132","","","","","","null","<button class=""jspsych-btn""><img src=""stimuli/white_square.png"" style=""width: 200px;height: 200px;""></button>","null","turquoise","darkgreenblue","[""turquoise"",""darkgreenblue"",""low nameability""]","left-right","[""turquoise"",""darkgreenblue"",""low nameability""]","5","low nameability","42","left","iti",""
"html-button-response","207","153063","0.0-159.0","CAN_132","132","","","","","","292","","0","pink","lightred","[""pink"",""lightred"",""low nameability""]","left-right","[""pink"",""lightred"",""low nameability""]","5","low nameability","43","left","trigger",""
"html-button-response","208","153644","0.0-160.0-0.0","CAN_132","132","","","","","","573","<button class=""jspsych-btn""><img src=""stimuli/pink.png"" style=""width: 200px;height: 200px;""></button>","0","pink","lightred","[""pink"",""lightred"",""low nameability""]","left-right","[""pink"",""lightred"",""low nameability""]","5","low nameability","43","left","response","1"
"html-audio-button-response","209","153849","0.0-160.0-1.0","CAN_132","132","","","","","","null","stimuli/bleep.m4a","null","pink","lightred","[""pink"",""lightred"",""low nameability""]","left-right","[""pink"",""lightred"",""low nameability""]","5","low nameability","43","left","audio_feedback","1"
"html-button-response","210","154368","0.0-161.0","CAN_132","132","","","","","","null","<button class=""jspsych-btn""><img src=""stimuli/white_square.png"" style=""width: 200px;height: 200px;""></button>","null","pink","lightred","[""pink"",""lightred"",""low nameability""]","left-right","[""pink"",""lightred"",""low nameability""]","5","low nameability","43","left","iti",""
"html-button-response","211","154825","0.0-162.0","CAN_132","132","","","","","","437","","0","orange","red","[""orange"",""red"",""high nameability""]","right-left","[""red"",""orange""]","5","high nameability","44","right","trigger",""
"html-button-response","212","155363","0.0-163.0-0.0","CAN_132","132","","","","","","528","<button class=""jspsych-btn""><img src=""stimuli/orange.png"" style=""width: 200px;height: 200px;""></button>","1","orange","red","[""orange"",""red"",""high nameability""]","right-left","[""red"",""orange""]","5","high nameability","44","right","response","1"
"html-audio-button-response","213","155571","0.0-163.0-1.0","CAN_132","132","","","","","","null","stimuli/bleep.m4a","null","orange","red","[""orange"",""red"",""high nameability""]","right-left","[""red"",""orange""]","5","high nameability","44","right","audio_feedback","1"
"html-button-response","214","156086","0.0-164.0","CAN_132","132","","","","","","null","<button class=""jspsych-btn""><img src=""stimuli/white_square.png"" style=""width: 200px;height: 200px;""></button>","null","orange","red","[""orange"",""red"",""high nameability""]","right-left","[""red"",""orange""]","5","high nameability","44","right","iti",""
"html-button-response","215","156565","0.0-165.0","CAN_132","132","","","","","","457","","0","blue","yellow","[""blue"",""yellow"",""high nameability""]","left-right","[""blue"",""yellow"",""high nameability""]","5","high nameability","45","left","trigger",""
"html-button-response","216","157097","0.0-166.0-0.0","CAN_132","132","","","","","","523","<button class=""jspsych-btn""><img src=""stimuli/blue.png"" style=""width: 200px;height: 200px;""></button>","0","blue","yellow","[""blue"",""yellow"",""high nameability""]","left-right","[""blue"",""yellow"",""high nameability""]","5","high nameability","45","left","response","1"
"html-audio-button-response","217","157297","0.0-166.0-1.0","CAN_132","132","","","","","","null","stimuli/bleep.m4a","null","blue","yellow","[""blue"",""yellow"",""high nameability""]","left-right","[""blue"",""yellow"",""high nameability""]","5","high nameability","45","left","audio_feedback","1"
"html-button-response","218","157821","0.0-167.0","CAN_132","132","","","","","","null","<button class=""jspsych-btn""><img src=""stimuli/white_square.png"" style=""width: 200px;height: 200px;""></button>","null","blue","yellow","[""blue"",""yellow"",""high nameability""]","left-right","[""blue"",""yellow"",""high nameability""]","5","high nameability","45","left","iti",""
"html-button-response","219","158254","0.0-168.0","CAN_132","132","","","","","","417","","0","brown","purple","[""brown"",""purple"",""high nameability""]","right-left","[""purple"",""brown""]","5","high nameability","46","right","trigger",""
"html-button-response","220","158795","0.0-169.0-0.0","CAN_132","132","","","","","","533","<button class=""jspsych-btn""><img src=""stimuli/brown.png"" style=""width: 200px;height: 200px;""></button>","1","brown","purple","[""brown"",""purple"",""high nameability""]","right-left","[""purple"",""brown""]","5","high nameability","46","right","response","1"
"html-audio-button-response","221","159003","0.0-169.0-1.0","CAN_132","132","","","","","","null","stimuli/bleep.m4a","null","brown","purple","[""brown"",""purple"",""high nameability""]","right-left","[""purple"",""brown""]","5","high nameability","46","right","audio_feedback","1"
"html-button-response","222","159519","0.0-170.0","CAN_132","132","","","","","","null","<button class=""jspsych-btn""><img src=""stimuli/white_square.png"" style=""width: 200px;height: 200px;""></button>","null","brown","purple","[""brown"",""purple"",""high nameability""]","right-left","[""purple"",""brown""]","5","high nameability","46","right","iti",""
"html-button-response","223","159948","0.0-171.0","CAN_132","132","","","","","","401","","0","red","yellow","[""red"",""yellow"",""high nameability""]","left-right","[""red"",""yellow"",""high nameability""]","5","high nameability","47","left","trigger",""
"html-button-response","224","160518","0.0-172.0-0.0","CAN_132","132","","","","","","560","<button class=""jspsych-btn""><img src=""stimuli/red.png"" style=""width: 200px;height: 200px;""></button>","0","red","yellow","[""red"",""yellow"",""high nameability""]","left-right","[""red"",""yellow"",""high nameability""]","5","high nameability","47","left","response","1"
"html-audio-button-response","225","160723","0.0-172.0-1.0","CAN_132","132","","","","","","null","stimuli/bleep.m4a","null","red","yellow","[""red"",""yellow"",""high nameability""]","left-right","[""red"",""yellow"",""high nameability""]","5","high nameability","47","left","audio_feedback","1"
"html-button-response","226","161240","0.0-173.0","CAN_132","132","","","","","","null","<button class=""jspsych-btn""><img src=""stimuli/white_square.png"" style=""width: 200px;height: 200px;""></button>","null","red","yellow","[""red"",""yellow"",""high nameability""]","left-right","[""red"",""yellow"",""high nameability""]","5","high nameability","47","left","iti",""
"html-button-response","227","161706","0.0-174.0","CAN_132","132","","","","","","449","","0","neonyellow","mustard","[""neonyellow"",""mustard"",""low nameability""]","left-right","[""neonyellow"",""mustard"",""low nameability""]","5","low nameability","48","left","trigger",""
"html-button-response","228","162321","0.0-175.0-0.0","CAN_132","132","","","","","","606","<button class=""jspsych-btn""><img src=""stimuli/neonyellow.png"" style=""width: 200px;height: 200px;""></button>","0","neonyellow","mustard","[""neonyellow"",""mustard"",""low nameability""]","left-right","[""neonyellow"",""mustard"",""low nameability""]","5","low nameability","48","left","response","1"
"html-audio-button-response","229","162525","0.0-175.0-1.0","CAN_132","132","","","","","","null","stimuli/bleep.m4a","null","neonyellow","mustard","[""neonyellow"",""mustard"",""low nameability""]","left-right","[""neonyellow"",""mustard"",""low nameability""]","5","low nameability","48","left","audio_feedback","1"
"html-button-response","230","163047","0.0-176.0","CAN_132","132","","","","","","null","<button class=""jspsych-btn""><img src=""stimuli/white_square.png"" style=""width: 200px;height: 200px;""></button>","null","neonyellow","mustard","[""neonyellow"",""mustard"",""low nameability""]","left-right","[""neonyellow"",""mustard"",""low nameability""]","5","low nameability","48","left","iti",""
"html-button-response","231","163449","0.0-177.0","CAN_132","132","","","","","","386","","0","pink","turquoise","[""pink"",""turquoise"",""low nameability""]","right-left","[""turquoise"",""pink""]","5","low nameability","49","right","trigger",""
"html-button-response","232","164019","0.0-178.0-0.0","CAN_132","132","","","","","","563","<button class=""jspsych-btn""><img src=""stimuli/pink.png"" style=""width: 200px;height: 200px;""></button>","1","pink","turquoise","[""pink"",""turquoise"",""low nameability""]","right-left","[""turquoise"",""pink""]","5","low nameability","49","right","response","1"
"html-audio-button-response","233","164223","0.0-178.0-1.0","CAN_132","132","","","","","","null","stimuli/bleep.m4a","null","pink","turquoise","[""pink"",""turquoise"",""low nameability""]","right-left","[""turquoise"",""pink""]","5","low nameability","49","right","audio_feedback","1"
"html-button-response","234","164743","0.0-179.0","CAN_132","132","","","","","","null","<button class=""jspsych-btn""><img src=""stimuli/white_square.png"" style=""width: 200px;height: 200px;""></button>","null","pink","turquoise","[""pink"",""turquoise"",""low nameability""]","right-left","[""turquoise"",""pink""]","5","low nameability","49","right","iti",""
"html-button-response","235","165445","0.0-180.0","CAN_132","132","","","","","","687","","0","red","purple","[""red"",""purple"",""high nameability""]","right-left","[""purple"",""red""]","5","high nameability","50","right","trigger",""
"html-button-response","236","166063","0.0-181.0-0.0","CAN_132","132","","","","","","609","<button class=""jspsych-btn""><img src=""stimuli/red.png"" style=""width: 200px;height: 200px;""></button>","1","red","purple","[""red"",""purple"",""high nameability""]","right-left","[""purple"",""red""]","5","high nameability","50","right","response","1"
"html-audio-button-response","237","166270","0.0-181.0-1.0","CAN_132","132","","","","","","null","stimuli/bleep.m4a","null","red","purple","[""red"",""purple"",""high nameability""]","right-left","[""purple"",""red""]","5","high nameability","50","right","audio_feedback","1"
"html-button-response","238","166791","0.0-182.0","CAN_132","132","","","","","","null","<button class=""jspsych-btn""><img src=""stimuli/white_square.png"" style=""width: 200px;height: 200px;""></button>","null","red","purple","[""red"",""purple"",""high nameability""]","right-left","[""purple"",""red""]","5","high nameability","50","right","iti",""
"pavlovia","239","166861","0.0-183.0","CAN_132","132","","","","","","","","","","","","","","","","","","",""
"pavlovia","240","166870","0.0-184.0","CAN_132","132","","","","","","","","","","","","","","","","","","",""
"html-audio-button-response","241","168989","0.0-185.0","CAN_132","132","","","","","","2200","stimuli/tada.m4a","0","","","","","","","","","","",""
"html-button-response","242","169738","0.0-186.0","CAN_132","132","","","","","","739","","0","","","","","","","","","","",""
"html-button-response","243","170569","0.0-187.0","CAN_132","132","","","","","","819","","0","turquoise","neonyellow","[""turquoise"",""neonyellow"",""low nameability""]","right-left","[""neonyellow"",""turquoise""]","6","low nameability","51","right","trigger",""
"html-button-response","244","171064","0.0-188.0-0.0","CAN_132","132","","","","","","487","<button class=""jspsych-btn""><img src=""stimuli/turquoise.png"" style=""width: 200px;height: 200px;""></button>","1","turquoise","neonyellow","[""turquoise"",""neonyellow"",""low nameability""]","right-left","[""neonyellow"",""turquoise""]","6","low nameability","51","right","response","1"
"html-audio-button-response","245","171269","0.0-188.0-1.0","CAN_132","132","","","","","","null","stimuli/bleep.m4a","null","turquoise","neonyellow","[""turquoise"",""neonyellow"",""low nameability""]","right-left","[""neonyellow"",""turquoise""]","6","low nameability","51","right","audio_feedback","1"
"html-button-response","246","171791","0.0-189.0","CAN_132","132","","","","","","null","<button class=""jspsych-btn""><img src=""stimuli/white_square.png"" style=""width: 200px;height: 200px;""></button>","null","turquoise","neonyellow","[""turquoise"",""neonyellow"",""low nameability""]","right-left","[""neonyellow"",""turquoise""]","6","low nameability","51","right","iti",""
"html-button-response","247","172232","0.0-190.0","CAN_132","132","","","","","","414","","0","purple","yellow","[""purple"",""yellow"",""high nameability""]","left-right","[""purple"",""yellow"",""high nameability""]","6","high nameability","52","left","trigger",""
"html-button-response","248","172858","0.0-191.0-0.0","CAN_132","132","","","","","","618","<button class=""jspsych-btn""><img src=""stimuli/purple.png"" style=""width: 200px;height: 200px;""></button>","0","purple","yellow","[""purple"",""yellow"",""high nameability""]","left-right","[""purple"",""yellow"",""high nameability""]","6","high nameability","52","left","response","1"
"html-audio-button-response","249","173070","0.0-191.0-1.0","CAN_132","132","","","","","","null","stimuli/bleep.m4a","null","purple","yellow","[""purple"",""yellow"",""high nameability""]","left-right","[""purple"",""yellow"",""high nameability""]","6","high nameability","52","left","audio_feedback","1"
"html-button-response","250","173587","0.0-192.0","CAN_132","132","","","","","","null","<button class=""jspsych-btn""><img src=""stimuli/white_square.png"" style=""width: 200px;height: 200px;""></button>","null","purple","yellow","[""purple"",""yellow"",""high nameability""]","left-right","[""purple"",""yellow"",""high nameability""]","6","high nameability","52","left","iti",""
"html-button-response","251","173995","0.0-193.0","CAN_132","132","","","","","","393","","0","mustard","lightred","[""mustard"",""lightred"",""low nameability""]","right-left","[""lightred"",""mustard""]","6","low nameability","53","right","trigger",""
"html-button-response","252","174477","0.0-194.0-0.0","CAN_132","132","","","","","","471","<button class=""jspsych-btn""><img src=""stimuli/mustard.png"" style=""width: 200px;height: 200px;""></button>","1","mustard","lightred","[""mustard"",""lightred"",""low nameability""]","right-left","[""lightred"",""mustard""]","6","low nameability","53","right","response","1"
"html-audio-button-response","253","174694","0.0-194.0-1.0","CAN_132","132","","","","","","null","stimuli/bleep.m4a","null","mustard","lightred","[""mustard"",""lightred"",""low nameability""]","right-left","[""lightred"",""mustard""]","6","low nameability","53","right","audio_feedback","1"
"html-button-response","254","175230","0.0-195.0","CAN_132","132","","","","","","null","<button class=""jspsych-btn""><img src=""stimuli/white_square.png"" style=""width: 200px;height: 200px;""></button>","null","mustard","lightred","[""mustard"",""lightred"",""low nameability""]","right-left","[""lightred"",""mustard""]","6","low nameability","53","right","iti",""
"html-button-response","255","175650","0.0-196.0","CAN_132","132","","","","","","393","","0","purple","blue","[""purple"",""blue"",""high nameability""]","right-left","[""blue"",""purple""]","6","high nameability","54","right","trigger",""
"html-button-response","256","176146","0.0-197.0-0.0","CAN_132","132","","","","","","484","<button class=""jspsych-btn""><img src=""stimuli/purple.png"" style=""width: 200px;height: 200px;""></button>","1","purple","blue","[""purple"",""blue"",""high nameability""]","right-left","[""blue"",""purple""]","6","high nameability","54","right","response","1"
"html-audio-button-response","257","176366","0.0-197.0-1.0","CAN_132","132","","","","","","null","stimuli/bleep.m4a","null","purple","blue","[""purple"",""blue"",""high nameability""]","right-left","[""blue"",""purple""]","6","high nameability","54","right","audio_feedback","1"
"html-button-response","258","176889","0.0-198.0","CAN_132","132","","","","","","null","<button class=""jspsych-btn""><img src=""stimuli/white_square.png"" style=""width: 200px;height: 200px;""></button>","null","purple","blue","[""purple"",""blue"",""high nameability""]","right-left","[""blue"",""purple""]","6","high nameability","54","right","iti",""
"html-button-response","259","177314","0.0-199.0","CAN_132","132","","","","","","403","","0","yellow","blue","[""yellow"",""blue"",""high nameability""]","right-left","[""blue"",""yellow""]","6","high nameability","55","right","trigger",""
"html-button-response","260","177743","0.0-200.0-0.0","CAN_132","132","","","","","","421","<button class=""jspsych-btn""><img src=""stimuli/yellow.png"" style=""width: 200px;height: 200px;""></button>","1","yellow","blue","[""yellow"",""blue"",""high nameability""]","right-left","[""blue"",""yellow""]","6","high nameability","55","right","response","1"
"html-audio-button-response","261","177950","0.0-200.0-1.0","CAN_132","132","","","","","","null","stimuli/bleep.m4a","null","yellow","blue","[""yellow"",""blue"",""high nameability""]","right-left","[""blue"",""yellow""]","6","high nameability","55","right","audio_feedback","1"
"html-button-response","262","178480","0.0-201.0","CAN_132","132","","","","","","null","<button class=""jspsych-btn""><img src=""stimuli/white_square.png"" style=""width: 200px;height: 200px;""></button>","null","yellow","blue","[""yellow"",""blue"",""high nameability""]","right-left","[""blue"",""yellow""]","6","high nameability","55","right","iti",""
"html-button-response","263","178963","0.0-202.0","CAN_132","132","","","","","","454","","0","yellow","purple","[""yellow"",""purple"",""high nameability""]","left-right","[""yellow"",""purple"",""high nameability""]","6","high nameability","56","left","trigger",""
"html-button-response","264","179576","0.0-203.0-0.0","CAN_132","132","","","","","","594","<button class=""jspsych-btn""><img src=""stimuli/yellow.png"" style=""width: 200px;height: 200px;""></button>","0","yellow","purple","[""yellow"",""purple"",""high nameability""]","left-right","[""yellow"",""purple"",""high nameability""]","6","high nameability","56","left","response","1"
"html-audio-button-response","265","179799","0.0-203.0-1.0","CAN_132","132","","","","","","null","stimuli/bleep.m4a","null","yellow","purple","[""yellow"",""purple"",""high nameability""]","left-right","[""yellow"",""purple"",""high nameability""]","6","high nameability","56","left","audio_feedback","1"
"html-button-response","266","180328","0.0-204.0","CAN_132","132","","","","","","null","<button class=""jspsych-btn""><img src=""stimuli/white_square.png"" style=""width: 200px;height: 200px;""></button>","null","yellow","purple","[""yellow"",""purple"",""high nameability""]","left-right","[""yellow"",""purple"",""high nameability""]","6","high nameability","56","left","iti",""
"html-button-response","267","180780","0.0-205.0","CAN_132","132","","","","","","427","","0","darkgreenblue","mustard","[""darkgreenblue"",""mustard"",""low nameability""]","left-right","[""darkgreenblue"",""mustard"",""low nameability""]","6","low nameability","57","left","trigger",""
"html-button-response","268","181367","0.0-206.0-0.0","CAN_132","132","","","","","","570","<button class=""jspsych-btn""><img src=""stimuli/darkgreenblue.png"" style=""width: 200px;height: 200px;""></button>","0","darkgreenblue","mustard","[""darkgreenblue"",""mustard"",""low nameability""]","left-right","[""darkgreenblue"",""mustard"",""low nameability""]","6","low nameability","57","left","response","1"
"html-audio-button-response","269","181577","0.0-206.0-1.0","CAN_132","132","","","","","","null","stimuli/bleep.m4a","null","darkgreenblue","mustard","[""darkgreenblue"",""mustard"",""low nameability""]","left-right","[""darkgreenblue"",""mustard"",""low nameability""]","6","low nameability","57","left","audio_feedback","1"
"html-button-response","270","182105","0.0-207.0","CAN_132","132","","","","","","null","<button class=""jspsych-btn""><img src=""stimuli/white_square.png"" style=""width: 200px;height: 200px;""></button>","null","darkgreenblue","mustard","[""darkgreenblue"",""mustard"",""low nameability""]","left-right","[""darkgreenblue"",""mustard"",""low nameability""]","6","low nameability","57","left","iti",""
"html-button-response","271","182512","0.0-208.0","CAN_132","132","","","","","","395","","0","orange","brown","[""orange"",""brown"",""high nameability""]","left-right","[""orange"",""brown"",""high nameability""]","6","high nameability","58","left","trigger",""
"html-button-response","272","183029","0.0-209.0-0.0","CAN_132","132","","","","","","511","<button class=""jspsych-btn""><img src=""stimuli/orange.png"" style=""width: 200px;height: 200px;""></button>","0","orange","brown","[""orange"",""brown"",""high nameability""]","left-right","[""orange"",""brown"",""high nameability""]","6","high nameability","58","left","response","1"
"html-audio-button-response","273","183239","0.0-209.0-1.0","CAN_132","132","","","","","","null","stimuli/bleep.m4a","null","orange","brown","[""orange"",""brown"",""high nameability""]","left-right","[""orange"",""brown"",""high nameability""]","6","high nameability","58","left","audio_feedback","1"
"html-button-response","274","183772","0.0-210.0","CAN_132","132","","","","","","null","<button class=""jspsych-btn""><img src=""stimuli/white_square.png"" style=""width: 200px;height: 200px;""></button>","null","orange","brown","[""orange"",""brown"",""high nameability""]","left-right","[""orange"",""brown"",""high nameability""]","6","high nameability","58","left","iti",""
"html-button-response","275","184207","0.0-211.0","CAN_132","132","","","","","","414","","0","orange","blue","[""orange"",""blue"",""high nameability""]","right-left","[""blue"",""orange""]","6","high nameability","59","right","trigger",""
"html-button-response","276","184723","0.0-212.0-0.0","CAN_132","132","","","","","","505","<button class=""jspsych-btn""><img src=""stimuli/orange.png"" style=""width: 200px;height: 200px;""></button>","1","orange","blue","[""orange"",""blue"",""high nameability""]","right-left","[""blue"",""orange""]","6","high nameability","59","right","response","1"
"html-audio-button-response","277","184929","0.0-212.0-1.0","CAN_132","132","","","","","","null","stimuli/bleep.m4a","null","orange","blue","[""orange"",""blue"",""high nameability""]","right-left","[""blue"",""orange""]","6","high nameability","59","right","audio_feedback","1"
"html-button-response","278","185455","0.0-213.0","CAN_132","132","","","","","","null","<button class=""jspsych-btn""><img src=""stimuli/white_square.png"" style=""width: 200px;height: 200px;""></button>","null","orange","blue","[""orange"",""blue"",""high nameability""]","right-left","[""blue"",""orange""]","6","high nameability","59","right","iti",""
"html-button-response","279","185880","0.0-214.0","CAN_132","132","","","","","","397","","0","blue","orange","[""blue"",""orange"",""high nameability""]","left-right","[""blue"",""orange"",""high nameability""]","6","high nameability","60","left","trigger",""
"html-button-response","280","186470","0.0-215.0-0.0","CAN_132","132","","","","","","582","<button class=""jspsych-btn""><img src=""stimuli/blue.png"" style=""width: 200px;height: 200px;""></button>","0","blue","orange","[""blue"",""orange"",""high nameability""]","left-right","[""blue"",""orange"",""high nameability""]","6","high nameability","60","left","response","1"
"html-audio-button-response","281","186677","0.0-215.0-1.0","CAN_132","132","","","","","","null","stimuli/bleep.m4a","null","blue","orange","[""blue"",""orange"",""high nameability""]","left-right","[""blue"",""orange"",""high nameability""]","6","high nameability","60","left","audio_feedback","1"
"html-button-response","282","187203","0.0-216.0","CAN_132","132","","","","","","null","<button class=""jspsych-btn""><img src=""stimuli/white_square.png"" style=""width: 200px;height: 200px;""></button>","null","blue","orange","[""blue"",""orange"",""high nameability""]","left-right","[""blue"",""orange"",""high nameability""]","6","high nameability","60","left","iti",""
