"trial_type","trial_index","time_elapsed","internal_node_id","subject_id","seed","success","timeout","failed_images","failed_audio","failed_video","rt","stimulus","response","target","foil","choices","combination_order","choices_in_order","round","condition","trial_counter","target_location","trial_kind","correct"
"pavlovia","0","28","0.0-0.0","CAN_149","149","","","","","","","","","","","","","","","","","","",""
"preload","1","630","0.0-1.0","CAN_149","149","true","false","[]","[]","[]","","","","","","","","","","","","","",""
"fullscreen","2","3701","0.0-2.0","CAN_149","149","true","","","","","","","","","","","","","","","","","",""
"html-button-response","3","68982","0.0-3.0","CAN_149","149","","","","","","65260","","0","","","","","","","","","","",""
"html-button-response","4","74966","0.0-4.0","CAN_149","149","","","","","","5967","","0","star","square","[""square"",""star""]","left-right","[""square"",""star""]","1","practice","1","right","trigger",""
"html-button-response","5","77099","0.0-5.0-0.0","CAN_149","149","","","","","","2104","<button class=""jspsych-btn""><img src=""stimuli/star.png"" style=""width: 200px;height: 200px;""></button>","1","star","square","[""square"",""star""]","left-right","[""square"",""star""]","1","practice","1","right","response","1"
"html-audio-button-response","6","77317","0.0-5.0-1.0","CAN_149","149","","","","","","null","stimuli/bleep.m4a","null","star","square","[""square"",""star""]","left-right","[""square"",""star""]","1","practice","1","right","audio_feedback","1"
"html-button-response","7","77847","0.0-6.0","CAN_149","149","","","","","","null","<button class=""jspsych-btn""><img src=""stimuli/white_square.png"" style=""width: 200px;height: 200px;""></button>","null","star","square","[""square"",""star""]","left-right","[""square"",""star""]","1","practice","1","right","iti",""
"html-button-response","8","79044","0.0-7.0","CAN_149","149","","","","","","1165","","0","triangle","pentagram","[""triangle"",""pentagram""]","left-right","[""triangle"",""pentagram""]","1","practice","1","left","trigger",""
"html-button-response","9","80003","0.0-8.0-0.0","CAN_149","149","","","","","","949","<button class=""jspsych-btn""><img src=""stimuli/triangle.png"" style=""width: 200px;height: 200px;""></button>","0","triangle","pentagram","[""triangle"",""pentagram""]","left-right","[""triangle"",""pentagram""]","1","practice","1","left","response","1"
"html-audio-button-response","10","80210","0.0-8.0-1.0","CAN_149","149","","","","","","null","stimuli/bleep.m4a","null","triangle","pentagram","[""triangle"",""pentagram""]","left-right","[""triangle"",""pentagram""]","1","practice","1","left","audio_feedback","1"
"html-button-response","11","80735","0.0-9.0","CAN_149","149","","","","","","null","<button class=""jspsych-btn""><img src=""stimuli/white_square.png"" style=""width: 200px;height: 200px;""></button>","null","triangle","pentagram","[""triangle"",""pentagram""]","left-right","[""triangle"",""pentagram""]","1","practice","1","left","iti",""
"html-button-response","12","81540","0.0-10.0","CAN_149","149","","","","","","785","","0","diamond","rectangle","[""rectangle"",""diamond""]","left-right","[""rectangle"",""diamond""]","1","practice","1","right","trigger",""
"html-button-response","13","82324","0.0-11.0-0.0","CAN_149","149","","","","","","772","<button class=""jspsych-btn""><img src=""stimuli/diamond.png"" style=""width: 200px;height: 200px;""></button>","1","diamond","rectangle","[""rectangle"",""diamond""]","left-right","[""rectangle"",""diamond""]","1","practice","1","right","response","1"
"html-audio-button-response","14","82533","0.0-11.0-1.0","CAN_149","149","","","","","","null","stimuli/bleep.m4a","null","diamond","rectangle","[""rectangle"",""diamond""]","left-right","[""rectangle"",""diamond""]","1","practice","1","right","audio_feedback","1"
"html-button-response","15","83056","0.0-12.0","CAN_149","149","","","","","","null","<button class=""jspsych-btn""><img src=""stimuli/white_square.png"" style=""width: 200px;height: 200px;""></button>","null","diamond","rectangle","[""rectangle"",""diamond""]","left-right","[""rectangle"",""diamond""]","1","practice","1","right","iti",""
"html-button-response","16","83634","0.0-13.0","CAN_149","149","","","","","","557","","0","pentagram","star","[""pentagram"",""star""]","left-right","[""pentagram"",""star""]","1","practice","1","left","trigger",""
"html-button-response","17","84525","0.0-14.0-0.0","CAN_149","149","","","","","","880","<button class=""jspsych-btn""><img src=""stimuli/pentagram.png"" style=""width: 200px;height: 200px;""></button>","0","pentagram","star","[""pentagram"",""star""]","left-right","[""pentagram"",""star""]","1","practice","1","left","response","1"
"html-audio-button-response","18","84729","0.0-14.0-1.0","CAN_149","149","","","","","","null","stimuli/bleep.m4a","null","pentagram","star","[""pentagram"",""star""]","left-right","[""pentagram"",""star""]","1","practice","1","left","audio_feedback","1"
"html-button-response","19","85247","0.0-15.0","CAN_149","149","","","","","","null","<button class=""jspsych-btn""><img src=""stimuli/white_square.png"" style=""width: 200px;height: 200px;""></button>","null","pentagram","star","[""pentagram"",""star""]","left-right","[""pentagram"",""star""]","1","practice","1","left","iti",""
"html-button-response","20","89329","0.0-16.0","CAN_149","149","","","","","","4062","","0","","","","","","","","","","",""
"html-button-response","21","90440","0.0-17.0","CAN_149","149","","","","","","1097","","0","red","orange","[""red"",""orange"",""high nameability""]","right-left","[""orange"",""red""]","1","high nameability","1","right","trigger",""
"html-button-response","22","91163","0.0-18.0-0.0","CAN_149","149","","","","","","711","<button class=""jspsych-btn""><img src=""stimuli/red.png"" style=""width: 200px;height: 200px;""></button>","1","red","orange","[""red"",""orange"",""high nameability""]","right-left","[""orange"",""red""]","1","high nameability","1","right","response","1"
"html-audio-button-response","23","91369","0.0-18.0-1.0","CAN_149","149","","","","","","null","stimuli/bleep.m4a","null","red","orange","[""red"",""orange"",""high nameability""]","right-left","[""orange"",""red""]","1","high nameability","1","right","audio_feedback","1"
"html-button-response","24","91886","0.0-19.0","CAN_149","149","","","","","","null","<button class=""jspsych-btn""><img src=""stimuli/white_square.png"" style=""width: 200px;height: 200px;""></button>","null","red","orange","[""red"",""orange"",""high nameability""]","right-left","[""orange"",""red""]","1","high nameability","1","right","iti",""
"html-button-response","25","92142","0.0-20.0","CAN_149","149","","","","","","236","","0","darkgreenblue","turquoise","[""darkgreenblue"",""turquoise"",""low nameability""]","left-right","[""darkgreenblue"",""turquoise"",""low nameability""]","1","low nameability","2","left","trigger",""
"html-button-response","26","92958","0.0-21.0-0.0","CAN_149","149","","","","","","807","<button class=""jspsych-btn""><img src=""stimuli/darkgreenblue.png"" style=""width: 200px;height: 200px;""></button>","0","darkgreenblue","turquoise","[""darkgreenblue"",""turquoise"",""low nameability""]","left-right","[""darkgreenblue"",""turquoise"",""low nameability""]","1","low nameability","2","left","response","1"
"html-audio-button-response","27","93166","0.0-21.0-1.0","CAN_149","149","","","","","","null","stimuli/bleep.m4a","null","darkgreenblue","turquoise","[""darkgreenblue"",""turquoise"",""low nameability""]","left-right","[""darkgreenblue"",""turquoise"",""low nameability""]","1","low nameability","2","left","audio_feedback","1"
"html-button-response","28","93687","0.0-22.0","CAN_149","149","","","","","","null","<button class=""jspsych-btn""><img src=""stimuli/white_square.png"" style=""width: 200px;height: 200px;""></button>","null","darkgreenblue","turquoise","[""darkgreenblue"",""turquoise"",""low nameability""]","left-right","[""darkgreenblue"",""turquoise"",""low nameability""]","1","low nameability","2","left","iti",""
"html-button-response","29","94142","0.0-23.0","CAN_149","149","","","","","","436","","0","brown","purple","[""brown"",""purple"",""high nameability""]","right-left","[""purple"",""brown""]","1","high nameability","3","right","trigger",""
"html-button-response","30","94793","0.0-24.0-0.0","CAN_149","149","","","","","","640","<button class=""jspsych-btn""><img src=""stimuli/brown.png"" style=""width: 200px;height: 200px;""></button>","1","brown","purple","[""brown"",""purple"",""high nameability""]","right-left","[""purple"",""brown""]","1","high nameability","3","right","response","1"
"html-audio-button-response","31","94998","0.0-24.0-1.0","CAN_149","149","","","","","","null","stimuli/bleep.m4a","null","brown","purple","[""brown"",""purple"",""high nameability""]","right-left","[""purple"",""brown""]","1","high nameability","3","right","audio_feedback","1"
"html-button-response","32","95518","0.0-25.0","CAN_149","149","","","","","","null","<button class=""jspsych-btn""><img src=""stimuli/white_square.png"" style=""width: 200px;height: 200px;""></button>","null","brown","purple","[""brown"",""purple"",""high nameability""]","right-left","[""purple"",""brown""]","1","high nameability","3","right","iti",""
"html-button-response","33","96007","0.0-26.0","CAN_149","149","","","","","","463","","0","yellow","purple","[""yellow"",""purple"",""high nameability""]","left-right","[""yellow"",""purple"",""high nameability""]","1","high nameability","4","left","trigger",""
"html-button-response","34","96679","0.0-27.0-0.0","CAN_149","149","","","","","","662","<button class=""jspsych-btn""><img src=""stimuli/yellow.png"" style=""width: 200px;height: 200px;""></button>","0","yellow","purple","[""yellow"",""purple"",""high nameability""]","left-right","[""yellow"",""purple"",""high nameability""]","1","high nameability","4","left","response","1"
"html-audio-button-response","35","96888","0.0-27.0-1.0","CAN_149","149","","","","","","null","stimuli/bleep.m4a","null","yellow","purple","[""yellow"",""purple"",""high nameability""]","left-right","[""yellow"",""purple"",""high nameability""]","1","high nameability","4","left","audio_feedback","1"
"html-button-response","36","97410","0.0-28.0","CAN_149","149","","","","","","null","<button class=""jspsych-btn""><img src=""stimuli/white_square.png"" style=""width: 200px;height: 200px;""></button>","null","yellow","purple","[""yellow"",""purple"",""high nameability""]","left-right","[""yellow"",""purple"",""high nameability""]","1","high nameability","4","left","iti",""
"html-button-response","37","97930","0.0-29.0","CAN_149","149","","","","","","503","","0","lightred","neonyellow","[""lightred"",""neonyellow"",""low nameability""]","right-left","[""neonyellow"",""lightred""]","1","low nameability","5","right","trigger",""
"html-button-response","38","98664","0.0-30.0-0.0","CAN_149","149","","","","","","725","<button class=""jspsych-btn""><img src=""stimuli/lightred.png"" style=""width: 200px;height: 200px;""></button>","1","lightred","neonyellow","[""lightred"",""neonyellow"",""low nameability""]","right-left","[""neonyellow"",""lightred""]","1","low nameability","5","right","response","1"
"html-audio-button-response","39","98871","0.0-30.0-1.0","CAN_149","149","","","","","","null","stimuli/bleep.m4a","null","lightred","neonyellow","[""lightred"",""neonyellow"",""low nameability""]","right-left","[""neonyellow"",""lightred""]","1","low nameability","5","right","audio_feedback","1"
"html-button-response","40","99395","0.0-31.0","CAN_149","149","","","","","","null","<button class=""jspsych-btn""><img src=""stimuli/white_square.png"" style=""width: 200px;height: 200px;""></button>","null","lightred","neonyellow","[""lightred"",""neonyellow"",""low nameability""]","right-left","[""neonyellow"",""lightred""]","1","low nameability","5","right","iti",""
"html-button-response","41","99938","0.0-32.0","CAN_149","149","","","","","","516","","0","brown","red","[""brown"",""red"",""high nameability""]","right-left","[""red"",""brown""]","1","high nameability","6","right","trigger",""
"html-button-response","42","100526","0.0-33.0-0.0","CAN_149","149","","","","","","582","<button class=""jspsych-btn""><img src=""stimuli/brown.png"" style=""width: 200px;height: 200px;""></button>","1","brown","red","[""brown"",""red"",""high nameability""]","right-left","[""red"",""brown""]","1","high nameability","6","right","response","1"
"html-audio-button-response","43","100729","0.0-33.0-1.0","CAN_149","149","","","","","","null","stimuli/bleep.m4a","null","brown","red","[""brown"",""red"",""high nameability""]","right-left","[""red"",""brown""]","1","high nameability","6","right","audio_feedback","1"
"html-button-response","44","101249","0.0-34.0","CAN_149","149","","","","","","null","<button class=""jspsych-btn""><img src=""stimuli/white_square.png"" style=""width: 200px;height: 200px;""></button>","null","brown","red","[""brown"",""red"",""high nameability""]","right-left","[""red"",""brown""]","1","high nameability","6","right","iti",""
"html-button-response","45","101778","0.0-35.0","CAN_149","149","","","","","","514","","0","mustard","turquoise","[""mustard"",""turquoise"",""low nameability""]","right-left","[""turquoise"",""mustard""]","1","low nameability","7","right","trigger",""
"html-button-response","46","102358","0.0-36.0-0.0","CAN_149","149","","","","","","573","<button class=""jspsych-btn""><img src=""stimuli/mustard.png"" style=""width: 200px;height: 200px;""></button>","1","mustard","turquoise","[""mustard"",""turquoise"",""low nameability""]","right-left","[""turquoise"",""mustard""]","1","low nameability","7","right","response","1"
"html-audio-button-response","47","102567","0.0-36.0-1.0","CAN_149","149","","","","","","null","stimuli/bleep.m4a","null","mustard","turquoise","[""mustard"",""turquoise"",""low nameability""]","right-left","[""turquoise"",""mustard""]","1","low nameability","7","right","audio_feedback","1"
"html-button-response","48","103089","0.0-37.0","CAN_149","149","","","","","","null","<button class=""jspsych-btn""><img src=""stimuli/white_square.png"" style=""width: 200px;height: 200px;""></button>","null","mustard","turquoise","[""mustard"",""turquoise"",""low nameability""]","right-left","[""turquoise"",""mustard""]","1","low nameability","7","right","iti",""
"html-button-response","49","103561","0.0-38.0","CAN_149","149","","","","","","456","","0","darkgreenblue","mustard","[""darkgreenblue"",""mustard"",""low nameability""]","left-right","[""darkgreenblue"",""mustard"",""low nameability""]","1","low nameability","8","left","trigger",""
"html-button-response","50","104249","0.0-39.0-0.0","CAN_149","149","","","","","","679","<button class=""jspsych-btn""><img src=""stimuli/darkgreenblue.png"" style=""width: 200px;height: 200px;""></button>","0","darkgreenblue","mustard","[""darkgreenblue"",""mustard"",""low nameability""]","left-right","[""darkgreenblue"",""mustard"",""low nameability""]","1","low nameability","8","left","response","1"
"html-audio-button-response","51","104452","0.0-39.0-1.0","CAN_149","149","","","","","","null","stimuli/bleep.m4a","null","darkgreenblue","mustard","[""darkgreenblue"",""mustard"",""low nameability""]","left-right","[""darkgreenblue"",""mustard"",""low nameability""]","1","low nameability","8","left","audio_feedback","1"
"html-button-response","52","104967","0.0-40.0","CAN_149","149","","","","","","null","<button class=""jspsych-btn""><img src=""stimuli/white_square.png"" style=""width: 200px;height: 200px;""></button>","null","darkgreenblue","mustard","[""darkgreenblue"",""mustard"",""low nameability""]","left-right","[""darkgreenblue"",""mustard"",""low nameability""]","1","low nameability","8","left","iti",""
"html-button-response","53","105446","0.0-41.0","CAN_149","149","","","","","","457","","0","mustard","pink","[""mustard"",""pink"",""low nameability""]","right-left","[""pink"",""mustard""]","1","low nameability","9","right","trigger",""
"html-button-response","54","106068","0.0-42.0-0.0","CAN_149","149","","","","","","613","<button class=""jspsych-btn""><img src=""stimuli/mustard.png"" style=""width: 200px;height: 200px;""></button>","1","mustard","pink","[""mustard"",""pink"",""low nameability""]","right-left","[""pink"",""mustard""]","1","low nameability","9","right","response","1"
"html-audio-button-response","55","106274","0.0-42.0-1.0","CAN_149","149","","","","","","null","stimuli/bleep.m4a","null","mustard","pink","[""mustard"",""pink"",""low nameability""]","right-left","[""pink"",""mustard""]","1","low nameability","9","right","audio_feedback","1"
"html-button-response","56","106793","0.0-43.0","CAN_149","149","","","","","","null","<button class=""jspsych-btn""><img src=""stimuli/white_square.png"" style=""width: 200px;height: 200px;""></button>","null","mustard","pink","[""mustard"",""pink"",""low nameability""]","right-left","[""pink"",""mustard""]","1","low nameability","9","right","iti",""
"html-button-response","57","107317","0.0-44.0","CAN_149","149","","","","","","502","","0","purple","blue","[""purple"",""blue"",""high nameability""]","right-left","[""blue"",""purple""]","1","high nameability","10","right","trigger",""
"html-button-response","58","107824","0.0-45.0-0.0","CAN_149","149","","","","","","498","<button class=""jspsych-btn""><img src=""stimuli/purple.png"" style=""width: 200px;height: 200px;""></button>","1","purple","blue","[""purple"",""blue"",""high nameability""]","right-left","[""blue"",""purple""]","1","high nameability","10","right","response","1"
"html-audio-button-response","59","108025","0.0-45.0-1.0","CAN_149","149","","","","","","null","stimuli/bleep.m4a","null","purple","blue","[""purple"",""blue"",""high nameability""]","right-left","[""blue"",""purple""]","1","high nameability","10","right","audio_feedback","1"
"html-button-response","60","108545","0.0-46.0","CAN_149","149","","","","","","null","<button class=""jspsych-btn""><img src=""stimuli/white_square.png"" style=""width: 200px;height: 200px;""></button>","null","purple","blue","[""purple"",""blue"",""high nameability""]","right-left","[""blue"",""purple""]","1","high nameability","10","right","iti",""
"pavlovia","61","108654","0.0-47.0","CAN_149","149","","","","","","","","","","","","","","","","","","",""
"pavlovia","62","108674","0.0-48.0","CAN_149","149","","","","","","","","","","","","","","","","","","",""
"html-audio-button-response","63","110956","0.0-49.0","CAN_149","149","","","","","","2413","stimuli/tada.m4a","0","","","","","","","","","","",""
"html-button-response","64","111519","0.0-50.0","CAN_149","149","","","","","","556","","0","","","","","","","","","","",""
"html-button-response","65","112463","0.0-51.0","CAN_149","149","","","","","","934","","0","pink","turquoise","[""pink"",""turquoise"",""low nameability""]","left-right","[""pink"",""turquoise"",""low nameability""]","2","low nameability","11","left","trigger",""
"html-button-response","66","114304","0.0-52.0-0.0","CAN_149","149","","","","","","1833","<button class=""jspsych-btn""><img src=""stimuli/pink.png"" style=""width: 200px;height: 200px;""></button>","0","pink","turquoise","[""pink"",""turquoise"",""low nameability""]","left-right","[""pink"",""turquoise"",""low nameability""]","2","low nameability","11","left","response","1"
"html-audio-button-response","67","114510","0.0-52.0-1.0","CAN_149","149","","","","","","null","stimuli/bleep.m4a","null","pink","turquoise","[""pink"",""turquoise"",""low nameability""]","left-right","[""pink"",""turquoise"",""low nameability""]","2","low nameability","11","left","audio_feedback","1"
"html-button-response","68","115038","0.0-53.0","CAN_149","149","","","","","","null","<button class=""jspsych-btn""><img src=""stimuli/white_square.png"" style=""width: 200px;height: 200px;""></button>","null","pink","turquoise","[""pink"",""turquoise"",""low nameability""]","left-right","[""pink"",""turquoise"",""low nameability""]","2","low nameability","11","left","iti",""
"html-button-response","69","115548","0.0-54.0","CAN_149","149","","","","","","487","","0","lightred","darkgreenblue","[""lightred"",""darkgreenblue"",""low nameability""]","right-left","[""darkgreenblue"",""lightred""]","2","low nameability","12","right","trigger",""
"html-button-response","70","116167","0.0-55.0-0.0","CAN_149","149","","","","","","613","<button class=""jspsych-btn""><img src=""stimuli/lightred.png"" style=""width: 200px;height: 200px;""></button>","1","lightred","darkgreenblue","[""lightred"",""darkgreenblue"",""low nameability""]","right-left","[""darkgreenblue"",""lightred""]","2","low nameability","12","right","response","1"
"html-audio-button-response","71","116374","0.0-55.0-1.0","CAN_149","149","","","","","","null","stimuli/bleep.m4a","null","lightred","darkgreenblue","[""lightred"",""darkgreenblue"",""low nameability""]","right-left","[""darkgreenblue"",""lightred""]","2","low nameability","12","right","audio_feedback","1"
"html-button-response","72","116890","0.0-56.0","CAN_149","149","","","","","","null","<button class=""jspsych-btn""><img src=""stimuli/white_square.png"" style=""width: 200px;height: 200px;""></button>","null","lightred","darkgreenblue","[""lightred"",""darkgreenblue"",""low nameability""]","right-left","[""darkgreenblue"",""lightred""]","2","low nameability","12","right","iti",""
"html-button-response","73","117489","0.0-57.0","CAN_149","149","","","","","","581","","0","blue","orange","[""blue"",""orange"",""high nameability""]","left-right","[""blue"",""orange"",""high nameability""]","2","high nameability","13","left","trigger",""
"html-button-response","74","118177","0.0-58.0-0.0","CAN_149","149","","","","","","680","<button class=""jspsych-btn""><img src=""stimuli/blue.png"" style=""width: 200px;height: 200px;""></button>","0","blue","orange","[""blue"",""orange"",""high nameability""]","left-right","[""blue"",""orange"",""high nameability""]","2","high nameability","13","left","response","1"
"html-audio-button-response","75","118383","0.0-58.0-1.0","CAN_149","149","","","","","","null","stimuli/bleep.m4a","null","blue","orange","[""blue"",""orange"",""high nameability""]","left-right","[""blue"",""orange"",""high nameability""]","2","high nameability","13","left","audio_feedback","1"
"html-button-response","76","118904","0.0-59.0","CAN_149","149","","","","","","null","<button class=""jspsych-btn""><img src=""stimuli/white_square.png"" style=""width: 200px;height: 200px;""></button>","null","blue","orange","[""blue"",""orange"",""high nameability""]","left-right","[""blue"",""orange"",""high nameability""]","2","high nameability","13","left","iti",""
"html-button-response","77","119509","0.0-60.0","CAN_149","149","","","","","","584","","0","darkgreenblue","neonyellow","[""darkgreenblue"",""neonyellow"",""low nameability""]","right-left","[""neonyellow"",""darkgreenblue""]","2","low nameability","14","right","trigger",""
"html-button-response","78","120066","0.0-61.0-0.0","CAN_149","149","","","","","","546","<button class=""jspsych-btn""><img src=""stimuli/darkgreenblue.png"" style=""width: 200px;height: 200px;""></button>","1","darkgreenblue","neonyellow","[""darkgreenblue"",""neonyellow"",""low nameability""]","right-left","[""neonyellow"",""darkgreenblue""]","2","low nameability","14","right","response","1"
"html-audio-button-response","79","120274","0.0-61.0-1.0","CAN_149","149","","","","","","null","stimuli/bleep.m4a","null","darkgreenblue","neonyellow","[""darkgreenblue"",""neonyellow"",""low nameability""]","right-left","[""neonyellow"",""darkgreenblue""]","2","low nameability","14","right","audio_feedback","1"
"html-button-response","80","120791","0.0-62.0","CAN_149","149","","","","","","null","<button class=""jspsych-btn""><img src=""stimuli/white_square.png"" style=""width: 200px;height: 200px;""></button>","null","darkgreenblue","neonyellow","[""darkgreenblue"",""neonyellow"",""low nameability""]","right-left","[""neonyellow"",""darkgreenblue""]","2","low nameability","14","right","iti",""
"html-button-response","81","121335","0.0-63.0","CAN_149","149","","","","","","528","","0","pink","lightred","[""pink"",""lightred"",""low nameability""]","left-right","[""pink"",""lightred"",""low nameability""]","2","low nameability","15","left","trigger",""
"html-button-response","82","121990","0.0-64.0-0.0","CAN_149","149","","","","","","647","<button class=""jspsych-btn""><img src=""stimuli/pink.png"" style=""width: 200px;height: 200px;""></button>","0","pink","lightred","[""pink"",""lightred"",""low nameability""]","left-right","[""pink"",""lightred"",""low nameability""]","2","low nameability","15","left","response","1"
"html-audio-button-response","83","122198","0.0-64.0-1.0","CAN_149","149","","","","","","null","stimuli/bleep.m4a","null","pink","lightred","[""pink"",""lightred"",""low nameability""]","left-right","[""pink"",""lightred"",""low nameability""]","2","low nameability","15","left","audio_feedback","1"
"html-button-response","84","122709","0.0-65.0","CAN_149","149","","","","","","null","<button class=""jspsych-btn""><img src=""stimuli/white_square.png"" style=""width: 200px;height: 200px;""></button>","null","pink","lightred","[""pink"",""lightred"",""low nameability""]","left-right","[""pink"",""lightred"",""low nameability""]","2","low nameability","15","left","iti",""
"html-button-response","85","123193","0.0-66.0","CAN_149","149","","","","","","459","","0","purple","orange","[""purple"",""orange"",""high nameability""]","right-left","[""orange"",""purple""]","2","high nameability","16","right","trigger",""
"html-button-response","86","123807","0.0-67.0-0.0","CAN_149","149","","","","","","607","<button class=""jspsych-btn""><img src=""stimuli/purple.png"" style=""width: 200px;height: 200px;""></button>","1","purple","orange","[""purple"",""orange"",""high nameability""]","right-left","[""orange"",""purple""]","2","high nameability","16","right","response","1"
"html-audio-button-response","87","124009","0.0-67.0-1.0","CAN_149","149","","","","","","null","stimuli/bleep.m4a","null","purple","orange","[""purple"",""orange"",""high nameability""]","right-left","[""orange"",""purple""]","2","high nameability","16","right","audio_feedback","1"
"html-button-response","88","124523","0.0-68.0","CAN_149","149","","","","","","null","<button class=""jspsych-btn""><img src=""stimuli/white_square.png"" style=""width: 200px;height: 200px;""></button>","null","purple","orange","[""purple"",""orange"",""high nameability""]","right-left","[""orange"",""purple""]","2","high nameability","16","right","iti",""
"html-button-response","89","125093","0.0-69.0","CAN_149","149","","","","","","563","","0","brown","yellow","[""brown"",""yellow"",""high nameability""]","right-left","[""yellow"",""brown""]","2","high nameability","17","right","trigger",""
"html-button-response","90","125759","0.0-70.0-0.0","CAN_149","149","","","","","","657","<button class=""jspsych-btn""><img src=""stimuli/brown.png"" style=""width: 200px;height: 200px;""></button>","1","brown","yellow","[""brown"",""yellow"",""high nameability""]","right-left","[""yellow"",""brown""]","2","high nameability","17","right","response","1"
"html-audio-button-response","91","125960","0.0-70.0-1.0","CAN_149","149","","","","","","null","stimuli/bleep.m4a","null","brown","yellow","[""brown"",""yellow"",""high nameability""]","right-left","[""yellow"",""brown""]","2","high nameability","17","right","audio_feedback","1"
"html-button-response","92","126481","0.0-71.0","CAN_149","149","","","","","","null","<button class=""jspsych-btn""><img src=""stimuli/white_square.png"" style=""width: 200px;height: 200px;""></button>","null","brown","yellow","[""brown"",""yellow"",""high nameability""]","right-left","[""yellow"",""brown""]","2","high nameability","17","right","iti",""
"html-button-response","93","126946","0.0-72.0","CAN_149","149","","","","","","447","","0","lightred","turquoise","[""lightred"",""turquoise"",""low nameability""]","left-right","[""lightred"",""turquoise"",""low nameability""]","2","low nameability","18","left","trigger",""
"html-button-response","94","127564","0.0-73.0-0.0","CAN_149","149","","","","","","611","<button class=""jspsych-btn""><img src=""stimuli/lightred.png"" style=""width: 200px;height: 200px;""></button>","0","lightred","turquoise","[""lightred"",""turquoise"",""low nameability""]","left-right","[""lightred"",""turquoise"",""low nameability""]","2","low nameability","18","left","response","1"
"html-audio-button-response","95","127769","0.0-73.0-1.0","CAN_149","149","","","","","","null","stimuli/bleep.m4a","null","lightred","turquoise","[""lightred"",""turquoise"",""low nameability""]","left-right","[""lightred"",""turquoise"",""low nameability""]","2","low nameability","18","left","audio_feedback","1"
"html-button-response","96","128288","0.0-74.0","CAN_149","149","","","","","","null","<button class=""jspsych-btn""><img src=""stimuli/white_square.png"" style=""width: 200px;height: 200px;""></button>","null","lightred","turquoise","[""lightred"",""turquoise"",""low nameability""]","left-right","[""lightred"",""turquoise"",""low nameability""]","2","low nameability","18","left","iti",""
"html-button-response","97","128780","0.0-75.0","CAN_149","149","","","","","","471","","0","brown","blue","[""brown"",""blue"",""high nameability""]","left-right","[""brown"",""blue"",""high nameability""]","2","high nameability","19","left","trigger",""
"html-button-response","98","130787","0.0-76.0-0.0","CAN_149","149","","","","","","1999","<button class=""jspsych-btn""><img src=""stimuli/brown.png"" style=""width: 200px;height: 200px;""></button>","0","brown","blue","[""brown"",""blue"",""high nameability""]","left-right","[""brown"",""blue"",""high nameability""]","2","high nameability","19","left","response","1"
"html-audio-button-response","99","130998","0.0-76.0-1.0","CAN_149","149","","","","","","null","stimuli/bleep.m4a","null","brown","blue","[""brown"",""blue"",""high nameability""]","left-right","[""brown"",""blue"",""high nameability""]","2","high nameability","19","left","audio_feedback","1"
"html-button-response","100","131519","0.0-77.0","CAN_149","149","","","","","","null","<button class=""jspsych-btn""><img src=""stimuli/white_square.png"" style=""width: 200px;height: 200px;""></button>","null","brown","blue","[""brown"",""blue"",""high nameability""]","left-right","[""brown"",""blue"",""high nameability""]","2","high nameability","19","left","iti",""
"html-button-response","101","132043","0.0-78.0","CAN_149","149","","","","","","503","","0","red","yellow","[""red"",""yellow"",""high nameability""]","left-right","[""red"",""yellow"",""high nameability""]","2","high nameability","20","left","trigger",""
"html-button-response","102","132682","0.0-79.0-0.0","CAN_149","149","","","","","","631","<button class=""jspsych-btn""><img src=""stimuli/red.png"" style=""width: 200px;height: 200px;""></button>","0","red","yellow","[""red"",""yellow"",""high nameability""]","left-right","[""red"",""yellow"",""high nameability""]","2","high nameability","20","left","response","1"
"html-audio-button-response","103","132889","0.0-79.0-1.0","CAN_149","149","","","","","","null","stimuli/bleep.m4a","null","red","yellow","[""red"",""yellow"",""high nameability""]","left-right","[""red"",""yellow"",""high nameability""]","2","high nameability","20","left","audio_feedback","1"
"html-button-response","104","133414","0.0-80.0","CAN_149","149","","","","","","null","<button class=""jspsych-btn""><img src=""stimuli/white_square.png"" style=""width: 200px;height: 200px;""></button>","null","red","yellow","[""red"",""yellow"",""high nameability""]","left-right","[""red"",""yellow"",""high nameability""]","2","high nameability","20","left","iti",""
"pavlovia","105","133469","0.0-81.0","CAN_149","149","","","","","","","","","","","","","","","","","","",""
"pavlovia","106","133478","0.0-82.0","CAN_149","149","","","","","","","","","","","","","","","","","","",""
"html-audio-button-response","107","135667","0.0-83.0","CAN_149","149","","","","","","2261","stimuli/tada.m4a","0","","","","","","","","","","",""
"html-button-response","108","136426","0.0-84.0","CAN_149","149","","","","","","751","","0","","","","","","","","","","",""
"html-button-response","109","137476","0.0-85.0","CAN_149","149","","","","","","1042","","0","neonyellow","mustard","[""neonyellow"",""mustard"",""low nameability""]","left-right","[""neonyellow"",""mustard"",""low nameability""]","3","low nameability","21","left","trigger",""
"html-button-response","110","138286","0.0-86.0-0.0","CAN_149","149","","","","","","799","<button class=""jspsych-btn""><img src=""stimuli/neonyellow.png"" style=""width: 200px;height: 200px;""></button>","0","neonyellow","mustard","[""neonyellow"",""mustard"",""low nameability""]","left-right","[""neonyellow"",""mustard"",""low nameability""]","3","low nameability","21","left","response","1"
"html-audio-button-response","111","138489","0.0-86.0-1.0","CAN_149","149","","","","","","null","stimuli/bleep.m4a","null","neonyellow","mustard","[""neonyellow"",""mustard"",""low nameability""]","left-right","[""neonyellow"",""mustard"",""low nameability""]","3","low nameability","21","left","audio_feedback","1"
"html-button-response","112","139004","0.0-87.0","CAN_149","149","","","","","","null","<button class=""jspsych-btn""><img src=""stimuli/white_square.png"" style=""width: 200px;height: 200px;""></button>","null","neonyellow","mustard","[""neonyellow"",""mustard"",""low nameability""]","left-right","[""neonyellow"",""mustard"",""low nameability""]","3","low nameability","21","left","iti",""
"html-button-response","113","139401","0.0-88.0","CAN_149","149","","","","","","376","","0","purple","yellow","[""purple"",""yellow"",""high nameability""]","right-left","[""yellow"",""purple""]","3","high nameability","22","right","trigger",""
"html-button-response","114","140021","0.0-89.0-0.0","CAN_149","149","","","","","","611","<button class=""jspsych-btn""><img src=""stimuli/purple.png"" style=""width: 200px;height: 200px;""></button>","1","purple","yellow","[""purple"",""yellow"",""high nameability""]","right-left","[""yellow"",""purple""]","3","high nameability","22","right","response","1"
"html-audio-button-response","115","140234","0.0-89.0-1.0","CAN_149","149","","","","","","null","stimuli/bleep.m4a","null","purple","yellow","[""purple"",""yellow"",""high nameability""]","right-left","[""yellow"",""purple""]","3","high nameability","22","right","audio_feedback","1"
"html-button-response","116","140749","0.0-90.0","CAN_149","149","","","","","","null","<button class=""jspsych-btn""><img src=""stimuli/white_square.png"" style=""width: 200px;height: 200px;""></button>","null","purple","yellow","[""purple"",""yellow"",""high nameability""]","right-left","[""yellow"",""purple""]","3","high nameability","22","right","iti",""
"html-button-response","117","141184","0.0-91.0","CAN_149","149","","","","","","416","","0","orange","brown","[""orange"",""brown"",""high nameability""]","left-right","[""orange"",""brown"",""high nameability""]","3","high nameability","23","left","trigger",""
"html-button-response","118","141849","0.0-92.0-0.0","CAN_149","149","","","","","","657","<button class=""jspsych-btn""><img src=""stimuli/orange.png"" style=""width: 200px;height: 200px;""></button>","0","orange","brown","[""orange"",""brown"",""high nameability""]","left-right","[""orange"",""brown"",""high nameability""]","3","high nameability","23","left","response","1"
"html-audio-button-response","119","142053","0.0-92.0-1.0","CAN_149","149","","","","","","null","stimuli/bleep.m4a","null","orange","brown","[""orange"",""brown"",""high nameability""]","left-right","[""orange"",""brown"",""high nameability""]","3","high nameability","23","left","audio_feedback","1"
"html-button-response","120","142574","0.0-93.0","CAN_149","149","","","","","","null","<button class=""jspsych-btn""><img src=""stimuli/white_square.png"" style=""width: 200px;height: 200px;""></button>","null","orange","brown","[""orange"",""brown"",""high nameability""]","left-right","[""orange"",""brown"",""high nameability""]","3","high nameability","23","left","iti",""
"html-button-response","121","143094","0.0-94.0","CAN_149","149","","","","","","503","","0","lightred","pink","[""lightred"",""pink"",""low nameability""]","left-right","[""lightred"",""pink"",""low nameability""]","3","low nameability","24","left","trigger",""
"html-button-response","122","143738","0.0-95.0-0.0","CAN_149","149","","","","","","635","<button class=""jspsych-btn""><img src=""stimuli/lightred.png"" style=""width: 200px;height: 200px;""></button>","0","lightred","pink","[""lightred"",""pink"",""low nameability""]","left-right","[""lightred"",""pink"",""low nameability""]","3","low nameability","24","left","response","1"
"html-audio-button-response","123","143939","0.0-95.0-1.0","CAN_149","149","","","","","","null","stimuli/bleep.m4a","null","lightred","pink","[""lightred"",""pink"",""low nameability""]","left-right","[""lightred"",""pink"",""low nameability""]","3","low nameability","24","left","audio_feedback","1"
"html-button-response","124","144452","0.0-96.0","CAN_149","149","","","","","","null","<button class=""jspsych-btn""><img src=""stimuli/white_square.png"" style=""width: 200px;height: 200px;""></button>","null","lightred","pink","[""lightred"",""pink"",""low nameability""]","left-right","[""lightred"",""pink"",""low nameability""]","3","low nameability","24","left","iti",""
"html-button-response","125","144959","0.0-97.0","CAN_149","149","","","","","","489","","0","mustard","darkgreenblue","[""mustard"",""darkgreenblue"",""low nameability""]","right-left","[""darkgreenblue"",""mustard""]","3","low nameability","25","right","trigger",""
"html-button-response","126","145602","0.0-98.0-0.0","CAN_149","149","","","","","","637","<button class=""jspsych-btn""><img src=""stimuli/mustard.png"" style=""width: 200px;height: 200px;""></button>","1","mustard","darkgreenblue","[""mustard"",""darkgreenblue"",""low nameability""]","right-left","[""darkgreenblue"",""mustard""]","3","low nameability","25","right","response","1"
"html-audio-button-response","127","145804","0.0-98.0-1.0","CAN_149","149","","","","","","null","stimuli/bleep.m4a","null","mustard","darkgreenblue","[""mustard"",""darkgreenblue"",""low nameability""]","right-left","[""darkgreenblue"",""mustard""]","3","low nameability","25","right","audio_feedback","1"
"html-button-response","128","146319","0.0-99.0","CAN_149","149","","","","","","null","<button class=""jspsych-btn""><img src=""stimuli/white_square.png"" style=""width: 200px;height: 200px;""></button>","null","mustard","darkgreenblue","[""mustard"",""darkgreenblue"",""low nameability""]","right-left","[""darkgreenblue"",""mustard""]","3","low nameability","25","right","iti",""
"html-button-response","129","146820","0.0-100.0","CAN_149","149","","","","","","485","","0","mustard","lightred","[""mustard"",""lightred"",""low nameability""]","right-left","[""lightred"",""mustard""]","3","low nameability","26","right","trigger",""
"html-button-response","130","147398","0.0-101.0-0.0","CAN_149","149","","","","","","567","<button class=""jspsych-btn""><img src=""stimuli/mustard.png"" style=""width: 200px;height: 200px;""></button>","1","mustard","lightred","[""mustard"",""lightred"",""low nameability""]","right-left","[""lightred"",""mustard""]","3","low nameability","26","right","response","1"
"html-audio-button-response","131","147604","0.0-101.0-1.0","CAN_149","149","","","","","","null","stimuli/bleep.m4a","null","mustard","lightred","[""mustard"",""lightred"",""low nameability""]","right-left","[""lightred"",""mustard""]","3","low nameability","26","right","audio_feedback","1"
"html-button-response","132","148120","0.0-102.0","CAN_149","149","","","","","","null","<button class=""jspsych-btn""><img src=""stimuli/white_square.png"" style=""width: 200px;height: 200px;""></button>","null","mustard","lightred","[""mustard"",""lightred"",""low nameability""]","right-left","[""lightred"",""mustard""]","3","low nameability","26","right","iti",""
"html-button-response","133","148624","0.0-103.0","CAN_149","149","","","","","","488","","0","darkgreenblue","lightred","[""darkgreenblue"",""lightred"",""low nameability""]","left-right","[""darkgreenblue"",""lightred"",""low nameability""]","3","low nameability","27","left","trigger",""
"html-button-response","134","149299","0.0-104.0-0.0","CAN_149","149","","","","","","668","<button class=""jspsych-btn""><img src=""stimuli/darkgreenblue.png"" style=""width: 200px;height: 200px;""></button>","0","darkgreenblue","lightred","[""darkgreenblue"",""lightred"",""low nameability""]","left-right","[""darkgreenblue"",""lightred"",""low nameability""]","3","low nameability","27","left","response","1"
"html-audio-button-response","135","149505","0.0-104.0-1.0","CAN_149","149","","","","","","null","stimuli/bleep.m4a","null","darkgreenblue","lightred","[""darkgreenblue"",""lightred"",""low nameability""]","left-right","[""darkgreenblue"",""lightred"",""low nameability""]","3","low nameability","27","left","audio_feedback","1"
"html-button-response","136","150021","0.0-105.0","CAN_149","149","","","","","","null","<button class=""jspsych-btn""><img src=""stimuli/white_square.png"" style=""width: 200px;height: 200px;""></button>","null","darkgreenblue","lightred","[""darkgreenblue"",""lightred"",""low nameability""]","left-right","[""darkgreenblue"",""lightred"",""low nameability""]","3","low nameability","27","left","iti",""
"html-button-response","137","150570","0.0-106.0","CAN_149","149","","","","","","530","","0","turquoise","darkgreenblue","[""turquoise"",""darkgreenblue"",""low nameability""]","right-left","[""darkgreenblue"",""turquoise""]","3","low nameability","28","right","trigger",""
"html-button-response","138","151132","0.0-107.0-0.0","CAN_149","149","","","","","","553","<button class=""jspsych-btn""><img src=""stimuli/turquoise.png"" style=""width: 200px;height: 200px;""></button>","1","turquoise","darkgreenblue","[""turquoise"",""darkgreenblue"",""low nameability""]","right-left","[""darkgreenblue"",""turquoise""]","3","low nameability","28","right","response","1"
"html-audio-button-response","139","151341","0.0-107.0-1.0","CAN_149","149","","","","","","null","stimuli/bleep.m4a","null","turquoise","darkgreenblue","[""turquoise"",""darkgreenblue"",""low nameability""]","right-left","[""darkgreenblue"",""turquoise""]","3","low nameability","28","right","audio_feedback","1"
"html-button-response","140","151859","0.0-108.0","CAN_149","149","","","","","","null","<button class=""jspsych-btn""><img src=""stimuli/white_square.png"" style=""width: 200px;height: 200px;""></button>","null","turquoise","darkgreenblue","[""turquoise"",""darkgreenblue"",""low nameability""]","right-left","[""darkgreenblue"",""turquoise""]","3","low nameability","28","right","iti",""
"html-button-response","141","152400","0.0-109.0","CAN_149","149","","","","","","518","","0","pink","darkgreenblue","[""pink"",""darkgreenblue"",""low nameability""]","right-left","[""darkgreenblue"",""pink""]","3","low nameability","29","right","trigger",""
"html-button-response","142","153042","0.0-110.0-0.0","CAN_149","149","","","","","","634","<button class=""jspsych-btn""><img src=""stimuli/pink.png"" style=""width: 200px;height: 200px;""></button>","1","pink","darkgreenblue","[""pink"",""darkgreenblue"",""low nameability""]","right-left","[""darkgreenblue"",""pink""]","3","low nameability","29","right","response","1"
"html-audio-button-response","143","153245","0.0-110.0-1.0","CAN_149","149","","","","","","null","stimuli/bleep.m4a","null","pink","darkgreenblue","[""pink"",""darkgreenblue"",""low nameability""]","right-left","[""darkgreenblue"",""pink""]","3","low nameability","29","right","audio_feedback","1"
"html-button-response","144","153762","0.0-111.0","CAN_149","149","","","","","","null","<button class=""jspsych-btn""><img src=""stimuli/white_square.png"" style=""width: 200px;height: 200px;""></button>","null","pink","darkgreenblue","[""pink"",""darkgreenblue"",""low nameability""]","right-left","[""darkgreenblue"",""pink""]","3","low nameability","29","right","iti",""
"html-button-response","145","154314","0.0-112.0","CAN_149","149","","","","","","546","","0","neonyellow","lightred","[""neonyellow"",""lightred"",""low nameability""]","left-right","[""neonyellow"",""lightred"",""low nameability""]","3","low nameability","30","left","trigger",""
"html-button-response","146","155717","0.0-113.0-0.0","CAN_149","149","","","","","","1395","<button class=""jspsych-btn""><img src=""stimuli/neonyellow.png"" style=""width: 200px;height: 200px;""></button>","0","neonyellow","lightred","[""neonyellow"",""lightred"",""low nameability""]","left-right","[""neonyellow"",""lightred"",""low nameability""]","3","low nameability","30","left","response","1"
"html-audio-button-response","147","155921","0.0-113.0-1.0","CAN_149","149","","","","","","null","stimuli/bleep.m4a","null","neonyellow","lightred","[""neonyellow"",""lightred"",""low nameability""]","left-right","[""neonyellow"",""lightred"",""low nameability""]","3","low nameability","30","left","audio_feedback","1"
"html-button-response","148","156439","0.0-114.0","CAN_149","149","","","","","","null","<button class=""jspsych-btn""><img src=""stimuli/white_square.png"" style=""width: 200px;height: 200px;""></button>","null","neonyellow","lightred","[""neonyellow"",""lightred"",""low nameability""]","left-right","[""neonyellow"",""lightred"",""low nameability""]","3","low nameability","30","left","iti",""
"pavlovia","149","156507","0.0-115.0","CAN_149","149","","","","","","","","","","","","","","","","","","",""
"pavlovia","150","156515","0.0-116.0","CAN_149","149","","","","","","","","","","","","","","","","","","",""
"html-audio-button-response","151","157991","0.0-117.0","CAN_149","149","","","","","","1549","stimuli/tada.m4a","0","","","","","","","","","","",""
"html-button-response","152","158583","0.0-118.0","CAN_149","149","","","","","","584","","0","","","","","","","","","","",""
"html-button-response","153","159604","0.0-119.0","CAN_149","149","","","","","","1013","","0","yellow","red","[""yellow"",""red"",""high nameability""]","left-right","[""yellow"",""red"",""high nameability""]","4","high nameability","31","left","trigger",""
"html-button-response","154","161866","0.0-120.0-0.0","CAN_149","149","","","","","","2252","<button class=""jspsych-btn""><img src=""stimuli/yellow.png"" style=""width: 200px;height: 200px;""></button>","0","yellow","red","[""yellow"",""red"",""high nameability""]","left-right","[""yellow"",""red"",""high nameability""]","4","high nameability","31","left","response","1"
"html-audio-button-response","155","162074","0.0-120.0-1.0","CAN_149","149","","","","","","null","stimuli/bleep.m4a","null","yellow","red","[""yellow"",""red"",""high nameability""]","left-right","[""yellow"",""red"",""high nameability""]","4","high nameability","31","left","audio_feedback","1"
"html-button-response","156","162595","0.0-121.0","CAN_149","149","","","","","","null","<button class=""jspsych-btn""><img src=""stimuli/white_square.png"" style=""width: 200px;height: 200px;""></button>","null","yellow","red","[""yellow"",""red"",""high nameability""]","left-right","[""yellow"",""red"",""high nameability""]","4","high nameability","31","left","iti",""
"html-button-response","157","163143","0.0-122.0","CAN_149","149","","","","","","523","","0","blue","yellow","[""blue"",""yellow"",""high nameability""]","left-right","[""blue"",""yellow"",""high nameability""]","4","high nameability","32","left","trigger",""
"html-button-response","158","163894","0.0-123.0-0.0","CAN_149","149","","","","","","734","<button class=""jspsych-btn""><img src=""stimuli/blue.png"" style=""width: 200px;height: 200px;""></button>","0","blue","yellow","[""blue"",""yellow"",""high nameability""]","left-right","[""blue"",""yellow"",""high nameability""]","4","high nameability","32","left","response","1"
"html-audio-button-response","159","164122","0.0-123.0-1.0","CAN_149","149","","","","","","null","stimuli/bleep.m4a","null","blue","yellow","[""blue"",""yellow"",""high nameability""]","left-right","[""blue"",""yellow"",""high nameability""]","4","high nameability","32","left","audio_feedback","1"
"html-button-response","160","164649","0.0-124.0","CAN_149","149","","","","","","null","<button class=""jspsych-btn""><img src=""stimuli/white_square.png"" style=""width: 200px;height: 200px;""></button>","null","blue","yellow","[""blue"",""yellow"",""high nameability""]","left-right","[""blue"",""yellow"",""high nameability""]","4","high nameability","32","left","iti",""
"html-button-response","161","165222","0.0-125.0","CAN_149","149","","","","","","548","","0","mustard","neonyellow","[""mustard"",""neonyellow"",""low nameability""]","right-left","[""neonyellow"",""mustard""]","4","low nameability","33","right","trigger",""
"html-button-response","162","165803","0.0-126.0-0.0","CAN_149","149","","","","","","568","<button class=""jspsych-btn""><img src=""stimuli/mustard.png"" style=""width: 200px;height: 200px;""></button>","1","mustard","neonyellow","[""mustard"",""neonyellow"",""low nameability""]","right-left","[""neonyellow"",""mustard""]","4","low nameability","33","right","response","1"
"html-audio-button-response","163","166027","0.0-126.0-1.0","CAN_149","149","","","","","","null","stimuli/bleep.m4a","null","mustard","neonyellow","[""mustard"",""neonyellow"",""low nameability""]","right-left","[""neonyellow"",""mustard""]","4","low nameability","33","right","audio_feedback","1"
"html-button-response","164","166546","0.0-127.0","CAN_149","149","","","","","","null","<button class=""jspsych-btn""><img src=""stimuli/white_square.png"" style=""width: 200px;height: 200px;""></button>","null","mustard","neonyellow","[""mustard"",""neonyellow"",""low nameability""]","right-left","[""neonyellow"",""mustard""]","4","low nameability","33","right","iti",""
"html-button-response","165","167025","0.0-128.0","CAN_149","149","","","","","","456","","0","yellow","orange","[""yellow"",""orange"",""high nameability""]","right-left","[""orange"",""yellow""]","4","high nameability","34","right","trigger",""
"html-button-response","166","167613","0.0-129.0-0.0","CAN_149","149","","","","","","574","<button class=""jspsych-btn""><img src=""stimuli/yellow.png"" style=""width: 200px;height: 200px;""></button>","1","yellow","orange","[""yellow"",""orange"",""high nameability""]","right-left","[""orange"",""yellow""]","4","high nameability","34","right","response","1"
"html-audio-button-response","167","167839","0.0-129.0-1.0","CAN_149","149","","","","","","null","stimuli/bleep.m4a","null","yellow","orange","[""yellow"",""orange"",""high nameability""]","right-left","[""orange"",""yellow""]","4","high nameability","34","right","audio_feedback","1"
"html-button-response","168","168371","0.0-130.0","CAN_149","149","","","","","","null","<button class=""jspsych-btn""><img src=""stimuli/white_square.png"" style=""width: 200px;height: 200px;""></button>","null","yellow","orange","[""yellow"",""orange"",""high nameability""]","right-left","[""orange"",""yellow""]","4","high nameability","34","right","iti",""
"html-button-response","169","168913","0.0-131.0","CAN_149","149","","","","","","508","","0","orange","yellow","[""orange"",""yellow"",""high nameability""]","left-right","[""orange"",""yellow"",""high nameability""]","4","high nameability","35","left","trigger",""
"html-button-response","170","169657","0.0-132.0-0.0","CAN_149","149","","","","","","732","<button class=""jspsych-btn""><img src=""stimuli/orange.png"" style=""width: 200px;height: 200px;""></button>","0","orange","yellow","[""orange"",""yellow"",""high nameability""]","left-right","[""orange"",""yellow"",""high nameability""]","4","high nameability","35","left","response","1"
"html-audio-button-response","171","169873","0.0-132.0-1.0","CAN_149","149","","","","","","null","stimuli/bleep.m4a","null","orange","yellow","[""orange"",""yellow"",""high nameability""]","left-right","[""orange"",""yellow"",""high nameability""]","4","high nameability","35","left","audio_feedback","1"
"html-button-response","172","170393","0.0-133.0","CAN_149","149","","","","","","null","<button class=""jspsych-btn""><img src=""stimuli/white_square.png"" style=""width: 200px;height: 200px;""></button>","null","orange","yellow","[""orange"",""yellow"",""high nameability""]","left-right","[""orange"",""yellow"",""high nameability""]","4","high nameability","35","left","iti",""
"html-button-response","173","170970","0.0-134.0","CAN_149","149","","","","","","553","","0","pink","neonyellow","[""pink"",""neonyellow"",""low nameability""]","right-left","[""neonyellow"",""pink""]","4","low nameability","36","right","trigger",""
"html-button-response","174","171659","0.0-135.0-0.0","CAN_149","149","","","","","","680","<button class=""jspsych-btn""><img src=""stimuli/pink.png"" style=""width: 200px;height: 200px;""></button>","1","pink","neonyellow","[""pink"",""neonyellow"",""low nameability""]","right-left","[""neonyellow"",""pink""]","4","low nameability","36","right","response","1"
"html-audio-button-response","175","171868","0.0-135.0-1.0","CAN_149","149","","","","","","null","stimuli/bleep.m4a","null","pink","neonyellow","[""pink"",""neonyellow"",""low nameability""]","right-left","[""neonyellow"",""pink""]","4","low nameability","36","right","audio_feedback","1"
"html-button-response","176","172401","0.0-136.0","CAN_149","149","","","","","","null","<button class=""jspsych-btn""><img src=""stimuli/white_square.png"" style=""width: 200px;height: 200px;""></button>","null","pink","neonyellow","[""pink"",""neonyellow"",""low nameability""]","right-left","[""neonyellow"",""pink""]","4","low nameability","36","right","iti",""
"html-button-response","177","173139","0.0-137.0","CAN_149","149","","","","","","711","","0","turquoise","mustard","[""turquoise"",""mustard"",""low nameability""]","left-right","[""turquoise"",""mustard"",""low nameability""]","4","low nameability","37","left","trigger",""
"html-button-response","178","174541","0.0-138.0-0.0","CAN_149","149","","","","","","1391","<button class=""jspsych-btn""><img src=""stimuli/turquoise.png"" style=""width: 200px;height: 200px;""></button>","0","turquoise","mustard","[""turquoise"",""mustard"",""low nameability""]","left-right","[""turquoise"",""mustard"",""low nameability""]","4","low nameability","37","left","response","1"
"html-audio-button-response","179","174753","0.0-138.0-1.0","CAN_149","149","","","","","","null","stimuli/bleep.m4a","null","turquoise","mustard","[""turquoise"",""mustard"",""low nameability""]","left-right","[""turquoise"",""mustard"",""low nameability""]","4","low nameability","37","left","audio_feedback","1"
"html-button-response","180","175279","0.0-139.0","CAN_149","149","","","","","","null","<button class=""jspsych-btn""><img src=""stimuli/white_square.png"" style=""width: 200px;height: 200px;""></button>","null","turquoise","mustard","[""turquoise"",""mustard"",""low nameability""]","left-right","[""turquoise"",""mustard"",""low nameability""]","4","low nameability","37","left","iti",""
"html-button-response","181","175843","0.0-140.0","CAN_149","149","","","","","","536","","0","orange","purple","[""orange"",""purple"",""high nameability""]","left-right","[""orange"",""purple"",""high nameability""]","4","high nameability","38","left","trigger",""
"html-button-response","182","176477","0.0-141.0-0.0","CAN_149","149","","","","","","624","<button class=""jspsych-btn""><img src=""stimuli/orange.png"" style=""width: 200px;height: 200px;""></button>","0","orange","purple","[""orange"",""purple"",""high nameability""]","left-right","[""orange"",""purple"",""high nameability""]","4","high nameability","38","left","response","1"
"html-audio-button-response","183","176685","0.0-141.0-1.0","CAN_149","149","","","","","","null","stimuli/bleep.m4a","null","orange","purple","[""orange"",""purple"",""high nameability""]","left-right","[""orange"",""purple"",""high nameability""]","4","high nameability","38","left","audio_feedback","1"
"html-button-response","184","177212","0.0-142.0","CAN_149","149","","","","","","null","<button class=""jspsych-btn""><img src=""stimuli/white_square.png"" style=""width: 200px;height: 200px;""></button>","null","orange","purple","[""orange"",""purple"",""high nameability""]","left-right","[""orange"",""purple"",""high nameability""]","4","high nameability","38","left","iti",""
"html-button-response","185","177700","0.0-143.0","CAN_149","149","","","","","","463","","0","turquoise","pink","[""turquoise"",""pink"",""low nameability""]","left-right","[""turquoise"",""pink"",""low nameability""]","4","low nameability","39","left","trigger",""
"html-button-response","186","178365","0.0-144.0-0.0","CAN_149","149","","","","","","654","<button class=""jspsych-btn""><img src=""stimuli/turquoise.png"" style=""width: 200px;height: 200px;""></button>","0","turquoise","pink","[""turquoise"",""pink"",""low nameability""]","left-right","[""turquoise"",""pink"",""low nameability""]","4","low nameability","39","left","response","1"
"html-audio-button-response","187","178569","0.0-144.0-1.0","CAN_149","149","","","","","","null","stimuli/bleep.m4a","null","turquoise","pink","[""turquoise"",""pink"",""low nameability""]","left-right","[""turquoise"",""pink"",""low nameability""]","4","low nameability","39","left","audio_feedback","1"
"html-button-response","188","179096","0.0-145.0","CAN_149","149","","","","","","null","<button class=""jspsych-btn""><img src=""stimuli/white_square.png"" style=""width: 200px;height: 200px;""></button>","null","turquoise","pink","[""turquoise"",""pink"",""low nameability""]","left-right","[""turquoise"",""pink"",""low nameability""]","4","low nameability","39","left","iti",""
"html-button-response","189","179568","0.0-146.0","CAN_149","149","","","","","","443","","0","yellow","brown","[""yellow"",""brown"",""high nameability""]","left-right","[""yellow"",""brown"",""high nameability""]","4","high nameability","40","left","trigger",""
"html-button-response","190","181212","0.0-147.0-0.0","CAN_149","149","","","","","","1636","<button class=""jspsych-btn""><img src=""stimuli/yellow.png"" style=""width: 200px;height: 200px;""></button>","0","yellow","brown","[""yellow"",""brown"",""high nameability""]","left-right","[""yellow"",""brown"",""high nameability""]","4","high nameability","40","left","response","1"
"html-audio-button-response","191","181420","0.0-147.0-1.0","CAN_149","149","","","","","","null","stimuli/bleep.m4a","null","yellow","brown","[""yellow"",""brown"",""high nameability""]","left-right","[""yellow"",""brown"",""high nameability""]","4","high nameability","40","left","audio_feedback","1"
"html-button-response","192","181934","0.0-148.0","CAN_149","149","","","","","","null","<button class=""jspsych-btn""><img src=""stimuli/white_square.png"" style=""width: 200px;height: 200px;""></button>","null","yellow","brown","[""yellow"",""brown"",""high nameability""]","left-right","[""yellow"",""brown"",""high nameability""]","4","high nameability","40","left","iti",""
"pavlovia","193","181994","0.0-149.0","CAN_149","149","","","","","","","","","","","","","","","","","","",""
"pavlovia","194","182003","0.0-150.0","CAN_149","149","","","","","","","","","","","","","","","","","","",""
"html-audio-button-response","195","184394","0.0-151.0","CAN_149","149","","","","","","2448","stimuli/tada.m4a","0","","","","","","","","","","",""
"html-button-response","196","184965","0.0-152.0","CAN_149","149","","","","","","560","","0","","","","","","","","","","",""
"html-button-response","197","185871","0.0-153.0","CAN_149","149","","","","","","897","","0","neonyellow","pink","[""neonyellow"",""pink"",""low nameability""]","right-left","[""pink"",""neonyellow""]","5","low nameability","41","right","trigger",""
"html-button-response","198","186532","0.0-154.0-0.0","CAN_149","149","","","","","","648","<button class=""jspsych-btn""><img src=""stimuli/neonyellow.png"" style=""width: 200px;height: 200px;""></button>","1","neonyellow","pink","[""neonyellow"",""pink"",""low nameability""]","right-left","[""pink"",""neonyellow""]","5","low nameability","41","right","response","1"
"html-audio-button-response","199","186738","0.0-154.0-1.0","CAN_149","149","","","","","","null","stimuli/bleep.m4a","null","neonyellow","pink","[""neonyellow"",""pink"",""low nameability""]","right-left","[""pink"",""neonyellow""]","5","low nameability","41","right","audio_feedback","1"
"html-button-response","200","187261","0.0-155.0","CAN_149","149","","","","","","null","<button class=""jspsych-btn""><img src=""stimuli/white_square.png"" style=""width: 200px;height: 200px;""></button>","null","neonyellow","pink","[""neonyellow"",""pink"",""low nameability""]","right-left","[""pink"",""neonyellow""]","5","low nameability","41","right","iti",""
"html-button-response","201","187876","0.0-156.0","CAN_149","149","","","","","","597","","0","red","brown","[""red"",""brown"",""high nameability""]","right-left","[""brown"",""red""]","5","high nameability","42","right","trigger",""
"html-button-response","202","188462","0.0-157.0-0.0","CAN_149","149","","","","","","575","<button class=""jspsych-btn""><img src=""stimuli/red.png"" style=""width: 200px;height: 200px;""></button>","1","red","brown","[""red"",""brown"",""high nameability""]","right-left","[""brown"",""red""]","5","high nameability","42","right","response","1"
"html-audio-button-response","203","188670","0.0-157.0-1.0","CAN_149","149","","","","","","null","stimuli/bleep.m4a","null","red","brown","[""red"",""brown"",""high nameability""]","right-left","[""brown"",""red""]","5","high nameability","42","right","audio_feedback","1"
"html-button-response","204","189190","0.0-158.0","CAN_149","149","","","","","","null","<button class=""jspsych-btn""><img src=""stimuli/white_square.png"" style=""width: 200px;height: 200px;""></button>","null","red","brown","[""red"",""brown"",""high nameability""]","right-left","[""brown"",""red""]","5","high nameability","42","right","iti",""
"html-button-response","205","189719","0.0-159.0","CAN_149","149","","","","","","515","","0","red","blue","[""red"",""blue"",""high nameability""]","right-left","[""blue"",""red""]","5","high nameability","43","right","trigger",""
"html-button-response","206","190230","0.0-160.0-0.0","CAN_149","149","","","","","","502","<button class=""jspsych-btn""><img src=""stimuli/red.png"" style=""width: 200px;height: 200px;""></button>","1","red","blue","[""red"",""blue"",""high nameability""]","right-left","[""blue"",""red""]","5","high nameability","43","right","response","1"
"html-audio-button-response","207","190440","0.0-160.0-1.0","CAN_149","149","","","","","","null","stimuli/bleep.m4a","null","red","blue","[""red"",""blue"",""high nameability""]","right-left","[""blue"",""red""]","5","high nameability","43","right","audio_feedback","1"
"html-button-response","208","190952","0.0-161.0","CAN_149","149","","","","","","null","<button class=""jspsych-btn""><img src=""stimuli/white_square.png"" style=""width: 200px;height: 200px;""></button>","null","red","blue","[""red"",""blue"",""high nameability""]","right-left","[""blue"",""red""]","5","high nameability","43","right","iti",""
"html-button-response","209","191484","0.0-162.0","CAN_149","149","","","","","","528","","0","neonyellow","turquoise","[""neonyellow"",""turquoise"",""low nameability""]","right-left","[""turquoise"",""neonyellow""]","5","low nameability","44","right","trigger",""
"html-button-response","210","191983","0.0-163.0-0.0","CAN_149","149","","","","","","493","<button class=""jspsych-btn""><img src=""stimuli/neonyellow.png"" style=""width: 200px;height: 200px;""></button>","1","neonyellow","turquoise","[""neonyellow"",""turquoise"",""low nameability""]","right-left","[""turquoise"",""neonyellow""]","5","low nameability","44","right","response","1"
"html-audio-button-response","211","192189","0.0-163.0-1.0","CAN_149","149","","","","","","null","stimuli/bleep.m4a","null","neonyellow","turquoise","[""neonyellow"",""turquoise"",""low nameability""]","right-left","[""turquoise"",""neonyellow""]","5","low nameability","44","right","audio_feedback","1"
"html-button-response","212","192714","0.0-164.0","CAN_149","149","","","","","","null","<button class=""jspsych-btn""><img src=""stimuli/white_square.png"" style=""width: 200px;height: 200px;""></button>","null","neonyellow","turquoise","[""neonyellow"",""turquoise"",""low nameability""]","right-left","[""turquoise"",""neonyellow""]","5","low nameability","44","right","iti",""
"html-button-response","213","193172","0.0-165.0","CAN_149","149","","","","","","441","","0","turquoise","neonyellow","[""turquoise"",""neonyellow"",""low nameability""]","right-left","[""neonyellow"",""turquoise""]","5","low nameability","45","right","trigger",""
"html-button-response","214","193670","0.0-166.0-0.0","CAN_149","149","","","","","","489","<button class=""jspsych-btn""><img src=""stimuli/turquoise.png"" style=""width: 200px;height: 200px;""></button>","1","turquoise","neonyellow","[""turquoise"",""neonyellow"",""low nameability""]","right-left","[""neonyellow"",""turquoise""]","5","low nameability","45","right","response","1"
"html-audio-button-response","215","193878","0.0-166.0-1.0","CAN_149","149","","","","","","null","stimuli/bleep.m4a","null","turquoise","neonyellow","[""turquoise"",""neonyellow"",""low nameability""]","right-left","[""neonyellow"",""turquoise""]","5","low nameability","45","right","audio_feedback","1"
"html-button-response","216","194397","0.0-167.0","CAN_149","149","","","","","","null","<button class=""jspsych-btn""><img src=""stimuli/white_square.png"" style=""width: 200px;height: 200px;""></button>","null","turquoise","neonyellow","[""turquoise"",""neonyellow"",""low nameability""]","right-left","[""neonyellow"",""turquoise""]","5","low nameability","45","right","iti",""
"html-button-response","217","194857","0.0-168.0","CAN_149","149","","","","","","439","","0","purple","brown","[""purple"",""brown"",""high nameability""]","left-right","[""purple"",""brown"",""high nameability""]","5","high nameability","46","left","trigger",""
"html-button-response","218","195560","0.0-169.0-0.0","CAN_149","149","","","","","","694","<button class=""jspsych-btn""><img src=""stimuli/purple.png"" style=""width: 200px;height: 200px;""></button>","0","purple","brown","[""purple"",""brown"",""high nameability""]","left-right","[""purple"",""brown"",""high nameability""]","5","high nameability","46","left","response","1"
"html-audio-button-response","219","195768","0.0-169.0-1.0","CAN_149","149","","","","","","null","stimuli/bleep.m4a","null","purple","brown","[""purple"",""brown"",""high nameability""]","left-right","[""purple"",""brown"",""high nameability""]","5","high nameability","46","left","audio_feedback","1"
"html-button-response","220","196289","0.0-170.0","CAN_149","149","","","","","","null","<button class=""jspsych-btn""><img src=""stimuli/white_square.png"" style=""width: 200px;height: 200px;""></button>","null","purple","brown","[""purple"",""brown"",""high nameability""]","left-right","[""purple"",""brown"",""high nameability""]","5","high nameability","46","left","iti",""
"html-button-response","221","196832","0.0-171.0","CAN_149","149","","","","","","526","","0","darkgreenblue","pink","[""darkgreenblue"",""pink"",""low nameability""]","left-right","[""darkgreenblue"",""pink"",""low nameability""]","5","low nameability","47","left","trigger",""
"html-button-response","222","198091","0.0-172.0-0.0","CAN_149","149","","","","","","1250","<button class=""jspsych-btn""><img src=""stimuli/darkgreenblue.png"" style=""width: 200px;height: 200px;""></button>","0","darkgreenblue","pink","[""darkgreenblue"",""pink"",""low nameability""]","left-right","[""darkgreenblue"",""pink"",""low nameability""]","5","low nameability","47","left","response","1"
"html-audio-button-response","223","198298","0.0-172.0-1.0","CAN_149","149","","","","","","null","stimuli/bleep.m4a","null","darkgreenblue","pink","[""darkgreenblue"",""pink"",""low nameability""]","left-right","[""darkgreenblue"",""pink"",""low nameability""]","5","low nameability","47","left","audio_feedback","1"
"html-button-response","224","198814","0.0-173.0","CAN_149","149","","","","","","null","<button class=""jspsych-btn""><img src=""stimuli/white_square.png"" style=""width: 200px;height: 200px;""></button>","null","darkgreenblue","pink","[""darkgreenblue"",""pink"",""low nameability""]","left-right","[""darkgreenblue"",""pink"",""low nameability""]","5","low nameability","47","left","iti",""
"html-button-response","225","199256","0.0-174.0","CAN_149","149","","","","","","426","","0","blue","red","[""blue"",""red"",""high nameability""]","right-left","[""red"",""blue""]","5","high nameability","48","right","trigger",""
"html-button-response","226","199903","0.0-175.0-0.0","CAN_149","149","","","","","","636","<button class=""jspsych-btn""><img src=""stimuli/blue.png"" style=""width: 200px;height: 200px;""></button>","1","blue","red","[""blue"",""red"",""high nameability""]","right-left","[""red"",""blue""]","5","high nameability","48","right","response","1"
"html-audio-button-response","227","200122","0.0-175.0-1.0","CAN_149","149","","","","","","null","stimuli/bleep.m4a","null","blue","red","[""blue"",""red"",""high nameability""]","right-left","[""red"",""blue""]","5","high nameability","48","right","audio_feedback","1"
"html-button-response","228","200639","0.0-176.0","CAN_149","149","","","","","","null","<button class=""jspsych-btn""><img src=""stimuli/white_square.png"" style=""width: 200px;height: 200px;""></button>","null","blue","red","[""blue"",""red"",""high nameability""]","right-left","[""red"",""blue""]","5","high nameability","48","right","iti",""
"html-button-response","229","201216","0.0-177.0","CAN_149","149","","","","","","560","","0","red","purple","[""red"",""purple"",""high nameability""]","left-right","[""red"",""purple"",""high nameability""]","5","high nameability","49","left","trigger",""
"html-button-response","230","202476","0.0-178.0-0.0","CAN_149","149","","","","","","1251","<button class=""jspsych-btn""><img src=""stimuli/red.png"" style=""width: 200px;height: 200px;""></button>","0","red","purple","[""red"",""purple"",""high nameability""]","left-right","[""red"",""purple"",""high nameability""]","5","high nameability","49","left","response","1"
"html-audio-button-response","231","202685","0.0-178.0-1.0","CAN_149","149","","","","","","null","stimuli/bleep.m4a","null","red","purple","[""red"",""purple"",""high nameability""]","left-right","[""red"",""purple"",""high nameability""]","5","high nameability","49","left","audio_feedback","1"
"html-button-response","232","203207","0.0-179.0","CAN_149","149","","","","","","null","<button class=""jspsych-btn""><img src=""stimuli/white_square.png"" style=""width: 200px;height: 200px;""></button>","null","red","purple","[""red"",""purple"",""high nameability""]","left-right","[""red"",""purple"",""high nameability""]","5","high nameability","49","left","iti",""
"html-button-response","233","203662","0.0-180.0","CAN_149","149","","","","","","439","","0","purple","red","[""purple"",""red"",""high nameability""]","right-left","[""red"",""purple""]","5","high nameability","50","right","trigger",""
"html-button-response","234","204235","0.0-181.0-0.0","CAN_149","149","","","","","","565","<button class=""jspsych-btn""><img src=""stimuli/purple.png"" style=""width: 200px;height: 200px;""></button>","1","purple","red","[""purple"",""red"",""high nameability""]","right-left","[""red"",""purple""]","5","high nameability","50","right","response","1"
"html-audio-button-response","235","204438","0.0-181.0-1.0","CAN_149","149","","","","","","null","stimuli/bleep.m4a","null","purple","red","[""purple"",""red"",""high nameability""]","right-left","[""red"",""purple""]","5","high nameability","50","right","audio_feedback","1"
"html-button-response","236","204955","0.0-182.0","CAN_149","149","","","","","","null","<button class=""jspsych-btn""><img src=""stimuli/white_square.png"" style=""width: 200px;height: 200px;""></button>","null","purple","red","[""purple"",""red"",""high nameability""]","right-left","[""red"",""purple""]","5","high nameability","50","right","iti",""
"pavlovia","237","205055","0.0-183.0","CAN_149","149","","","","","","","","","","","","","","","","","","",""
"pavlovia","238","205063","0.0-184.0","CAN_149","149","","","","","","","","","","","","","","","","","","",""
"html-audio-button-response","239","207224","0.0-185.0","CAN_149","149","","","","","","2264","stimuli/tada.m4a","0","","","","","","","","","","",""
"html-button-response","240","207848","0.0-186.0","CAN_149","149","","","","","","617","","0","","","","","","","","","","",""
"html-button-response","241","208769","0.0-187.0","CAN_149","149","","","","","","911","","0","brown","orange","[""brown"",""orange"",""high nameability""]","left-right","[""brown"",""orange"",""high nameability""]","6","high nameability","51","left","trigger",""
"html-button-response","242","209503","0.0-188.0-0.0","CAN_149","149","","","","","","723","<button class=""jspsych-btn""><img src=""stimuli/brown.png"" style=""width: 200px;height: 200px;""></button>","0","brown","orange","[""brown"",""orange"",""high nameability""]","left-right","[""brown"",""orange"",""high nameability""]","6","high nameability","51","left","response","1"
"html-audio-button-response","243","209705","0.0-188.0-1.0","CAN_149","149","","","","","","null","stimuli/bleep.m4a","null","brown","orange","[""brown"",""orange"",""high nameability""]","left-right","[""brown"",""orange"",""high nameability""]","6","high nameability","51","left","audio_feedback","1"
"html-button-response","244","210220","0.0-189.0","CAN_149","149","","","","","","null","<button class=""jspsych-btn""><img src=""stimuli/white_square.png"" style=""width: 200px;height: 200px;""></button>","null","brown","orange","[""brown"",""orange"",""high nameability""]","left-right","[""brown"",""orange"",""high nameability""]","6","high nameability","51","left","iti",""
"html-button-response","245","210787","0.0-190.0","CAN_149","149","","","","","","538","","0","turquoise","lightred","[""turquoise"",""lightred"",""low nameability""]","left-right","[""turquoise"",""lightred"",""low nameability""]","6","low nameability","52","left","trigger",""
"html-button-response","246","211427","0.0-191.0-0.0","CAN_149","149","","","","","","631","<button class=""jspsych-btn""><img src=""stimuli/turquoise.png"" style=""width: 200px;height: 200px;""></button>","0","turquoise","lightred","[""turquoise"",""lightred"",""low nameability""]","left-right","[""turquoise"",""lightred"",""low nameability""]","6","low nameability","52","left","response","1"
"html-audio-button-response","247","211634","0.0-191.0-1.0","CAN_149","149","","","","","","null","stimuli/bleep.m4a","null","turquoise","lightred","[""turquoise"",""lightred"",""low nameability""]","left-right","[""turquoise"",""lightred"",""low nameability""]","6","low nameability","52","left","audio_feedback","1"
"html-button-response","248","212155","0.0-192.0","CAN_149","149","","","","","","null","<button class=""jspsych-btn""><img src=""stimuli/white_square.png"" style=""width: 200px;height: 200px;""></button>","null","turquoise","lightred","[""turquoise"",""lightred"",""low nameability""]","left-right","[""turquoise"",""lightred"",""low nameability""]","6","low nameability","52","left","iti",""
"html-button-response","249","212707","0.0-193.0","CAN_149","149","","","","","","535","","0","pink","mustard","[""pink"",""mustard"",""low nameability""]","right-left","[""mustard"",""pink""]","6","low nameability","53","right","trigger",""
"html-button-response","250","213397","0.0-194.0-0.0","CAN_149","149","","","","","","682","<button class=""jspsych-btn""><img src=""stimuli/pink.png"" style=""width: 200px;height: 200px;""></button>","1","pink","mustard","[""pink"",""mustard"",""low nameability""]","right-left","[""mustard"",""pink""]","6","low nameability","53","right","response","1"
"html-audio-button-response","251","213601","0.0-194.0-1.0","CAN_149","149","","","","","","null","stimuli/bleep.m4a","null","pink","mustard","[""pink"",""mustard"",""low nameability""]","right-left","[""mustard"",""pink""]","6","low nameability","53","right","audio_feedback","1"
"html-button-response","252","214126","0.0-195.0","CAN_149","149","","","","","","null","<button class=""jspsych-btn""><img src=""stimuli/white_square.png"" style=""width: 200px;height: 200px;""></button>","null","pink","mustard","[""pink"",""mustard"",""low nameability""]","right-left","[""mustard"",""pink""]","6","low nameability","53","right","iti",""
"html-button-response","253","214694","0.0-196.0","CAN_149","149","","","","","","550","","0","lightred","mustard","[""lightred"",""mustard"",""low nameability""]","right-left","[""mustard"",""lightred""]","6","low nameability","54","right","trigger",""
"html-button-response","254","215268","0.0-197.0-0.0","CAN_149","149","","","","","","562","<button class=""jspsych-btn""><img src=""stimuli/lightred.png"" style=""width: 200px;height: 200px;""></button>","1","lightred","mustard","[""lightred"",""mustard"",""low nameability""]","right-left","[""mustard"",""lightred""]","6","low nameability","54","right","response","1"
"html-audio-button-response","255","215478","0.0-197.0-1.0","CAN_149","149","","","","","","null","stimuli/bleep.m4a","null","lightred","mustard","[""lightred"",""mustard"",""low nameability""]","right-left","[""mustard"",""lightred""]","6","low nameability","54","right","audio_feedback","1"
"html-button-response","256","216001","0.0-198.0","CAN_149","149","","","","","","null","<button class=""jspsych-btn""><img src=""stimuli/white_square.png"" style=""width: 200px;height: 200px;""></button>","null","lightred","mustard","[""lightred"",""mustard"",""low nameability""]","right-left","[""mustard"",""lightred""]","6","low nameability","54","right","iti",""
"html-button-response","257","216480","0.0-199.0","CAN_149","149","","","","","","459","","0","yellow","blue","[""yellow"",""blue"",""high nameability""]","left-right","[""yellow"",""blue"",""high nameability""]","6","high nameability","55","left","trigger",""
"html-button-response","258","218202","0.0-200.0-0.0","CAN_149","149","","","","","","1712","<button class=""jspsych-btn""><img src=""stimuli/yellow.png"" style=""width: 200px;height: 200px;""></button>","0","yellow","blue","[""yellow"",""blue"",""high nameability""]","left-right","[""yellow"",""blue"",""high nameability""]","6","high nameability","55","left","response","1"
"html-audio-button-response","259","218406","0.0-200.0-1.0","CAN_149","149","","","","","","null","stimuli/bleep.m4a","null","yellow","blue","[""yellow"",""blue"",""high nameability""]","left-right","[""yellow"",""blue"",""high nameability""]","6","high nameability","55","left","audio_feedback","1"
"html-button-response","260","218929","0.0-201.0","CAN_149","149","","","","","","null","<button class=""jspsych-btn""><img src=""stimuli/white_square.png"" style=""width: 200px;height: 200px;""></button>","null","yellow","blue","[""yellow"",""blue"",""high nameability""]","left-right","[""yellow"",""blue"",""high nameability""]","6","high nameability","55","left","iti",""
"html-button-response","261","219214","0.0-202.0","CAN_149","149","","","","","","254","","0","blue","purple","[""blue"",""purple"",""high nameability""]","left-right","[""blue"",""purple"",""high nameability""]","6","high nameability","56","left","trigger",""
"html-button-response","262","219974","0.0-203.0-0.0","CAN_149","149","","","","","","745","<button class=""jspsych-btn""><img src=""stimuli/blue.png"" style=""width: 200px;height: 200px;""></button>","0","blue","purple","[""blue"",""purple"",""high nameability""]","left-right","[""blue"",""purple"",""high nameability""]","6","high nameability","56","left","response","1"
"html-audio-button-response","263","220176","0.0-203.0-1.0","CAN_149","149","","","","","","null","stimuli/bleep.m4a","null","blue","purple","[""blue"",""purple"",""high nameability""]","left-right","[""blue"",""purple"",""high nameability""]","6","high nameability","56","left","audio_feedback","1"
"html-button-response","264","220692","0.0-204.0","CAN_149","149","","","","","","null","<button class=""jspsych-btn""><img src=""stimuli/white_square.png"" style=""width: 200px;height: 200px;""></button>","null","blue","purple","[""blue"",""purple"",""high nameability""]","left-right","[""blue"",""purple"",""high nameability""]","6","high nameability","56","left","iti",""
"html-button-response","265","221056","0.0-205.0","CAN_149","149","","","","","","341","","0","orange","blue","[""orange"",""blue"",""high nameability""]","left-right","[""orange"",""blue"",""high nameability""]","6","high nameability","57","left","trigger",""
"html-button-response","266","221763","0.0-206.0-0.0","CAN_149","149","","","","","","696","<button class=""jspsych-btn""><img src=""stimuli/orange.png"" style=""width: 200px;height: 200px;""></button>","0","orange","blue","[""orange"",""blue"",""high nameability""]","left-right","[""orange"",""blue"",""high nameability""]","6","high nameability","57","left","response","1"
"html-audio-button-response","267","221974","0.0-206.0-1.0","CAN_149","149","","","","","","null","stimuli/bleep.m4a","null","orange","blue","[""orange"",""blue"",""high nameability""]","left-right","[""orange"",""blue"",""high nameability""]","6","high nameability","57","left","audio_feedback","1"
"html-button-response","268","222498","0.0-207.0","CAN_149","149","","","","","","null","<button class=""jspsych-btn""><img src=""stimuli/white_square.png"" style=""width: 200px;height: 200px;""></button>","null","orange","blue","[""orange"",""blue"",""high nameability""]","left-right","[""orange"",""blue"",""high nameability""]","6","high nameability","57","left","iti",""
"html-button-response","269","222924","0.0-208.0","CAN_149","149","","","","","","409","","0","blue","brown","[""blue"",""brown"",""high nameability""]","right-left","[""brown"",""blue""]","6","high nameability","58","right","trigger",""
"html-button-response","270","223625","0.0-209.0-0.0","CAN_149","149","","","","","","683","<button class=""jspsych-btn""><img src=""stimuli/blue.png"" style=""width: 200px;height: 200px;""></button>","1","blue","brown","[""blue"",""brown"",""high nameability""]","right-left","[""brown"",""blue""]","6","high nameability","58","right","response","1"
"html-audio-button-response","271","223862","0.0-209.0-1.0","CAN_149","149","","","","","","null","stimuli/bleep.m4a","null","blue","brown","[""blue"",""brown"",""high nameability""]","right-left","[""brown"",""blue""]","6","high nameability","58","right","audio_feedback","1"
"html-button-response","272","224405","0.0-210.0","CAN_149","149","","","","","","null","<button class=""jspsych-btn""><img src=""stimuli/white_square.png"" style=""width: 200px;height: 200px;""></button>","null","blue","brown","[""blue"",""brown"",""high nameability""]","right-left","[""brown"",""blue""]","6","high nameability","58","right","iti",""
"html-button-response","273","224877","0.0-211.0","CAN_149","149","","","","","","435","","0","orange","red","[""orange"",""red"",""high nameability""]","right-left","[""red"",""orange""]","6","high nameability","59","right","trigger",""
"html-button-response","274","225492","0.0-212.0-0.0","CAN_149","149","","","","","","605","<button class=""jspsych-btn""><img src=""stimuli/orange.png"" style=""width: 200px;height: 200px;""></button>","1","orange","red","[""orange"",""red"",""high nameability""]","right-left","[""red"",""orange""]","6","high nameability","59","right","response","1"
"html-audio-button-response","275","225709","0.0-212.0-1.0","CAN_149","149","","","","","","null","stimuli/bleep.m4a","null","orange","red","[""orange"",""red"",""high nameability""]","right-left","[""red"",""orange""]","6","high nameability","59","right","audio_feedback","1"
"html-button-response","276","226232","0.0-213.0","CAN_149","149","","","","","","null","<button class=""jspsych-btn""><img src=""stimuli/white_square.png"" style=""width: 200px;height: 200px;""></button>","null","orange","red","[""orange"",""red"",""high nameability""]","right-left","[""red"",""orange""]","6","high nameability","59","right","iti",""
"html-button-response","277","226744","0.0-214.0","CAN_149","149","","","","","","496","","0","neonyellow","darkgreenblue","[""neonyellow"",""darkgreenblue"",""low nameability""]","left-right","[""neonyellow"",""darkgreenblue"",""low nameability""]","6","low nameability","60","left","trigger",""
"html-button-response","278","227466","0.0-215.0-0.0","CAN_149","149","","","","","","710","<button class=""jspsych-btn""><img src=""stimuli/neonyellow.png"" style=""width: 200px;height: 200px;""></button>","0","neonyellow","darkgreenblue","[""neonyellow"",""darkgreenblue"",""low nameability""]","left-right","[""neonyellow"",""darkgreenblue"",""low nameability""]","6","low nameability","60","left","response","1"
"html-audio-button-response","279","227688","0.0-215.0-1.0","CAN_149","149","","","","","","null","stimuli/bleep.m4a","null","neonyellow","darkgreenblue","[""neonyellow"",""darkgreenblue"",""low nameability""]","left-right","[""neonyellow"",""darkgreenblue"",""low nameability""]","6","low nameability","60","left","audio_feedback","1"
"html-button-response","280","228234","0.0-216.0","CAN_149","149","","","","","","null","<button class=""jspsych-btn""><img src=""stimuli/white_square.png"" style=""width: 200px;height: 200px;""></button>","null","neonyellow","darkgreenblue","[""neonyellow"",""darkgreenblue"",""low nameability""]","left-right","[""neonyellow"",""darkgreenblue"",""low nameability""]","6","low nameability","60","left","iti",""
