"trial_type","trial_index","time_elapsed","internal_node_id","subject_id","seed","success","timeout","failed_images","failed_audio","failed_video","rt","stimulus","response","target","foil","choices","combination_order","choices_in_order","round","condition","trial_counter","target_location","trial_kind","correct"
"pavlovia","0","21","0.0-0.0","CAN_144","144","","","","","","","","","","","","","","","","","","",""
"preload","1","1195","0.0-1.0","CAN_144","144","true","false","[]","[]","[]","","","","","","","","","","","","","",""
"fullscreen","2","3703","0.0-2.0","CAN_144","144","true","","","","","","","","","","","","","","","","","",""
"html-button-response","3","931816","0.0-3.0","CAN_144","144","","","","","","928094","","0","","","","","","","","","","",""
"html-button-response","4","941246","0.0-4.0","CAN_144","144","","","","","","9407","","0","star","square","[""square"",""star""]","left-right","[""square"",""star""]","1","practice","1","right","trigger",""
"html-button-response","5","945843","0.0-5.0-0.0","CAN_144","144","","","","","","4571","<button class=""jspsych-btn""><img src=""stimuli/star.png"" style=""width: 200px;height: 200px;""></button>","1","star","square","[""square"",""star""]","left-right","[""square"",""star""]","1","practice","1","right","response","1"
"html-audio-button-response","6","946075","0.0-5.0-1.0","CAN_144","144","","","","","","null","stimuli/bleep.m4a","null","star","square","[""square"",""star""]","left-right","[""square"",""star""]","1","practice","1","right","audio_feedback","1"
"html-button-response","7","946590","0.0-6.0","CAN_144","144","","","","","","null","<button class=""jspsych-btn""><img src=""stimuli/white_square.png"" style=""width: 200px;height: 200px;""></button>","null","star","square","[""square"",""star""]","left-right","[""square"",""star""]","1","practice","1","right","iti",""
"html-button-response","8","948252","0.0-7.0","CAN_144","144","","","","","","1652","","0","triangle","pentagram","[""triangle"",""pentagram""]","left-right","[""triangle"",""pentagram""]","1","practice","1","left","trigger",""
"html-button-response","9","949374","0.0-8.0-0.0","CAN_144","144","","","","","","1105","<button class=""jspsych-btn""><img src=""stimuli/triangle.png"" style=""width: 200px;height: 200px;""></button>","0","triangle","pentagram","[""triangle"",""pentagram""]","left-right","[""triangle"",""pentagram""]","1","practice","1","left","response","1"
"html-audio-button-response","10","949604","0.0-8.0-1.0","CAN_144","144","","","","","","null","stimuli/bleep.m4a","null","triangle","pentagram","[""triangle"",""pentagram""]","left-right","[""triangle"",""pentagram""]","1","practice","1","left","audio_feedback","1"
"html-button-response","11","950142","0.0-9.0","CAN_144","144","","","","","","null","<button class=""jspsych-btn""><img src=""stimuli/white_square.png"" style=""width: 200px;height: 200px;""></button>","null","triangle","pentagram","[""triangle"",""pentagram""]","left-right","[""triangle"",""pentagram""]","1","practice","1","left","iti",""
"html-button-response","12","950982","0.0-10.0","CAN_144","144","","","","","","819","","0","diamond","rectangle","[""rectangle"",""diamond""]","left-right","[""rectangle"",""diamond""]","1","practice","1","right","trigger",""
"html-button-response","13","952006","0.0-11.0-0.0","CAN_144","144","","","","","","1010","<button class=""jspsych-btn""><img src=""stimuli/diamond.png"" style=""width: 200px;height: 200px;""></button>","1","diamond","rectangle","[""rectangle"",""diamond""]","left-right","[""rectangle"",""diamond""]","1","practice","1","right","response","1"
"html-audio-button-response","14","952228","0.0-11.0-1.0","CAN_144","144","","","","","","null","stimuli/bleep.m4a","null","diamond","rectangle","[""rectangle"",""diamond""]","left-right","[""rectangle"",""diamond""]","1","practice","1","right","audio_feedback","1"
"html-button-response","15","952767","0.0-12.0","CAN_144","144","","","","","","null","<button class=""jspsych-btn""><img src=""stimuli/white_square.png"" style=""width: 200px;height: 200px;""></button>","null","diamond","rectangle","[""rectangle"",""diamond""]","left-right","[""rectangle"",""diamond""]","1","practice","1","right","iti",""
"html-button-response","16","953566","0.0-13.0","CAN_144","144","","","","","","778","","0","pentagram","star","[""pentagram"",""star""]","left-right","[""pentagram"",""star""]","1","practice","1","left","trigger",""
"html-button-response","17","954603","0.0-14.0-0.0","CAN_144","144","","","","","","1024","<button class=""jspsych-btn""><img src=""stimuli/pentagram.png"" style=""width: 200px;height: 200px;""></button>","0","pentagram","star","[""pentagram"",""star""]","left-right","[""pentagram"",""star""]","1","practice","1","left","response","1"
"html-audio-button-response","18","954817","0.0-14.0-1.0","CAN_144","144","","","","","","null","stimuli/bleep.m4a","null","pentagram","star","[""pentagram"",""star""]","left-right","[""pentagram"",""star""]","1","practice","1","left","audio_feedback","1"
"html-button-response","19","955355","0.0-15.0","CAN_144","144","","","","","","null","<button class=""jspsych-btn""><img src=""stimuli/white_square.png"" style=""width: 200px;height: 200px;""></button>","null","pentagram","star","[""pentagram"",""star""]","left-right","[""pentagram"",""star""]","1","practice","1","left","iti",""
"html-button-response","20","970281","0.0-16.0","CAN_144","144","","","","","","14916","","0","","","","","","","","","","",""
"html-button-response","21","971372","0.0-17.0","CAN_144","144","","","","","","1070","","0","purple","yellow","[""purple"",""yellow"",""high nameability""]","left-right","[""purple"",""yellow"",""high nameability""]","1","high nameability","1","left","trigger",""
"html-button-response","22","972379","0.0-18.0-0.0","CAN_144","144","","","","","","983","<button class=""jspsych-btn""><img src=""stimuli/purple.png"" style=""width: 200px;height: 200px;""></button>","0","purple","yellow","[""purple"",""yellow"",""high nameability""]","left-right","[""purple"",""yellow"",""high nameability""]","1","high nameability","1","left","response","1"
"html-audio-button-response","23","972596","0.0-18.0-1.0","CAN_144","144","","","","","","null","stimuli/bleep.m4a","null","purple","yellow","[""purple"",""yellow"",""high nameability""]","left-right","[""purple"",""yellow"",""high nameability""]","1","high nameability","1","left","audio_feedback","1"
"html-button-response","24","973125","0.0-19.0","CAN_144","144","","","","","","null","<button class=""jspsych-btn""><img src=""stimuli/white_square.png"" style=""width: 200px;height: 200px;""></button>","null","purple","yellow","[""purple"",""yellow"",""high nameability""]","left-right","[""purple"",""yellow"",""high nameability""]","1","high nameability","1","left","iti",""
"html-button-response","25","973865","0.0-20.0","CAN_144","144","","","","","","725","","0","darkgreenblue","turquoise","[""darkgreenblue"",""turquoise"",""low nameability""]","right-left","[""turquoise"",""darkgreenblue""]","1","low nameability","2","right","trigger",""
"html-button-response","26","974820","0.0-21.0-0.0","CAN_144","144","","","","","","945","<button class=""jspsych-btn""><img src=""stimuli/darkgreenblue.png"" style=""width: 200px;height: 200px;""></button>","1","darkgreenblue","turquoise","[""darkgreenblue"",""turquoise"",""low nameability""]","right-left","[""turquoise"",""darkgreenblue""]","1","low nameability","2","right","response","1"
"html-audio-button-response","27","975035","0.0-21.0-1.0","CAN_144","144","","","","","","null","stimuli/bleep.m4a","null","darkgreenblue","turquoise","[""darkgreenblue"",""turquoise"",""low nameability""]","right-left","[""turquoise"",""darkgreenblue""]","1","low nameability","2","right","audio_feedback","1"
"html-button-response","28","975562","0.0-22.0","CAN_144","144","","","","","","null","<button class=""jspsych-btn""><img src=""stimuli/white_square.png"" style=""width: 200px;height: 200px;""></button>","null","darkgreenblue","turquoise","[""darkgreenblue"",""turquoise"",""low nameability""]","right-left","[""turquoise"",""darkgreenblue""]","1","low nameability","2","right","iti",""
"html-button-response","29","976322","0.0-23.0","CAN_144","144","","","","","","743","","0","pink","lightred","[""pink"",""lightred"",""low nameability""]","right-left","[""lightred"",""pink""]","1","low nameability","3","right","trigger",""
"html-button-response","30","977221","0.0-24.0-0.0","CAN_144","144","","","","","","889","<button class=""jspsych-btn""><img src=""stimuli/pink.png"" style=""width: 200px;height: 200px;""></button>","1","pink","lightred","[""pink"",""lightred"",""low nameability""]","right-left","[""lightred"",""pink""]","1","low nameability","3","right","response","1"
"html-audio-button-response","31","977433","0.0-24.0-1.0","CAN_144","144","","","","","","null","stimuli/bleep.m4a","null","pink","lightred","[""pink"",""lightred"",""low nameability""]","right-left","[""lightred"",""pink""]","1","low nameability","3","right","audio_feedback","1"
"html-button-response","32","977962","0.0-25.0","CAN_144","144","","","","","","null","<button class=""jspsych-btn""><img src=""stimuli/white_square.png"" style=""width: 200px;height: 200px;""></button>","null","pink","lightred","[""pink"",""lightred"",""low nameability""]","right-left","[""lightred"",""pink""]","1","low nameability","3","right","iti",""
"html-button-response","33","978759","0.0-26.0","CAN_144","144","","","","","","767","","0","brown","red","[""brown"",""red"",""high nameability""]","right-left","[""red"",""brown""]","1","high nameability","4","right","trigger",""
"html-button-response","34","979666","0.0-27.0-0.0","CAN_144","144","","","","","","896","<button class=""jspsych-btn""><img src=""stimuli/brown.png"" style=""width: 200px;height: 200px;""></button>","1","brown","red","[""brown"",""red"",""high nameability""]","right-left","[""red"",""brown""]","1","high nameability","4","right","response","1"
"html-audio-button-response","35","979874","0.0-27.0-1.0","CAN_144","144","","","","","","null","stimuli/bleep.m4a","null","brown","red","[""brown"",""red"",""high nameability""]","right-left","[""red"",""brown""]","1","high nameability","4","right","audio_feedback","1"
"html-button-response","36","980402","0.0-28.0","CAN_144","144","","","","","","null","<button class=""jspsych-btn""><img src=""stimuli/white_square.png"" style=""width: 200px;height: 200px;""></button>","null","brown","red","[""brown"",""red"",""high nameability""]","right-left","[""red"",""brown""]","1","high nameability","4","right","iti",""
"html-button-response","37","981122","0.0-29.0","CAN_144","144","","","","","","702","","0","lightred","pink","[""lightred"",""pink"",""low nameability""]","left-right","[""lightred"",""pink"",""low nameability""]","1","low nameability","5","left","trigger",""
"html-button-response","38","982061","0.0-30.0-0.0","CAN_144","144","","","","","","927","<button class=""jspsych-btn""><img src=""stimuli/lightred.png"" style=""width: 200px;height: 200px;""></button>","0","lightred","pink","[""lightred"",""pink"",""low nameability""]","left-right","[""lightred"",""pink"",""low nameability""]","1","low nameability","5","left","response","1"
"html-audio-button-response","39","982275","0.0-30.0-1.0","CAN_144","144","","","","","","null","stimuli/bleep.m4a","null","lightred","pink","[""lightred"",""pink"",""low nameability""]","left-right","[""lightred"",""pink"",""low nameability""]","1","low nameability","5","left","audio_feedback","1"
"html-button-response","40","982788","0.0-31.0","CAN_144","144","","","","","","null","<button class=""jspsych-btn""><img src=""stimuli/white_square.png"" style=""width: 200px;height: 200px;""></button>","null","lightred","pink","[""lightred"",""pink"",""low nameability""]","left-right","[""lightred"",""pink"",""low nameability""]","1","low nameability","5","left","iti",""
"html-button-response","41","983620","0.0-32.0","CAN_144","144","","","","","","811","","0","pink","neonyellow","[""pink"",""neonyellow"",""low nameability""]","right-left","[""neonyellow"",""pink""]","1","low nameability","6","right","trigger",""
"html-button-response","42","984511","0.0-33.0-0.0","CAN_144","144","","","","","","880","<button class=""jspsych-btn""><img src=""stimuli/pink.png"" style=""width: 200px;height: 200px;""></button>","1","pink","neonyellow","[""pink"",""neonyellow"",""low nameability""]","right-left","[""neonyellow"",""pink""]","1","low nameability","6","right","response","1"
"html-audio-button-response","43","984725","0.0-33.0-1.0","CAN_144","144","","","","","","null","stimuli/bleep.m4a","null","pink","neonyellow","[""pink"",""neonyellow"",""low nameability""]","right-left","[""neonyellow"",""pink""]","1","low nameability","6","right","audio_feedback","1"
"html-button-response","44","985245","0.0-34.0","CAN_144","144","","","","","","null","<button class=""jspsych-btn""><img src=""stimuli/white_square.png"" style=""width: 200px;height: 200px;""></button>","null","pink","neonyellow","[""pink"",""neonyellow"",""low nameability""]","right-left","[""neonyellow"",""pink""]","1","low nameability","6","right","iti",""
"html-button-response","45","985968","0.0-35.0","CAN_144","144","","","","","","698","","0","yellow","red","[""yellow"",""red"",""high nameability""]","left-right","[""yellow"",""red"",""high nameability""]","1","high nameability","7","left","trigger",""
"html-button-response","46","986899","0.0-36.0-0.0","CAN_144","144","","","","","","921","<button class=""jspsych-btn""><img src=""stimuli/yellow.png"" style=""width: 200px;height: 200px;""></button>","0","yellow","red","[""yellow"",""red"",""high nameability""]","left-right","[""yellow"",""red"",""high nameability""]","1","high nameability","7","left","response","1"
"html-audio-button-response","47","987119","0.0-36.0-1.0","CAN_144","144","","","","","","null","stimuli/bleep.m4a","null","yellow","red","[""yellow"",""red"",""high nameability""]","left-right","[""yellow"",""red"",""high nameability""]","1","high nameability","7","left","audio_feedback","1"
"html-button-response","48","987658","0.0-37.0","CAN_144","144","","","","","","null","<button class=""jspsych-btn""><img src=""stimuli/white_square.png"" style=""width: 200px;height: 200px;""></button>","null","yellow","red","[""yellow"",""red"",""high nameability""]","left-right","[""yellow"",""red"",""high nameability""]","1","high nameability","7","left","iti",""
"html-button-response","49","988503","0.0-38.0","CAN_144","144","","","","","","829","","0","purple","blue","[""purple"",""blue"",""high nameability""]","left-right","[""purple"",""blue"",""high nameability""]","1","high nameability","8","left","trigger",""
"html-button-response","50","989480","0.0-39.0-0.0","CAN_144","144","","","","","","966","<button class=""jspsych-btn""><img src=""stimuli/purple.png"" style=""width: 200px;height: 200px;""></button>","0","purple","blue","[""purple"",""blue"",""high nameability""]","left-right","[""purple"",""blue"",""high nameability""]","1","high nameability","8","left","response","1"
"html-audio-button-response","51","989692","0.0-39.0-1.0","CAN_144","144","","","","","","null","stimuli/bleep.m4a","null","purple","blue","[""purple"",""blue"",""high nameability""]","left-right","[""purple"",""blue"",""high nameability""]","1","high nameability","8","left","audio_feedback","1"
"html-button-response","52","990238","0.0-40.0","CAN_144","144","","","","","","null","<button class=""jspsych-btn""><img src=""stimuli/white_square.png"" style=""width: 200px;height: 200px;""></button>","null","purple","blue","[""purple"",""blue"",""high nameability""]","left-right","[""purple"",""blue"",""high nameability""]","1","high nameability","8","left","iti",""
"html-button-response","53","991029","0.0-41.0","CAN_144","144","","","","","","764","","0","mustard","lightred","[""mustard"",""lightred"",""low nameability""]","right-left","[""lightred"",""mustard""]","1","low nameability","9","right","trigger",""
"html-button-response","54","991940","0.0-42.0-0.0","CAN_144","144","","","","","","901","<button class=""jspsych-btn""><img src=""stimuli/mustard.png"" style=""width: 200px;height: 200px;""></button>","1","mustard","lightred","[""mustard"",""lightred"",""low nameability""]","right-left","[""lightred"",""mustard""]","1","low nameability","9","right","response","1"
"html-audio-button-response","55","992160","0.0-42.0-1.0","CAN_144","144","","","","","","null","stimuli/bleep.m4a","null","mustard","lightred","[""mustard"",""lightred"",""low nameability""]","right-left","[""lightred"",""mustard""]","1","low nameability","9","right","audio_feedback","1"
"html-button-response","56","992689","0.0-43.0","CAN_144","144","","","","","","null","<button class=""jspsych-btn""><img src=""stimuli/white_square.png"" style=""width: 200px;height: 200px;""></button>","null","mustard","lightred","[""mustard"",""lightred"",""low nameability""]","right-left","[""lightred"",""mustard""]","1","low nameability","9","right","iti",""
"html-button-response","57","993507","0.0-44.0","CAN_144","144","","","","","","800","","0","blue","purple","[""blue"",""purple"",""high nameability""]","left-right","[""blue"",""purple"",""high nameability""]","1","high nameability","10","left","trigger",""
"html-button-response","58","994443","0.0-45.0-0.0","CAN_144","144","","","","","","926","<button class=""jspsych-btn""><img src=""stimuli/blue.png"" style=""width: 200px;height: 200px;""></button>","0","blue","purple","[""blue"",""purple"",""high nameability""]","left-right","[""blue"",""purple"",""high nameability""]","1","high nameability","10","left","response","1"
"html-audio-button-response","59","994655","0.0-45.0-1.0","CAN_144","144","","","","","","null","stimuli/bleep.m4a","null","blue","purple","[""blue"",""purple"",""high nameability""]","left-right","[""blue"",""purple"",""high nameability""]","1","high nameability","10","left","audio_feedback","1"
"html-button-response","60","995178","0.0-46.0","CAN_144","144","","","","","","null","<button class=""jspsych-btn""><img src=""stimuli/white_square.png"" style=""width: 200px;height: 200px;""></button>","null","blue","purple","[""blue"",""purple"",""high nameability""]","left-right","[""blue"",""purple"",""high nameability""]","1","high nameability","10","left","iti",""
"pavlovia","61","995261","0.0-47.0","CAN_144","144","","","","","","","","","","","","","","","","","","",""
"pavlovia","62","995275","0.0-48.0","CAN_144","144","","","","","","","","","","","","","","","","","","",""
"html-audio-button-response","63","998681","0.0-49.0","CAN_144","144","","","","","","3496","stimuli/tada.m4a","0","","","","","","","","","","",""
"html-button-response","64","1001211","0.0-50.0","CAN_144","144","","","","","","2522","","0","","","","","","","","","","",""
"html-button-response","65","1002033","0.0-51.0","CAN_144","144","","","","","","809","","0","darkgreenblue","pink","[""darkgreenblue"",""pink"",""low nameability""]","left-right","[""darkgreenblue"",""pink"",""low nameability""]","2","low nameability","11","left","trigger",""
"html-button-response","66","1002990","0.0-52.0-0.0","CAN_144","144","","","","","","944","<button class=""jspsych-btn""><img src=""stimuli/darkgreenblue.png"" style=""width: 200px;height: 200px;""></button>","0","darkgreenblue","pink","[""darkgreenblue"",""pink"",""low nameability""]","left-right","[""darkgreenblue"",""pink"",""low nameability""]","2","low nameability","11","left","response","1"
"html-audio-button-response","67","1003199","0.0-52.0-1.0","CAN_144","144","","","","","","null","stimuli/bleep.m4a","null","darkgreenblue","pink","[""darkgreenblue"",""pink"",""low nameability""]","left-right","[""darkgreenblue"",""pink"",""low nameability""]","2","low nameability","11","left","audio_feedback","1"
"html-button-response","68","1003712","0.0-53.0","CAN_144","144","","","","","","null","<button class=""jspsych-btn""><img src=""stimuli/white_square.png"" style=""width: 200px;height: 200px;""></button>","null","darkgreenblue","pink","[""darkgreenblue"",""pink"",""low nameability""]","left-right","[""darkgreenblue"",""pink"",""low nameability""]","2","low nameability","11","left","iti",""
"html-button-response","69","1004606","0.0-54.0","CAN_144","144","","","","","","875","","0","darkgreenblue","neonyellow","[""darkgreenblue"",""neonyellow"",""low nameability""]","left-right","[""darkgreenblue"",""neonyellow"",""low nameability""]","2","low nameability","12","left","trigger",""
"html-button-response","70","1005529","0.0-55.0-0.0","CAN_144","144","","","","","","911","<button class=""jspsych-btn""><img src=""stimuli/darkgreenblue.png"" style=""width: 200px;height: 200px;""></button>","0","darkgreenblue","neonyellow","[""darkgreenblue"",""neonyellow"",""low nameability""]","left-right","[""darkgreenblue"",""neonyellow"",""low nameability""]","2","low nameability","12","left","response","1"
"html-audio-button-response","71","1005751","0.0-55.0-1.0","CAN_144","144","","","","","","null","stimuli/bleep.m4a","null","darkgreenblue","neonyellow","[""darkgreenblue"",""neonyellow"",""low nameability""]","left-right","[""darkgreenblue"",""neonyellow"",""low nameability""]","2","low nameability","12","left","audio_feedback","1"
"html-button-response","72","1006285","0.0-56.0","CAN_144","144","","","","","","null","<button class=""jspsych-btn""><img src=""stimuli/white_square.png"" style=""width: 200px;height: 200px;""></button>","null","darkgreenblue","neonyellow","[""darkgreenblue"",""neonyellow"",""low nameability""]","left-right","[""darkgreenblue"",""neonyellow"",""low nameability""]","2","low nameability","12","left","iti",""
"html-button-response","73","1007052","0.0-57.0","CAN_144","144","","","","","","746","","0","orange","purple","[""orange"",""purple"",""high nameability""]","left-right","[""orange"",""purple"",""high nameability""]","2","high nameability","13","left","trigger",""
"html-button-response","74","1007937","0.0-58.0-0.0","CAN_144","144","","","","","","876","<button class=""jspsych-btn""><img src=""stimuli/orange.png"" style=""width: 200px;height: 200px;""></button>","0","orange","purple","[""orange"",""purple"",""high nameability""]","left-right","[""orange"",""purple"",""high nameability""]","2","high nameability","13","left","response","1"
"html-audio-button-response","75","1008148","0.0-58.0-1.0","CAN_144","144","","","","","","null","stimuli/bleep.m4a","null","orange","purple","[""orange"",""purple"",""high nameability""]","left-right","[""orange"",""purple"",""high nameability""]","2","high nameability","13","left","audio_feedback","1"
"html-button-response","76","1008676","0.0-59.0","CAN_144","144","","","","","","null","<button class=""jspsych-btn""><img src=""stimuli/white_square.png"" style=""width: 200px;height: 200px;""></button>","null","orange","purple","[""orange"",""purple"",""high nameability""]","left-right","[""orange"",""purple"",""high nameability""]","2","high nameability","13","left","iti",""
"html-button-response","77","1009388","0.0-60.0","CAN_144","144","","","","","","696","","0","yellow","brown","[""yellow"",""brown"",""high nameability""]","right-left","[""brown"",""yellow""]","2","high nameability","14","right","trigger",""
"html-button-response","78","1011333","0.0-61.0-0.0","CAN_144","144","","","","","","1936","<button class=""jspsych-btn""><img src=""stimuli/yellow.png"" style=""width: 200px;height: 200px;""></button>","1","yellow","brown","[""yellow"",""brown"",""high nameability""]","right-left","[""brown"",""yellow""]","2","high nameability","14","right","response","1"
"html-audio-button-response","79","1011551","0.0-61.0-1.0","CAN_144","144","","","","","","null","stimuli/bleep.m4a","null","yellow","brown","[""yellow"",""brown"",""high nameability""]","right-left","[""brown"",""yellow""]","2","high nameability","14","right","audio_feedback","1"
"html-button-response","80","1012078","0.0-62.0","CAN_144","144","","","","","","null","<button class=""jspsych-btn""><img src=""stimuli/white_square.png"" style=""width: 200px;height: 200px;""></button>","null","yellow","brown","[""yellow"",""brown"",""high nameability""]","right-left","[""brown"",""yellow""]","2","high nameability","14","right","iti",""
"html-button-response","81","1012847","0.0-63.0","CAN_144","144","","","","","","749","","0","turquoise","mustard","[""turquoise"",""mustard"",""low nameability""]","left-right","[""turquoise"",""mustard"",""low nameability""]","2","low nameability","15","left","trigger",""
"html-button-response","82","1013774","0.0-64.0-0.0","CAN_144","144","","","","","","913","<button class=""jspsych-btn""><img src=""stimuli/turquoise.png"" style=""width: 200px;height: 200px;""></button>","0","turquoise","mustard","[""turquoise"",""mustard"",""low nameability""]","left-right","[""turquoise"",""mustard"",""low nameability""]","2","low nameability","15","left","response","1"
"html-audio-button-response","83","1013984","0.0-64.0-1.0","CAN_144","144","","","","","","null","stimuli/bleep.m4a","null","turquoise","mustard","[""turquoise"",""mustard"",""low nameability""]","left-right","[""turquoise"",""mustard"",""low nameability""]","2","low nameability","15","left","audio_feedback","1"
"html-button-response","84","1014516","0.0-65.0","CAN_144","144","","","","","","null","<button class=""jspsych-btn""><img src=""stimuli/white_square.png"" style=""width: 200px;height: 200px;""></button>","null","turquoise","mustard","[""turquoise"",""mustard"",""low nameability""]","left-right","[""turquoise"",""mustard"",""low nameability""]","2","low nameability","15","left","iti",""
"html-button-response","85","1015185","0.0-66.0","CAN_144","144","","","","","","660","","0","orange","red","[""orange"",""red"",""high nameability""]","left-right","[""orange"",""red"",""high nameability""]","2","high nameability","16","left","trigger",""
"html-button-response","86","1016118","0.0-67.0-0.0","CAN_144","144","","","","","","916","<button class=""jspsych-btn""><img src=""stimuli/orange.png"" style=""width: 200px;height: 200px;""></button>","0","orange","red","[""orange"",""red"",""high nameability""]","left-right","[""orange"",""red"",""high nameability""]","2","high nameability","16","left","response","1"
"html-audio-button-response","87","1016343","0.0-67.0-1.0","CAN_144","144","","","","","","null","stimuli/bleep.m4a","null","orange","red","[""orange"",""red"",""high nameability""]","left-right","[""orange"",""red"",""high nameability""]","2","high nameability","16","left","audio_feedback","1"
"html-button-response","88","1016880","0.0-68.0","CAN_144","144","","","","","","null","<button class=""jspsych-btn""><img src=""stimuli/white_square.png"" style=""width: 200px;height: 200px;""></button>","null","orange","red","[""orange"",""red"",""high nameability""]","left-right","[""orange"",""red"",""high nameability""]","2","high nameability","16","left","iti",""
"html-button-response","89","1017590","0.0-69.0","CAN_144","144","","","","","","685","","0","mustard","pink","[""mustard"",""pink"",""low nameability""]","right-left","[""pink"",""mustard""]","2","low nameability","17","right","trigger",""
"html-button-response","90","1018510","0.0-70.0-0.0","CAN_144","144","","","","","","907","<button class=""jspsych-btn""><img src=""stimuli/mustard.png"" style=""width: 200px;height: 200px;""></button>","1","mustard","pink","[""mustard"",""pink"",""low nameability""]","right-left","[""pink"",""mustard""]","2","low nameability","17","right","response","1"
"html-audio-button-response","91","1018715","0.0-70.0-1.0","CAN_144","144","","","","","","null","stimuli/bleep.m4a","null","mustard","pink","[""mustard"",""pink"",""low nameability""]","right-left","[""pink"",""mustard""]","2","low nameability","17","right","audio_feedback","1"
"html-button-response","92","1019232","0.0-71.0","CAN_144","144","","","","","","null","<button class=""jspsych-btn""><img src=""stimuli/white_square.png"" style=""width: 200px;height: 200px;""></button>","null","mustard","pink","[""mustard"",""pink"",""low nameability""]","right-left","[""pink"",""mustard""]","2","low nameability","17","right","iti",""
"html-button-response","93","1019942","0.0-72.0","CAN_144","144","","","","","","683","","0","neonyellow","pink","[""neonyellow"",""pink"",""low nameability""]","left-right","[""neonyellow"",""pink"",""low nameability""]","2","low nameability","18","left","trigger",""
"html-button-response","94","1020839","0.0-73.0-0.0","CAN_144","144","","","","","","887","<button class=""jspsych-btn""><img src=""stimuli/neonyellow.png"" style=""width: 200px;height: 200px;""></button>","0","neonyellow","pink","[""neonyellow"",""pink"",""low nameability""]","left-right","[""neonyellow"",""pink"",""low nameability""]","2","low nameability","18","left","response","1"
"html-audio-button-response","95","1021050","0.0-73.0-1.0","CAN_144","144","","","","","","null","stimuli/bleep.m4a","null","neonyellow","pink","[""neonyellow"",""pink"",""low nameability""]","left-right","[""neonyellow"",""pink"",""low nameability""]","2","low nameability","18","left","audio_feedback","1"
"html-button-response","96","1021591","0.0-74.0","CAN_144","144","","","","","","null","<button class=""jspsych-btn""><img src=""stimuli/white_square.png"" style=""width: 200px;height: 200px;""></button>","null","neonyellow","pink","[""neonyellow"",""pink"",""low nameability""]","left-right","[""neonyellow"",""pink"",""low nameability""]","2","low nameability","18","left","iti",""
"html-button-response","97","1022365","0.0-75.0","CAN_144","144","","","","","","752","","0","yellow","orange","[""yellow"",""orange"",""high nameability""]","right-left","[""orange"",""yellow""]","2","high nameability","19","right","trigger",""
"html-button-response","98","1023284","0.0-76.0-0.0","CAN_144","144","","","","","","911","<button class=""jspsych-btn""><img src=""stimuli/yellow.png"" style=""width: 200px;height: 200px;""></button>","1","yellow","orange","[""yellow"",""orange"",""high nameability""]","right-left","[""orange"",""yellow""]","2","high nameability","19","right","response","1"
"html-audio-button-response","99","1023493","0.0-76.0-1.0","CAN_144","144","","","","","","null","stimuli/bleep.m4a","null","yellow","orange","[""yellow"",""orange"",""high nameability""]","right-left","[""orange"",""yellow""]","2","high nameability","19","right","audio_feedback","1"
"html-button-response","100","1024030","0.0-77.0","CAN_144","144","","","","","","null","<button class=""jspsych-btn""><img src=""stimuli/white_square.png"" style=""width: 200px;height: 200px;""></button>","null","yellow","orange","[""yellow"",""orange"",""high nameability""]","right-left","[""orange"",""yellow""]","2","high nameability","19","right","iti",""
"html-button-response","101","1024779","0.0-78.0","CAN_144","144","","","","","","729","","0","yellow","blue","[""yellow"",""blue"",""high nameability""]","left-right","[""yellow"",""blue"",""high nameability""]","2","high nameability","20","left","trigger",""
"html-button-response","102","1025663","0.0-79.0-0.0","CAN_144","144","","","","","","872","<button class=""jspsych-btn""><img src=""stimuli/yellow.png"" style=""width: 200px;height: 200px;""></button>","0","yellow","blue","[""yellow"",""blue"",""high nameability""]","left-right","[""yellow"",""blue"",""high nameability""]","2","high nameability","20","left","response","1"
"html-audio-button-response","103","1025871","0.0-79.0-1.0","CAN_144","144","","","","","","null","stimuli/bleep.m4a","null","yellow","blue","[""yellow"",""blue"",""high nameability""]","left-right","[""yellow"",""blue"",""high nameability""]","2","high nameability","20","left","audio_feedback","1"
"html-button-response","104","1026400","0.0-80.0","CAN_144","144","","","","","","null","<button class=""jspsych-btn""><img src=""stimuli/white_square.png"" style=""width: 200px;height: 200px;""></button>","null","yellow","blue","[""yellow"",""blue"",""high nameability""]","left-right","[""yellow"",""blue"",""high nameability""]","2","high nameability","20","left","iti",""
"pavlovia","105","1026471","0.0-81.0","CAN_144","144","","","","","","","","","","","","","","","","","","",""
"pavlovia","106","1026480","0.0-82.0","CAN_144","144","","","","","","","","","","","","","","","","","","",""
"html-audio-button-response","107","1027733","0.0-83.0","CAN_144","144","","","","","","1328","stimuli/tada.m4a","0","","","","","","","","","","",""
"html-button-response","108","1028699","0.0-84.0","CAN_144","144","","","","","","959","","0","","","","","","","","","","",""
"html-button-response","109","1029537","0.0-85.0","CAN_144","144","","","","","","829","","0","brown","orange","[""brown"",""orange"",""high nameability""]","right-left","[""orange"",""brown""]","3","high nameability","21","right","trigger",""
"html-button-response","110","1030456","0.0-86.0-0.0","CAN_144","144","","","","","","907","<button class=""jspsych-btn""><img src=""stimuli/brown.png"" style=""width: 200px;height: 200px;""></button>","1","brown","orange","[""brown"",""orange"",""high nameability""]","right-left","[""orange"",""brown""]","3","high nameability","21","right","response","1"
"html-audio-button-response","111","1030663","0.0-86.0-1.0","CAN_144","144","","","","","","null","stimuli/bleep.m4a","null","brown","orange","[""brown"",""orange"",""high nameability""]","right-left","[""orange"",""brown""]","3","high nameability","21","right","audio_feedback","1"
"html-button-response","112","1031176","0.0-87.0","CAN_144","144","","","","","","null","<button class=""jspsych-btn""><img src=""stimuli/white_square.png"" style=""width: 200px;height: 200px;""></button>","null","brown","orange","[""brown"",""orange"",""high nameability""]","right-left","[""orange"",""brown""]","3","high nameability","21","right","iti",""
"html-button-response","113","1031888","0.0-88.0","CAN_144","144","","","","","","696","","0","pink","darkgreenblue","[""pink"",""darkgreenblue"",""low nameability""]","right-left","[""darkgreenblue"",""pink""]","3","low nameability","22","right","trigger",""
"html-button-response","114","1032815","0.0-89.0-0.0","CAN_144","144","","","","","","918","<button class=""jspsych-btn""><img src=""stimuli/pink.png"" style=""width: 200px;height: 200px;""></button>","1","pink","darkgreenblue","[""pink"",""darkgreenblue"",""low nameability""]","right-left","[""darkgreenblue"",""pink""]","3","low nameability","22","right","response","1"
"html-audio-button-response","115","1033027","0.0-89.0-1.0","CAN_144","144","","","","","","null","stimuli/bleep.m4a","null","pink","darkgreenblue","[""pink"",""darkgreenblue"",""low nameability""]","right-left","[""darkgreenblue"",""pink""]","3","low nameability","22","right","audio_feedback","1"
"html-button-response","116","1033559","0.0-90.0","CAN_144","144","","","","","","null","<button class=""jspsych-btn""><img src=""stimuli/white_square.png"" style=""width: 200px;height: 200px;""></button>","null","pink","darkgreenblue","[""pink"",""darkgreenblue"",""low nameability""]","right-left","[""darkgreenblue"",""pink""]","3","low nameability","22","right","iti",""
"html-button-response","117","1034297","0.0-91.0","CAN_144","144","","","","","","719","","0","lightred","turquoise","[""lightred"",""turquoise"",""low nameability""]","left-right","[""lightred"",""turquoise"",""low nameability""]","3","low nameability","23","left","trigger",""
"html-button-response","118","1035302","0.0-92.0-0.0","CAN_144","144","","","","","","994","<button class=""jspsych-btn""><img src=""stimuli/lightred.png"" style=""width: 200px;height: 200px;""></button>","0","lightred","turquoise","[""lightred"",""turquoise"",""low nameability""]","left-right","[""lightred"",""turquoise"",""low nameability""]","3","low nameability","23","left","response","1"
"html-audio-button-response","119","1035513","0.0-92.0-1.0","CAN_144","144","","","","","","null","stimuli/bleep.m4a","null","lightred","turquoise","[""lightred"",""turquoise"",""low nameability""]","left-right","[""lightred"",""turquoise"",""low nameability""]","3","low nameability","23","left","audio_feedback","1"
"html-button-response","120","1036040","0.0-93.0","CAN_144","144","","","","","","null","<button class=""jspsych-btn""><img src=""stimuli/white_square.png"" style=""width: 200px;height: 200px;""></button>","null","lightred","turquoise","[""lightred"",""turquoise"",""low nameability""]","left-right","[""lightred"",""turquoise"",""low nameability""]","3","low nameability","23","left","iti",""
"html-button-response","121","1036758","0.0-94.0","CAN_144","144","","","","","","697","","0","pink","mustard","[""pink"",""mustard"",""low nameability""]","right-left","[""mustard"",""pink""]","3","low nameability","24","right","trigger",""
"html-button-response","122","1037628","0.0-95.0-0.0","CAN_144","144","","","","","","861","<button class=""jspsych-btn""><img src=""stimuli/pink.png"" style=""width: 200px;height: 200px;""></button>","1","pink","mustard","[""pink"",""mustard"",""low nameability""]","right-left","[""mustard"",""pink""]","3","low nameability","24","right","response","1"
"html-audio-button-response","123","1037841","0.0-95.0-1.0","CAN_144","144","","","","","","null","stimuli/bleep.m4a","null","pink","mustard","[""pink"",""mustard"",""low nameability""]","right-left","[""mustard"",""pink""]","3","low nameability","24","right","audio_feedback","1"
"html-button-response","124","1038368","0.0-96.0","CAN_144","144","","","","","","null","<button class=""jspsych-btn""><img src=""stimuli/white_square.png"" style=""width: 200px;height: 200px;""></button>","null","pink","mustard","[""pink"",""mustard"",""low nameability""]","right-left","[""mustard"",""pink""]","3","low nameability","24","right","iti",""
"html-button-response","125","1039051","0.0-97.0","CAN_144","144","","","","","","666","","0","blue","red","[""blue"",""red"",""high nameability""]","right-left","[""red"",""blue""]","3","high nameability","25","right","trigger",""
"html-button-response","126","1040033","0.0-98.0-0.0","CAN_144","144","","","","","","968","<button class=""jspsych-btn""><img src=""stimuli/blue.png"" style=""width: 200px;height: 200px;""></button>","1","blue","red","[""blue"",""red"",""high nameability""]","right-left","[""red"",""blue""]","3","high nameability","25","right","response","1"
"html-audio-button-response","127","1040243","0.0-98.0-1.0","CAN_144","144","","","","","","null","stimuli/bleep.m4a","null","blue","red","[""blue"",""red"",""high nameability""]","right-left","[""red"",""blue""]","3","high nameability","25","right","audio_feedback","1"
"html-button-response","128","1040785","0.0-99.0","CAN_144","144","","","","","","null","<button class=""jspsych-btn""><img src=""stimuli/white_square.png"" style=""width: 200px;height: 200px;""></button>","null","blue","red","[""blue"",""red"",""high nameability""]","right-left","[""red"",""blue""]","3","high nameability","25","right","iti",""
"html-button-response","129","1041546","0.0-100.0","CAN_144","144","","","","","","732","","0","neonyellow","darkgreenblue","[""neonyellow"",""darkgreenblue"",""low nameability""]","left-right","[""neonyellow"",""darkgreenblue"",""low nameability""]","3","low nameability","26","left","trigger",""
"html-button-response","130","1042524","0.0-101.0-0.0","CAN_144","144","","","","","","966","<button class=""jspsych-btn""><img src=""stimuli/neonyellow.png"" style=""width: 200px;height: 200px;""></button>","0","neonyellow","darkgreenblue","[""neonyellow"",""darkgreenblue"",""low nameability""]","left-right","[""neonyellow"",""darkgreenblue"",""low nameability""]","3","low nameability","26","left","response","1"
"html-audio-button-response","131","1042745","0.0-101.0-1.0","CAN_144","144","","","","","","null","stimuli/bleep.m4a","null","neonyellow","darkgreenblue","[""neonyellow"",""darkgreenblue"",""low nameability""]","left-right","[""neonyellow"",""darkgreenblue"",""low nameability""]","3","low nameability","26","left","audio_feedback","1"
"html-button-response","132","1043277","0.0-102.0","CAN_144","144","","","","","","null","<button class=""jspsych-btn""><img src=""stimuli/white_square.png"" style=""width: 200px;height: 200px;""></button>","null","neonyellow","darkgreenblue","[""neonyellow"",""darkgreenblue"",""low nameability""]","left-right","[""neonyellow"",""darkgreenblue"",""low nameability""]","3","low nameability","26","left","iti",""
"html-button-response","133","1044022","0.0-103.0","CAN_144","144","","","","","","725","","0","brown","purple","[""brown"",""purple"",""high nameability""]","right-left","[""purple"",""brown""]","3","high nameability","27","right","trigger",""
"html-button-response","134","1044938","0.0-104.0-0.0","CAN_144","144","","","","","","907","<button class=""jspsych-btn""><img src=""stimuli/brown.png"" style=""width: 200px;height: 200px;""></button>","1","brown","purple","[""brown"",""purple"",""high nameability""]","right-left","[""purple"",""brown""]","3","high nameability","27","right","response","1"
"html-audio-button-response","135","1045148","0.0-104.0-1.0","CAN_144","144","","","","","","null","stimuli/bleep.m4a","null","brown","purple","[""brown"",""purple"",""high nameability""]","right-left","[""purple"",""brown""]","3","high nameability","27","right","audio_feedback","1"
"html-button-response","136","1045673","0.0-105.0","CAN_144","144","","","","","","null","<button class=""jspsych-btn""><img src=""stimuli/white_square.png"" style=""width: 200px;height: 200px;""></button>","null","brown","purple","[""brown"",""purple"",""high nameability""]","right-left","[""purple"",""brown""]","3","high nameability","27","right","iti",""
"html-button-response","137","1046393","0.0-106.0","CAN_144","144","","","","","","711","","0","orange","yellow","[""orange"",""yellow"",""high nameability""]","left-right","[""orange"",""yellow"",""high nameability""]","3","high nameability","28","left","trigger",""
"html-button-response","138","1047358","0.0-107.0-0.0","CAN_144","144","","","","","","953","<button class=""jspsych-btn""><img src=""stimuli/orange.png"" style=""width: 200px;height: 200px;""></button>","0","orange","yellow","[""orange"",""yellow"",""high nameability""]","left-right","[""orange"",""yellow"",""high nameability""]","3","high nameability","28","left","response","1"
"html-audio-button-response","139","1047567","0.0-107.0-1.0","CAN_144","144","","","","","","null","stimuli/bleep.m4a","null","orange","yellow","[""orange"",""yellow"",""high nameability""]","left-right","[""orange"",""yellow"",""high nameability""]","3","high nameability","28","left","audio_feedback","1"
"html-button-response","140","1048100","0.0-108.0","CAN_144","144","","","","","","null","<button class=""jspsych-btn""><img src=""stimuli/white_square.png"" style=""width: 200px;height: 200px;""></button>","null","orange","yellow","[""orange"",""yellow"",""high nameability""]","left-right","[""orange"",""yellow"",""high nameability""]","3","high nameability","28","left","iti",""
"html-button-response","141","1048802","0.0-109.0","CAN_144","144","","","","","","682","","0","turquoise","pink","[""turquoise"",""pink"",""low nameability""]","right-left","[""pink"",""turquoise""]","3","low nameability","29","right","trigger",""
"html-button-response","142","1049704","0.0-110.0-0.0","CAN_144","144","","","","","","890","<button class=""jspsych-btn""><img src=""stimuli/turquoise.png"" style=""width: 200px;height: 200px;""></button>","1","turquoise","pink","[""turquoise"",""pink"",""low nameability""]","right-left","[""pink"",""turquoise""]","3","low nameability","29","right","response","1"
"html-audio-button-response","143","1049921","0.0-110.0-1.0","CAN_144","144","","","","","","null","stimuli/bleep.m4a","null","turquoise","pink","[""turquoise"",""pink"",""low nameability""]","right-left","[""pink"",""turquoise""]","3","low nameability","29","right","audio_feedback","1"
"html-button-response","144","1050449","0.0-111.0","CAN_144","144","","","","","","null","<button class=""jspsych-btn""><img src=""stimuli/white_square.png"" style=""width: 200px;height: 200px;""></button>","null","turquoise","pink","[""turquoise"",""pink"",""low nameability""]","right-left","[""pink"",""turquoise""]","3","low nameability","29","right","iti",""
"html-button-response","145","1051171","0.0-112.0","CAN_144","144","","","","","","693","","0","orange","blue","[""orange"",""blue"",""high nameability""]","right-left","[""blue"",""orange""]","3","high nameability","30","right","trigger",""
"html-button-response","146","1052039","0.0-113.0-0.0","CAN_144","144","","","","","","857","<button class=""jspsych-btn""><img src=""stimuli/orange.png"" style=""width: 200px;height: 200px;""></button>","1","orange","blue","[""orange"",""blue"",""high nameability""]","right-left","[""blue"",""orange""]","3","high nameability","30","right","response","1"
"html-audio-button-response","147","1052256","0.0-113.0-1.0","CAN_144","144","","","","","","null","stimuli/bleep.m4a","null","orange","blue","[""orange"",""blue"",""high nameability""]","right-left","[""blue"",""orange""]","3","high nameability","30","right","audio_feedback","1"
"html-button-response","148","1052793","0.0-114.0","CAN_144","144","","","","","","null","<button class=""jspsych-btn""><img src=""stimuli/white_square.png"" style=""width: 200px;height: 200px;""></button>","null","orange","blue","[""orange"",""blue"",""high nameability""]","right-left","[""blue"",""orange""]","3","high nameability","30","right","iti",""
"pavlovia","149","1052863","0.0-115.0","CAN_144","144","","","","","","","","","","","","","","","","","","",""
"pavlovia","150","1052870","0.0-116.0","CAN_144","144","","","","","","","","","","","","","","","","","","",""
"html-audio-button-response","151","1054034","0.0-117.0","CAN_144","144","","","","","","1237","stimuli/tada.m4a","0","","","","","","","","","","",""
"html-button-response","152","1054952","0.0-118.0","CAN_144","144","","","","","","908","","0","","","","","","","","","","",""
"html-button-response","153","1055811","0.0-119.0","CAN_144","144","","","","","","850","","0","neonyellow","mustard","[""neonyellow"",""mustard"",""low nameability""]","right-left","[""mustard"",""neonyellow""]","4","low nameability","31","right","trigger",""
"html-button-response","154","1056731","0.0-120.0-0.0","CAN_144","144","","","","","","910","<button class=""jspsych-btn""><img src=""stimuli/neonyellow.png"" style=""width: 200px;height: 200px;""></button>","1","neonyellow","mustard","[""neonyellow"",""mustard"",""low nameability""]","right-left","[""mustard"",""neonyellow""]","4","low nameability","31","right","response","1"
"html-audio-button-response","155","1056941","0.0-120.0-1.0","CAN_144","144","","","","","","null","stimuli/bleep.m4a","null","neonyellow","mustard","[""neonyellow"",""mustard"",""low nameability""]","right-left","[""mustard"",""neonyellow""]","4","low nameability","31","right","audio_feedback","1"
"html-button-response","156","1057475","0.0-121.0","CAN_144","144","","","","","","null","<button class=""jspsych-btn""><img src=""stimuli/white_square.png"" style=""width: 200px;height: 200px;""></button>","null","neonyellow","mustard","[""neonyellow"",""mustard"",""low nameability""]","right-left","[""mustard"",""neonyellow""]","4","low nameability","31","right","iti",""
"html-button-response","157","1058166","0.0-122.0","CAN_144","144","","","","","","668","","0","neonyellow","lightred","[""neonyellow"",""lightred"",""low nameability""]","left-right","[""neonyellow"",""lightred"",""low nameability""]","4","low nameability","32","left","trigger",""
"html-button-response","158","1059061","0.0-123.0-0.0","CAN_144","144","","","","","","885","<button class=""jspsych-btn""><img src=""stimuli/neonyellow.png"" style=""width: 200px;height: 200px;""></button>","0","neonyellow","lightred","[""neonyellow"",""lightred"",""low nameability""]","left-right","[""neonyellow"",""lightred"",""low nameability""]","4","low nameability","32","left","response","1"
"html-audio-button-response","159","1059269","0.0-123.0-1.0","CAN_144","144","","","","","","null","stimuli/bleep.m4a","null","neonyellow","lightred","[""neonyellow"",""lightred"",""low nameability""]","left-right","[""neonyellow"",""lightred"",""low nameability""]","4","low nameability","32","left","audio_feedback","1"
"html-button-response","160","1059801","0.0-124.0","CAN_144","144","","","","","","null","<button class=""jspsych-btn""><img src=""stimuli/white_square.png"" style=""width: 200px;height: 200px;""></button>","null","neonyellow","lightred","[""neonyellow"",""lightred"",""low nameability""]","left-right","[""neonyellow"",""lightred"",""low nameability""]","4","low nameability","32","left","iti",""
"html-button-response","161","1060526","0.0-125.0","CAN_144","144","","","","","","696","","0","darkgreenblue","mustard","[""darkgreenblue"",""mustard"",""low nameability""]","left-right","[""darkgreenblue"",""mustard"",""low nameability""]","4","low nameability","33","left","trigger",""
"html-button-response","162","1061484","0.0-126.0-0.0","CAN_144","144","","","","","","946","<button class=""jspsych-btn""><img src=""stimuli/darkgreenblue.png"" style=""width: 200px;height: 200px;""></button>","0","darkgreenblue","mustard","[""darkgreenblue"",""mustard"",""low nameability""]","left-right","[""darkgreenblue"",""mustard"",""low nameability""]","4","low nameability","33","left","response","1"
"html-audio-button-response","163","1061690","0.0-126.0-1.0","CAN_144","144","","","","","","null","stimuli/bleep.m4a","null","darkgreenblue","mustard","[""darkgreenblue"",""mustard"",""low nameability""]","left-right","[""darkgreenblue"",""mustard"",""low nameability""]","4","low nameability","33","left","audio_feedback","1"
"html-button-response","164","1062219","0.0-127.0","CAN_144","144","","","","","","null","<button class=""jspsych-btn""><img src=""stimuli/white_square.png"" style=""width: 200px;height: 200px;""></button>","null","darkgreenblue","mustard","[""darkgreenblue"",""mustard"",""low nameability""]","left-right","[""darkgreenblue"",""mustard"",""low nameability""]","4","low nameability","33","left","iti",""
"html-button-response","165","1062929","0.0-128.0","CAN_144","144","","","","","","686","","0","purple","orange","[""purple"",""orange"",""high nameability""]","left-right","[""purple"",""orange"",""high nameability""]","4","high nameability","34","left","trigger",""
"html-button-response","166","1063844","0.0-129.0-0.0","CAN_144","144","","","","","","906","<button class=""jspsych-btn""><img src=""stimuli/purple.png"" style=""width: 200px;height: 200px;""></button>","0","purple","orange","[""purple"",""orange"",""high nameability""]","left-right","[""purple"",""orange"",""high nameability""]","4","high nameability","34","left","response","1"
"html-audio-button-response","167","1064048","0.0-129.0-1.0","CAN_144","144","","","","","","null","stimuli/bleep.m4a","null","purple","orange","[""purple"",""orange"",""high nameability""]","left-right","[""purple"",""orange"",""high nameability""]","4","high nameability","34","left","audio_feedback","1"
"html-button-response","168","1064581","0.0-130.0","CAN_144","144","","","","","","null","<button class=""jspsych-btn""><img src=""stimuli/white_square.png"" style=""width: 200px;height: 200px;""></button>","null","purple","orange","[""purple"",""orange"",""high nameability""]","left-right","[""purple"",""orange"",""high nameability""]","4","high nameability","34","left","iti",""
"html-button-response","169","1065395","0.0-131.0","CAN_144","144","","","","","","793","","0","blue","yellow","[""blue"",""yellow"",""high nameability""]","left-right","[""blue"",""yellow"",""high nameability""]","4","high nameability","35","left","trigger",""
"html-button-response","170","1066323","0.0-132.0-0.0","CAN_144","144","","","","","","918","<button class=""jspsych-btn""><img src=""stimuli/blue.png"" style=""width: 200px;height: 200px;""></button>","0","blue","yellow","[""blue"",""yellow"",""high nameability""]","left-right","[""blue"",""yellow"",""high nameability""]","4","high nameability","35","left","response","1"
"html-audio-button-response","171","1066541","0.0-132.0-1.0","CAN_144","144","","","","","","null","stimuli/bleep.m4a","null","blue","yellow","[""blue"",""yellow"",""high nameability""]","left-right","[""blue"",""yellow"",""high nameability""]","4","high nameability","35","left","audio_feedback","1"
"html-button-response","172","1067070","0.0-133.0","CAN_144","144","","","","","","null","<button class=""jspsych-btn""><img src=""stimuli/white_square.png"" style=""width: 200px;height: 200px;""></button>","null","blue","yellow","[""blue"",""yellow"",""high nameability""]","left-right","[""blue"",""yellow"",""high nameability""]","4","high nameability","35","left","iti",""
"html-button-response","173","1067920","0.0-134.0","CAN_144","144","","","","","","830","","0","mustard","darkgreenblue","[""mustard"",""darkgreenblue"",""low nameability""]","right-left","[""darkgreenblue"",""mustard""]","4","low nameability","36","right","trigger",""
"html-button-response","174","1068784","0.0-135.0-0.0","CAN_144","144","","","","","","854","<button class=""jspsych-btn""><img src=""stimuli/mustard.png"" style=""width: 200px;height: 200px;""></button>","1","mustard","darkgreenblue","[""mustard"",""darkgreenblue"",""low nameability""]","right-left","[""darkgreenblue"",""mustard""]","4","low nameability","36","right","response","1"
"html-audio-button-response","175","1068999","0.0-135.0-1.0","CAN_144","144","","","","","","null","stimuli/bleep.m4a","null","mustard","darkgreenblue","[""mustard"",""darkgreenblue"",""low nameability""]","right-left","[""darkgreenblue"",""mustard""]","4","low nameability","36","right","audio_feedback","1"
"html-button-response","176","1069533","0.0-136.0","CAN_144","144","","","","","","null","<button class=""jspsych-btn""><img src=""stimuli/white_square.png"" style=""width: 200px;height: 200px;""></button>","null","mustard","darkgreenblue","[""mustard"",""darkgreenblue"",""low nameability""]","right-left","[""darkgreenblue"",""mustard""]","4","low nameability","36","right","iti",""
"html-button-response","177","1070206","0.0-137.0","CAN_144","144","","","","","","646","","0","neonyellow","turquoise","[""neonyellow"",""turquoise"",""low nameability""]","right-left","[""turquoise"",""neonyellow""]","4","low nameability","37","right","trigger",""
"html-button-response","178","1071185","0.0-138.0-0.0","CAN_144","144","","","","","","962","<button class=""jspsych-btn""><img src=""stimuli/neonyellow.png"" style=""width: 200px;height: 200px;""></button>","1","neonyellow","turquoise","[""neonyellow"",""turquoise"",""low nameability""]","right-left","[""turquoise"",""neonyellow""]","4","low nameability","37","right","response","1"
"html-audio-button-response","179","1071405","0.0-138.0-1.0","CAN_144","144","","","","","","null","stimuli/bleep.m4a","null","neonyellow","turquoise","[""neonyellow"",""turquoise"",""low nameability""]","right-left","[""turquoise"",""neonyellow""]","4","low nameability","37","right","audio_feedback","1"
"html-button-response","180","1071921","0.0-139.0","CAN_144","144","","","","","","null","<button class=""jspsych-btn""><img src=""stimuli/white_square.png"" style=""width: 200px;height: 200px;""></button>","null","neonyellow","turquoise","[""neonyellow"",""turquoise"",""low nameability""]","right-left","[""turquoise"",""neonyellow""]","4","low nameability","37","right","iti",""
"html-button-response","181","1072753","0.0-140.0","CAN_144","144","","","","","","813","","0","red","orange","[""red"",""orange"",""high nameability""]","right-left","[""orange"",""red""]","4","high nameability","38","right","trigger",""
"html-button-response","182","1073778","0.0-141.0-0.0","CAN_144","144","","","","","","1013","<button class=""jspsych-btn""><img src=""stimuli/red.png"" style=""width: 200px;height: 200px;""></button>","1","red","orange","[""red"",""orange"",""high nameability""]","right-left","[""orange"",""red""]","4","high nameability","38","right","response","1"
"html-audio-button-response","183","1074000","0.0-141.0-1.0","CAN_144","144","","","","","","null","stimuli/bleep.m4a","null","red","orange","[""red"",""orange"",""high nameability""]","right-left","[""orange"",""red""]","4","high nameability","38","right","audio_feedback","1"
"html-button-response","184","1074540","0.0-142.0","CAN_144","144","","","","","","null","<button class=""jspsych-btn""><img src=""stimuli/white_square.png"" style=""width: 200px;height: 200px;""></button>","null","red","orange","[""red"",""orange"",""high nameability""]","right-left","[""orange"",""red""]","4","high nameability","38","right","iti",""
"html-button-response","185","1075243","0.0-143.0","CAN_144","144","","","","","","675","","0","lightred","darkgreenblue","[""lightred"",""darkgreenblue"",""low nameability""]","right-left","[""darkgreenblue"",""lightred""]","4","low nameability","39","right","trigger",""
"html-button-response","186","1076163","0.0-144.0-0.0","CAN_144","144","","","","","","907","<button class=""jspsych-btn""><img src=""stimuli/lightred.png"" style=""width: 200px;height: 200px;""></button>","1","lightred","darkgreenblue","[""lightred"",""darkgreenblue"",""low nameability""]","right-left","[""darkgreenblue"",""lightred""]","4","low nameability","39","right","response","1"
"html-audio-button-response","187","1076375","0.0-144.0-1.0","CAN_144","144","","","","","","null","stimuli/bleep.m4a","null","lightred","darkgreenblue","[""lightred"",""darkgreenblue"",""low nameability""]","right-left","[""darkgreenblue"",""lightred""]","4","low nameability","39","right","audio_feedback","1"
"html-button-response","188","1076902","0.0-145.0","CAN_144","144","","","","","","null","<button class=""jspsych-btn""><img src=""stimuli/white_square.png"" style=""width: 200px;height: 200px;""></button>","null","lightred","darkgreenblue","[""lightred"",""darkgreenblue"",""low nameability""]","right-left","[""darkgreenblue"",""lightred""]","4","low nameability","39","right","iti",""
"html-button-response","189","1077669","0.0-146.0","CAN_144","144","","","","","","749","","0","purple","red","[""purple"",""red"",""high nameability""]","right-left","[""red"",""purple""]","4","high nameability","40","right","trigger",""
"html-button-response","190","1078573","0.0-147.0-0.0","CAN_144","144","","","","","","891","<button class=""jspsych-btn""><img src=""stimuli/purple.png"" style=""width: 200px;height: 200px;""></button>","1","purple","red","[""purple"",""red"",""high nameability""]","right-left","[""red"",""purple""]","4","high nameability","40","right","response","1"
"html-audio-button-response","191","1078779","0.0-147.0-1.0","CAN_144","144","","","","","","null","stimuli/bleep.m4a","null","purple","red","[""purple"",""red"",""high nameability""]","right-left","[""red"",""purple""]","4","high nameability","40","right","audio_feedback","1"
"html-button-response","192","1079309","0.0-148.0","CAN_144","144","","","","","","null","<button class=""jspsych-btn""><img src=""stimuli/white_square.png"" style=""width: 200px;height: 200px;""></button>","null","purple","red","[""purple"",""red"",""high nameability""]","right-left","[""red"",""purple""]","4","high nameability","40","right","iti",""
"pavlovia","193","1079364","0.0-149.0","CAN_144","144","","","","","","","","","","","","","","","","","","",""
"pavlovia","194","1079371","0.0-150.0","CAN_144","144","","","","","","","","","","","","","","","","","","",""
"html-audio-button-response","195","1081463","0.0-151.0","CAN_144","144","","","","","","2152","stimuli/tada.m4a","0","","","","","","","","","","",""
"html-button-response","196","1082293","0.0-152.0","CAN_144","144","","","","","","820","","0","","","","","","","","","","",""
"html-button-response","197","1083116","0.0-153.0","CAN_144","144","","","","","","813","","0","red","yellow","[""red"",""yellow"",""high nameability""]","right-left","[""yellow"",""red""]","5","high nameability","41","right","trigger",""
"html-button-response","198","1083970","0.0-154.0-0.0","CAN_144","144","","","","","","844","<button class=""jspsych-btn""><img src=""stimuli/red.png"" style=""width: 200px;height: 200px;""></button>","1","red","yellow","[""red"",""yellow"",""high nameability""]","right-left","[""yellow"",""red""]","5","high nameability","41","right","response","1"
"html-audio-button-response","199","1084175","0.0-154.0-1.0","CAN_144","144","","","","","","null","stimuli/bleep.m4a","null","red","yellow","[""red"",""yellow"",""high nameability""]","right-left","[""yellow"",""red""]","5","high nameability","41","right","audio_feedback","1"
"html-button-response","200","1084686","0.0-155.0","CAN_144","144","","","","","","null","<button class=""jspsych-btn""><img src=""stimuli/white_square.png"" style=""width: 200px;height: 200px;""></button>","null","red","yellow","[""red"",""yellow"",""high nameability""]","right-left","[""yellow"",""red""]","5","high nameability","41","right","iti",""
"html-button-response","201","1085360","0.0-156.0","CAN_144","144","","","","","","645","","0","turquoise","lightred","[""turquoise"",""lightred"",""low nameability""]","left-right","[""turquoise"",""lightred"",""low nameability""]","5","low nameability","42","left","trigger",""
"html-button-response","202","1086304","0.0-157.0-0.0","CAN_144","144","","","","","","930","<button class=""jspsych-btn""><img src=""stimuli/turquoise.png"" style=""width: 200px;height: 200px;""></button>","0","turquoise","lightred","[""turquoise"",""lightred"",""low nameability""]","left-right","[""turquoise"",""lightred"",""low nameability""]","5","low nameability","42","left","response","1"
"html-audio-button-response","203","1086506","0.0-157.0-1.0","CAN_144","144","","","","","","null","stimuli/bleep.m4a","null","turquoise","lightred","[""turquoise"",""lightred"",""low nameability""]","left-right","[""turquoise"",""lightred"",""low nameability""]","5","low nameability","42","left","audio_feedback","1"
"html-button-response","204","1087018","0.0-158.0","CAN_144","144","","","","","","null","<button class=""jspsych-btn""><img src=""stimuli/white_square.png"" style=""width: 200px;height: 200px;""></button>","null","turquoise","lightred","[""turquoise"",""lightred"",""low nameability""]","left-right","[""turquoise"",""lightred"",""low nameability""]","5","low nameability","42","left","iti",""
"html-button-response","205","1087762","0.0-159.0","CAN_144","144","","","","","","728","","0","lightred","neonyellow","[""lightred"",""neonyellow"",""low nameability""]","left-right","[""lightred"",""neonyellow"",""low nameability""]","5","low nameability","43","left","trigger",""
"html-button-response","206","1088672","0.0-160.0-0.0","CAN_144","144","","","","","","898","<button class=""jspsych-btn""><img src=""stimuli/lightred.png"" style=""width: 200px;height: 200px;""></button>","0","lightred","neonyellow","[""lightred"",""neonyellow"",""low nameability""]","left-right","[""lightred"",""neonyellow"",""low nameability""]","5","low nameability","43","left","response","1"
"html-audio-button-response","207","1088888","0.0-160.0-1.0","CAN_144","144","","","","","","null","stimuli/bleep.m4a","null","lightred","neonyellow","[""lightred"",""neonyellow"",""low nameability""]","left-right","[""lightred"",""neonyellow"",""low nameability""]","5","low nameability","43","left","audio_feedback","1"
"html-button-response","208","1089413","0.0-161.0","CAN_144","144","","","","","","null","<button class=""jspsych-btn""><img src=""stimuli/white_square.png"" style=""width: 200px;height: 200px;""></button>","null","lightred","neonyellow","[""lightred"",""neonyellow"",""low nameability""]","left-right","[""lightred"",""neonyellow"",""low nameability""]","5","low nameability","43","left","iti",""
"html-button-response","209","1090179","0.0-162.0","CAN_144","144","","","","","","751","","0","pink","turquoise","[""pink"",""turquoise"",""low nameability""]","left-right","[""pink"",""turquoise"",""low nameability""]","5","low nameability","44","left","trigger",""
"html-button-response","210","1091128","0.0-163.0-0.0","CAN_144","144","","","","","","939","<button class=""jspsych-btn""><img src=""stimuli/pink.png"" style=""width: 200px;height: 200px;""></button>","0","pink","turquoise","[""pink"",""turquoise"",""low nameability""]","left-right","[""pink"",""turquoise"",""low nameability""]","5","low nameability","44","left","response","1"
"html-audio-button-response","211","1091334","0.0-163.0-1.0","CAN_144","144","","","","","","null","stimuli/bleep.m4a","null","pink","turquoise","[""pink"",""turquoise"",""low nameability""]","left-right","[""pink"",""turquoise"",""low nameability""]","5","low nameability","44","left","audio_feedback","1"
"html-button-response","212","1091857","0.0-164.0","CAN_144","144","","","","","","null","<button class=""jspsych-btn""><img src=""stimuli/white_square.png"" style=""width: 200px;height: 200px;""></button>","null","pink","turquoise","[""pink"",""turquoise"",""low nameability""]","left-right","[""pink"",""turquoise"",""low nameability""]","5","low nameability","44","left","iti",""
"html-button-response","213","1092579","0.0-165.0","CAN_144","144","","","","","","703","","0","mustard","neonyellow","[""mustard"",""neonyellow"",""low nameability""]","left-right","[""mustard"",""neonyellow"",""low nameability""]","5","low nameability","45","left","trigger",""
"html-button-response","214","1093489","0.0-166.0-0.0","CAN_144","144","","","","","","900","<button class=""jspsych-btn""><img src=""stimuli/mustard.png"" style=""width: 200px;height: 200px;""></button>","0","mustard","neonyellow","[""mustard"",""neonyellow"",""low nameability""]","left-right","[""mustard"",""neonyellow"",""low nameability""]","5","low nameability","45","left","response","1"
"html-audio-button-response","215","1093700","0.0-166.0-1.0","CAN_144","144","","","","","","null","stimuli/bleep.m4a","null","mustard","neonyellow","[""mustard"",""neonyellow"",""low nameability""]","left-right","[""mustard"",""neonyellow"",""low nameability""]","5","low nameability","45","left","audio_feedback","1"
"html-button-response","216","1094227","0.0-167.0","CAN_144","144","","","","","","null","<button class=""jspsych-btn""><img src=""stimuli/white_square.png"" style=""width: 200px;height: 200px;""></button>","null","mustard","neonyellow","[""mustard"",""neonyellow"",""low nameability""]","left-right","[""mustard"",""neonyellow"",""low nameability""]","5","low nameability","45","left","iti",""
"html-button-response","217","1094946","0.0-168.0","CAN_144","144","","","","","","703","","0","darkgreenblue","lightred","[""darkgreenblue"",""lightred"",""low nameability""]","right-left","[""lightred"",""darkgreenblue""]","5","low nameability","46","right","trigger",""
"html-button-response","218","1095859","0.0-169.0-0.0","CAN_144","144","","","","","","904","<button class=""jspsych-btn""><img src=""stimuli/darkgreenblue.png"" style=""width: 200px;height: 200px;""></button>","1","darkgreenblue","lightred","[""darkgreenblue"",""lightred"",""low nameability""]","right-left","[""lightred"",""darkgreenblue""]","5","low nameability","46","right","response","1"
"html-audio-button-response","219","1096078","0.0-169.0-1.0","CAN_144","144","","","","","","null","stimuli/bleep.m4a","null","darkgreenblue","lightred","[""darkgreenblue"",""lightred"",""low nameability""]","right-left","[""lightred"",""darkgreenblue""]","5","low nameability","46","right","audio_feedback","1"
"html-button-response","220","1096606","0.0-170.0","CAN_144","144","","","","","","null","<button class=""jspsych-btn""><img src=""stimuli/white_square.png"" style=""width: 200px;height: 200px;""></button>","null","darkgreenblue","lightred","[""darkgreenblue"",""lightred"",""low nameability""]","right-left","[""lightred"",""darkgreenblue""]","5","low nameability","46","right","iti",""
"html-button-response","221","1097282","0.0-171.0","CAN_144","144","","","","","","658","","0","purple","brown","[""purple"",""brown"",""high nameability""]","right-left","[""brown"",""purple""]","5","high nameability","47","right","trigger",""
"html-button-response","222","1098204","0.0-172.0-0.0","CAN_144","144","","","","","","911","<button class=""jspsych-btn""><img src=""stimuli/purple.png"" style=""width: 200px;height: 200px;""></button>","1","purple","brown","[""purple"",""brown"",""high nameability""]","right-left","[""brown"",""purple""]","5","high nameability","47","right","response","1"
"html-audio-button-response","223","1098424","0.0-172.0-1.0","CAN_144","144","","","","","","null","stimuli/bleep.m4a","null","purple","brown","[""purple"",""brown"",""high nameability""]","right-left","[""brown"",""purple""]","5","high nameability","47","right","audio_feedback","1"
"html-button-response","224","1098959","0.0-173.0","CAN_144","144","","","","","","null","<button class=""jspsych-btn""><img src=""stimuli/white_square.png"" style=""width: 200px;height: 200px;""></button>","null","purple","brown","[""purple"",""brown"",""high nameability""]","right-left","[""brown"",""purple""]","5","high nameability","47","right","iti",""
"html-button-response","225","1099745","0.0-174.0","CAN_144","144","","","","","","770","","0","blue","orange","[""blue"",""orange"",""high nameability""]","left-right","[""blue"",""orange"",""high nameability""]","5","high nameability","48","left","trigger",""
"html-button-response","226","1100676","0.0-175.0-0.0","CAN_144","144","","","","","","921","<button class=""jspsych-btn""><img src=""stimuli/blue.png"" style=""width: 200px;height: 200px;""></button>","0","blue","orange","[""blue"",""orange"",""high nameability""]","left-right","[""blue"",""orange"",""high nameability""]","5","high nameability","48","left","response","1"
"html-audio-button-response","227","1100891","0.0-175.0-1.0","CAN_144","144","","","","","","null","stimuli/bleep.m4a","null","blue","orange","[""blue"",""orange"",""high nameability""]","left-right","[""blue"",""orange"",""high nameability""]","5","high nameability","48","left","audio_feedback","1"
"html-button-response","228","1101419","0.0-176.0","CAN_144","144","","","","","","null","<button class=""jspsych-btn""><img src=""stimuli/white_square.png"" style=""width: 200px;height: 200px;""></button>","null","blue","orange","[""blue"",""orange"",""high nameability""]","left-right","[""blue"",""orange"",""high nameability""]","5","high nameability","48","left","iti",""
"html-button-response","229","1102162","0.0-177.0","CAN_144","144","","","","","","727","","0","orange","brown","[""orange"",""brown"",""high nameability""]","left-right","[""orange"",""brown"",""high nameability""]","5","high nameability","49","left","trigger",""
"html-button-response","230","1103093","0.0-178.0-0.0","CAN_144","144","","","","","","920","<button class=""jspsych-btn""><img src=""stimuli/orange.png"" style=""width: 200px;height: 200px;""></button>","0","orange","brown","[""orange"",""brown"",""high nameability""]","left-right","[""orange"",""brown"",""high nameability""]","5","high nameability","49","left","response","1"
"html-audio-button-response","231","1103299","0.0-178.0-1.0","CAN_144","144","","","","","","null","stimuli/bleep.m4a","null","orange","brown","[""orange"",""brown"",""high nameability""]","left-right","[""orange"",""brown"",""high nameability""]","5","high nameability","49","left","audio_feedback","1"
"html-button-response","232","1103831","0.0-179.0","CAN_144","144","","","","","","null","<button class=""jspsych-btn""><img src=""stimuli/white_square.png"" style=""width: 200px;height: 200px;""></button>","null","orange","brown","[""orange"",""brown"",""high nameability""]","left-right","[""orange"",""brown"",""high nameability""]","5","high nameability","49","left","iti",""
"html-button-response","233","1104630","0.0-180.0","CAN_144","144","","","","","","779","","0","brown","blue","[""brown"",""blue"",""high nameability""]","left-right","[""brown"",""blue"",""high nameability""]","5","high nameability","50","left","trigger",""
"html-button-response","234","1105552","0.0-181.0-0.0","CAN_144","144","","","","","","909","<button class=""jspsych-btn""><img src=""stimuli/brown.png"" style=""width: 200px;height: 200px;""></button>","0","brown","blue","[""brown"",""blue"",""high nameability""]","left-right","[""brown"",""blue"",""high nameability""]","5","high nameability","50","left","response","1"
"html-audio-button-response","235","1105763","0.0-181.0-1.0","CAN_144","144","","","","","","null","stimuli/bleep.m4a","null","brown","blue","[""brown"",""blue"",""high nameability""]","left-right","[""brown"",""blue"",""high nameability""]","5","high nameability","50","left","audio_feedback","1"
"html-button-response","236","1106298","0.0-182.0","CAN_144","144","","","","","","null","<button class=""jspsych-btn""><img src=""stimuli/white_square.png"" style=""width: 200px;height: 200px;""></button>","null","brown","blue","[""brown"",""blue"",""high nameability""]","left-right","[""brown"",""blue"",""high nameability""]","5","high nameability","50","left","iti",""
"pavlovia","237","1106360","0.0-183.0","CAN_144","144","","","","","","","","","","","","","","","","","","",""
"pavlovia","238","1106367","0.0-184.0","CAN_144","144","","","","","","","","","","","","","","","","","","",""
"html-audio-button-response","239","1109041","0.0-185.0","CAN_144","144","","","","","","2736","stimuli/tada.m4a","0","","","","","","","","","","",""
"html-button-response","240","1109956","0.0-186.0","CAN_144","144","","","","","","905","","0","","","","","","","","","","",""
"html-button-response","241","1110759","0.0-187.0","CAN_144","144","","","","","","795","","0","red","brown","[""red"",""brown"",""high nameability""]","right-left","[""brown"",""red""]","6","high nameability","51","right","trigger",""
"html-button-response","242","1111586","0.0-188.0-0.0","CAN_144","144","","","","","","816","<button class=""jspsych-btn""><img src=""stimuli/red.png"" style=""width: 200px;height: 200px;""></button>","1","red","brown","[""red"",""brown"",""high nameability""]","right-left","[""brown"",""red""]","6","high nameability","51","right","response","1"
"html-audio-button-response","243","1111805","0.0-188.0-1.0","CAN_144","144","","","","","","null","stimuli/bleep.m4a","null","red","brown","[""red"",""brown"",""high nameability""]","right-left","[""brown"",""red""]","6","high nameability","51","right","audio_feedback","1"
"html-button-response","244","1112322","0.0-189.0","CAN_144","144","","","","","","null","<button class=""jspsych-btn""><img src=""stimuli/white_square.png"" style=""width: 200px;height: 200px;""></button>","null","red","brown","[""red"",""brown"",""high nameability""]","right-left","[""brown"",""red""]","6","high nameability","51","right","iti",""
"html-button-response","245","1113045","0.0-190.0","CAN_144","144","","","","","","707","","0","yellow","purple","[""yellow"",""purple"",""high nameability""]","left-right","[""yellow"",""purple"",""high nameability""]","6","high nameability","52","left","trigger",""
"html-button-response","246","1113914","0.0-191.0-0.0","CAN_144","144","","","","","","857","<button class=""jspsych-btn""><img src=""stimuli/yellow.png"" style=""width: 200px;height: 200px;""></button>","0","yellow","purple","[""yellow"",""purple"",""high nameability""]","left-right","[""yellow"",""purple"",""high nameability""]","6","high nameability","52","left","response","1"
"html-audio-button-response","247","1114123","0.0-191.0-1.0","CAN_144","144","","","","","","null","stimuli/bleep.m4a","null","yellow","purple","[""yellow"",""purple"",""high nameability""]","left-right","[""yellow"",""purple"",""high nameability""]","6","high nameability","52","left","audio_feedback","1"
"html-button-response","248","1114654","0.0-192.0","CAN_144","144","","","","","","null","<button class=""jspsych-btn""><img src=""stimuli/white_square.png"" style=""width: 200px;height: 200px;""></button>","null","yellow","purple","[""yellow"",""purple"",""high nameability""]","left-right","[""yellow"",""purple"",""high nameability""]","6","high nameability","52","left","iti",""
"html-button-response","249","1115404","0.0-193.0","CAN_144","144","","","","","","732","","0","turquoise","darkgreenblue","[""turquoise"",""darkgreenblue"",""low nameability""]","right-left","[""darkgreenblue"",""turquoise""]","6","low nameability","53","right","trigger",""
"html-button-response","250","1116293","0.0-194.0-0.0","CAN_144","144","","","","","","876","<button class=""jspsych-btn""><img src=""stimuli/turquoise.png"" style=""width: 200px;height: 200px;""></button>","1","turquoise","darkgreenblue","[""turquoise"",""darkgreenblue"",""low nameability""]","right-left","[""darkgreenblue"",""turquoise""]","6","low nameability","53","right","response","1"
"html-audio-button-response","251","1116502","0.0-194.0-1.0","CAN_144","144","","","","","","null","stimuli/bleep.m4a","null","turquoise","darkgreenblue","[""turquoise"",""darkgreenblue"",""low nameability""]","right-left","[""darkgreenblue"",""turquoise""]","6","low nameability","53","right","audio_feedback","1"
"html-button-response","252","1117023","0.0-195.0","CAN_144","144","","","","","","null","<button class=""jspsych-btn""><img src=""stimuli/white_square.png"" style=""width: 200px;height: 200px;""></button>","null","turquoise","darkgreenblue","[""turquoise"",""darkgreenblue"",""low nameability""]","right-left","[""darkgreenblue"",""turquoise""]","6","low nameability","53","right","iti",""
"html-button-response","253","1117739","0.0-196.0","CAN_144","144","","","","","","699","","0","blue","brown","[""blue"",""brown"",""high nameability""]","right-left","[""brown"",""blue""]","6","high nameability","54","right","trigger",""
"html-button-response","254","1118644","0.0-197.0-0.0","CAN_144","144","","","","","","891","<button class=""jspsych-btn""><img src=""stimuli/blue.png"" style=""width: 200px;height: 200px;""></button>","1","blue","brown","[""blue"",""brown"",""high nameability""]","right-left","[""brown"",""blue""]","6","high nameability","54","right","response","1"
"html-audio-button-response","255","1118856","0.0-197.0-1.0","CAN_144","144","","","","","","null","stimuli/bleep.m4a","null","blue","brown","[""blue"",""brown"",""high nameability""]","right-left","[""brown"",""blue""]","6","high nameability","54","right","audio_feedback","1"
"html-button-response","256","1119385","0.0-198.0","CAN_144","144","","","","","","null","<button class=""jspsych-btn""><img src=""stimuli/white_square.png"" style=""width: 200px;height: 200px;""></button>","null","blue","brown","[""blue"",""brown"",""high nameability""]","right-left","[""brown"",""blue""]","6","high nameability","54","right","iti",""
"html-button-response","257","1120079","0.0-199.0","CAN_144","144","","","","","","679","","0","lightred","mustard","[""lightred"",""mustard"",""low nameability""]","left-right","[""lightred"",""mustard"",""low nameability""]","6","low nameability","55","left","trigger",""
"html-button-response","258","1120937","0.0-200.0-0.0","CAN_144","144","","","","","","849","<button class=""jspsych-btn""><img src=""stimuli/lightred.png"" style=""width: 200px;height: 200px;""></button>","0","lightred","mustard","[""lightred"",""mustard"",""low nameability""]","left-right","[""lightred"",""mustard"",""low nameability""]","6","low nameability","55","left","response","1"
"html-audio-button-response","259","1121147","0.0-200.0-1.0","CAN_144","144","","","","","","null","stimuli/bleep.m4a","null","lightred","mustard","[""lightred"",""mustard"",""low nameability""]","left-right","[""lightred"",""mustard"",""low nameability""]","6","low nameability","55","left","audio_feedback","1"
"html-button-response","260","1121675","0.0-201.0","CAN_144","144","","","","","","null","<button class=""jspsych-btn""><img src=""stimuli/white_square.png"" style=""width: 200px;height: 200px;""></button>","null","lightred","mustard","[""lightred"",""mustard"",""low nameability""]","left-right","[""lightred"",""mustard"",""low nameability""]","6","low nameability","55","left","iti",""
"html-button-response","261","1122483","0.0-202.0","CAN_144","144","","","","","","789","","0","mustard","turquoise","[""mustard"",""turquoise"",""low nameability""]","right-left","[""turquoise"",""mustard""]","6","low nameability","56","right","trigger",""
"html-button-response","262","1123302","0.0-203.0-0.0","CAN_144","144","","","","","","808","<button class=""jspsych-btn""><img src=""stimuli/mustard.png"" style=""width: 200px;height: 200px;""></button>","1","mustard","turquoise","[""mustard"",""turquoise"",""low nameability""]","right-left","[""turquoise"",""mustard""]","6","low nameability","56","right","response","1"
"html-audio-button-response","263","1123514","0.0-203.0-1.0","CAN_144","144","","","","","","null","stimuli/bleep.m4a","null","mustard","turquoise","[""mustard"",""turquoise"",""low nameability""]","right-left","[""turquoise"",""mustard""]","6","low nameability","56","right","audio_feedback","1"
"html-button-response","264","1124038","0.0-204.0","CAN_144","144","","","","","","null","<button class=""jspsych-btn""><img src=""stimuli/white_square.png"" style=""width: 200px;height: 200px;""></button>","null","mustard","turquoise","[""mustard"",""turquoise"",""low nameability""]","right-left","[""turquoise"",""mustard""]","6","low nameability","56","right","iti",""
"html-button-response","265","1124828","0.0-205.0","CAN_144","144","","","","","","774","","0","brown","yellow","[""brown"",""yellow"",""high nameability""]","right-left","[""yellow"",""brown""]","6","high nameability","57","right","trigger",""
"html-button-response","266","1125863","0.0-206.0-0.0","CAN_144","144","","","","","","1027","<button class=""jspsych-btn""><img src=""stimuli/brown.png"" style=""width: 200px;height: 200px;""></button>","1","brown","yellow","[""brown"",""yellow"",""high nameability""]","right-left","[""yellow"",""brown""]","6","high nameability","57","right","response","1"
"html-audio-button-response","267","1126068","0.0-206.0-1.0","CAN_144","144","","","","","","null","stimuli/bleep.m4a","null","brown","yellow","[""brown"",""yellow"",""high nameability""]","right-left","[""yellow"",""brown""]","6","high nameability","57","right","audio_feedback","1"
"html-button-response","268","1126582","0.0-207.0","CAN_144","144","","","","","","null","<button class=""jspsych-btn""><img src=""stimuli/white_square.png"" style=""width: 200px;height: 200px;""></button>","null","brown","yellow","[""brown"",""yellow"",""high nameability""]","right-left","[""yellow"",""brown""]","6","high nameability","57","right","iti",""
"html-button-response","269","1127384","0.0-208.0","CAN_144","144","","","","","","780","","0","turquoise","neonyellow","[""turquoise"",""neonyellow"",""low nameability""]","right-left","[""neonyellow"",""turquoise""]","6","low nameability","58","right","trigger",""
"html-button-response","270","1128219","0.0-209.0-0.0","CAN_144","144","","","","","","820","<button class=""jspsych-btn""><img src=""stimuli/turquoise.png"" style=""width: 200px;height: 200px;""></button>","1","turquoise","neonyellow","[""turquoise"",""neonyellow"",""low nameability""]","right-left","[""neonyellow"",""turquoise""]","6","low nameability","58","right","response","1"
"html-audio-button-response","271","1128429","0.0-209.0-1.0","CAN_144","144","","","","","","null","stimuli/bleep.m4a","null","turquoise","neonyellow","[""turquoise"",""neonyellow"",""low nameability""]","right-left","[""neonyellow"",""turquoise""]","6","low nameability","58","right","audio_feedback","1"
"html-button-response","272","1128954","0.0-210.0","CAN_144","144","","","","","","null","<button class=""jspsych-btn""><img src=""stimuli/white_square.png"" style=""width: 200px;height: 200px;""></button>","null","turquoise","neonyellow","[""turquoise"",""neonyellow"",""low nameability""]","right-left","[""neonyellow"",""turquoise""]","6","low nameability","58","right","iti",""
"html-button-response","273","1129722","0.0-211.0","CAN_144","144","","","","","","753","","0","red","purple","[""red"",""purple"",""high nameability""]","left-right","[""red"",""purple"",""high nameability""]","6","high nameability","59","left","trigger",""
"html-button-response","274","1130645","0.0-212.0-0.0","CAN_144","144","","","","","","913","<button class=""jspsych-btn""><img src=""stimuli/red.png"" style=""width: 200px;height: 200px;""></button>","0","red","purple","[""red"",""purple"",""high nameability""]","left-right","[""red"",""purple"",""high nameability""]","6","high nameability","59","left","response","1"
"html-audio-button-response","275","1130860","0.0-212.0-1.0","CAN_144","144","","","","","","null","stimuli/bleep.m4a","null","red","purple","[""red"",""purple"",""high nameability""]","left-right","[""red"",""purple"",""high nameability""]","6","high nameability","59","left","audio_feedback","1"
"html-button-response","276","1131393","0.0-213.0","CAN_144","144","","","","","","null","<button class=""jspsych-btn""><img src=""stimuli/white_square.png"" style=""width: 200px;height: 200px;""></button>","null","red","purple","[""red"",""purple"",""high nameability""]","left-right","[""red"",""purple"",""high nameability""]","6","high nameability","59","left","iti",""
"html-button-response","277","1132138","0.0-214.0","CAN_144","144","","","","","","726","","0","red","blue","[""red"",""blue"",""high nameability""]","left-right","[""red"",""blue"",""high nameability""]","6","high nameability","60","left","trigger",""
"html-button-response","278","1132993","0.0-215.0-0.0","CAN_144","144","","","","","","841","<button class=""jspsych-btn""><img src=""stimuli/red.png"" style=""width: 200px;height: 200px;""></button>","0","red","blue","[""red"",""blue"",""high nameability""]","left-right","[""red"",""blue"",""high nameability""]","6","high nameability","60","left","response","1"
"html-audio-button-response","279","1133198","0.0-215.0-1.0","CAN_144","144","","","","","","null","stimuli/bleep.m4a","null","red","blue","[""red"",""blue"",""high nameability""]","left-right","[""red"",""blue"",""high nameability""]","6","high nameability","60","left","audio_feedback","1"
"html-button-response","280","1133725","0.0-216.0","CAN_144","144","","","","","","null","<button class=""jspsych-btn""><img src=""stimuli/white_square.png"" style=""width: 200px;height: 200px;""></button>","null","red","blue","[""red"",""blue"",""high nameability""]","left-right","[""red"",""blue"",""high nameability""]","6","high nameability","60","left","iti",""
