"trial_type","trial_index","time_elapsed","internal_node_id","subject_id","seed","success","timeout","failed_images","failed_audio","failed_video","rt","stimulus","response","target","foil","choices","combination_order","choices_in_order","round","condition","trial_counter","target_location","trial_kind","correct"
"pavlovia","0","19","0.0-0.0","CAN_141","141","","","","","","","","","","","","","","","","","","",""
"preload","1","721","0.0-1.0","CAN_141","141","true","false","[]","[]","[]","","","","","","","","","","","","","",""
"fullscreen","2","48223","0.0-2.0","CAN_141","141","true","","","","","","","","","","","","","","","","","",""
"html-button-response","3","534844","0.0-3.0","CAN_141","141","","","","","","486583","","0","","","","","","","","","","",""
"html-button-response","4","537245","0.0-4.0","CAN_141","141","","","","","","2385","","0","star","square","[""square"",""star""]","left-right","[""square"",""star""]","1","practice","1","right","trigger",""
"html-button-response","5","541776","0.0-5.0-0.0","CAN_141","141","","","","","","4514","<button class=""jspsych-btn""><img src=""stimuli/star.png"" style=""width: 200px;height: 200px;""></button>","1","star","square","[""square"",""star""]","left-right","[""square"",""star""]","1","practice","1","right","response","1"
"html-audio-button-response","6","541988","0.0-5.0-1.0","CAN_141","141","","","","","","null","stimuli/bleep.m4a","null","star","square","[""square"",""star""]","left-right","[""square"",""star""]","1","practice","1","right","audio_feedback","1"
"html-button-response","7","542524","0.0-6.0","CAN_141","141","","","","","","null","<button class=""jspsych-btn""><img src=""stimuli/white_square.png"" style=""width: 200px;height: 200px;""></button>","null","star","square","[""square"",""star""]","left-right","[""square"",""star""]","1","practice","1","right","iti",""
"html-button-response","8","544198","0.0-7.0","CAN_141","141","","","","","","1636","","0","triangle","pentagram","[""triangle"",""pentagram""]","left-right","[""triangle"",""pentagram""]","1","practice","1","left","trigger",""
"html-button-response","9","545374","0.0-8.0-0.0","CAN_141","141","","","","","","1167","<button class=""jspsych-btn""><img src=""stimuli/triangle.png"" style=""width: 200px;height: 200px;""></button>","0","triangle","pentagram","[""triangle"",""pentagram""]","left-right","[""triangle"",""pentagram""]","1","practice","1","left","response","1"
"html-audio-button-response","10","545584","0.0-8.0-1.0","CAN_141","141","","","","","","null","stimuli/bleep.m4a","null","triangle","pentagram","[""triangle"",""pentagram""]","left-right","[""triangle"",""pentagram""]","1","practice","1","left","audio_feedback","1"
"html-button-response","11","546112","0.0-9.0","CAN_141","141","","","","","","null","<button class=""jspsych-btn""><img src=""stimuli/white_square.png"" style=""width: 200px;height: 200px;""></button>","null","triangle","pentagram","[""triangle"",""pentagram""]","left-right","[""triangle"",""pentagram""]","1","practice","1","left","iti",""
"html-button-response","12","546924","0.0-10.0","CAN_141","141","","","","","","788","","0","diamond","rectangle","[""rectangle"",""diamond""]","left-right","[""rectangle"",""diamond""]","1","practice","1","right","trigger",""
"html-button-response","13","548080","0.0-11.0-0.0","CAN_141","141","","","","","","1146","<button class=""jspsych-btn""><img src=""stimuli/diamond.png"" style=""width: 200px;height: 200px;""></button>","1","diamond","rectangle","[""rectangle"",""diamond""]","left-right","[""rectangle"",""diamond""]","1","practice","1","right","response","1"
"html-audio-button-response","14","548288","0.0-11.0-1.0","CAN_141","141","","","","","","null","stimuli/bleep.m4a","null","diamond","rectangle","[""rectangle"",""diamond""]","left-right","[""rectangle"",""diamond""]","1","practice","1","right","audio_feedback","1"
"html-button-response","15","548813","0.0-12.0","CAN_141","141","","","","","","null","<button class=""jspsych-btn""><img src=""stimuli/white_square.png"" style=""width: 200px;height: 200px;""></button>","null","diamond","rectangle","[""rectangle"",""diamond""]","left-right","[""rectangle"",""diamond""]","1","practice","1","right","iti",""
"html-button-response","16","549833","0.0-13.0","CAN_141","141","","","","","","997","","0","pentagram","star","[""pentagram"",""star""]","left-right","[""pentagram"",""star""]","1","practice","1","left","trigger",""
"html-button-response","17","550832","0.0-14.0-0.0","CAN_141","141","","","","","","991","<button class=""jspsych-btn""><img src=""stimuli/pentagram.png"" style=""width: 200px;height: 200px;""></button>","0","pentagram","star","[""pentagram"",""star""]","left-right","[""pentagram"",""star""]","1","practice","1","left","response","1"
"html-audio-button-response","18","551036","0.0-14.0-1.0","CAN_141","141","","","","","","null","stimuli/bleep.m4a","null","pentagram","star","[""pentagram"",""star""]","left-right","[""pentagram"",""star""]","1","practice","1","left","audio_feedback","1"
"html-button-response","19","551565","0.0-15.0","CAN_141","141","","","","","","null","<button class=""jspsych-btn""><img src=""stimuli/white_square.png"" style=""width: 200px;height: 200px;""></button>","null","pentagram","star","[""pentagram"",""star""]","left-right","[""pentagram"",""star""]","1","practice","1","left","iti",""
"html-button-response","20","563170","0.0-16.0","CAN_141","141","","","","","","11585","","0","","","","","","","","","","",""
"html-button-response","21","564094","0.0-17.0","CAN_141","141","","","","","","915","","0","yellow","brown","[""yellow"",""brown"",""high nameability""]","left-right","[""yellow"",""brown"",""high nameability""]","1","high nameability","1","left","trigger",""
"html-button-response","22","564966","0.0-18.0-0.0","CAN_141","141","","","","","","858","<button class=""jspsych-btn""><img src=""stimuli/yellow.png"" style=""width: 200px;height: 200px;""></button>","0","yellow","brown","[""yellow"",""brown"",""high nameability""]","left-right","[""yellow"",""brown"",""high nameability""]","1","high nameability","1","left","response","1"
"html-audio-button-response","23","565168","0.0-18.0-1.0","CAN_141","141","","","","","","null","stimuli/bleep.m4a","null","yellow","brown","[""yellow"",""brown"",""high nameability""]","left-right","[""yellow"",""brown"",""high nameability""]","1","high nameability","1","left","audio_feedback","1"
"html-button-response","24","565691","0.0-19.0","CAN_141","141","","","","","","null","<button class=""jspsych-btn""><img src=""stimuli/white_square.png"" style=""width: 200px;height: 200px;""></button>","null","yellow","brown","[""yellow"",""brown"",""high nameability""]","left-right","[""yellow"",""brown"",""high nameability""]","1","high nameability","1","left","iti",""
"html-button-response","25","566504","0.0-20.0","CAN_141","141","","","","","","793","","0","orange","brown","[""orange"",""brown"",""high nameability""]","left-right","[""orange"",""brown"",""high nameability""]","1","high nameability","2","left","trigger",""
"html-button-response","26","567342","0.0-21.0-0.0","CAN_141","141","","","","","","829","<button class=""jspsych-btn""><img src=""stimuli/orange.png"" style=""width: 200px;height: 200px;""></button>","0","orange","brown","[""orange"",""brown"",""high nameability""]","left-right","[""orange"",""brown"",""high nameability""]","1","high nameability","2","left","response","1"
"html-audio-button-response","27","567547","0.0-21.0-1.0","CAN_141","141","","","","","","null","stimuli/bleep.m4a","null","orange","brown","[""orange"",""brown"",""high nameability""]","left-right","[""orange"",""brown"",""high nameability""]","1","high nameability","2","left","audio_feedback","1"
"html-button-response","28","568071","0.0-22.0","CAN_141","141","","","","","","null","<button class=""jspsych-btn""><img src=""stimuli/white_square.png"" style=""width: 200px;height: 200px;""></button>","null","orange","brown","[""orange"",""brown"",""high nameability""]","left-right","[""orange"",""brown"",""high nameability""]","1","high nameability","2","left","iti",""
"html-button-response","29","568857","0.0-23.0","CAN_141","141","","","","","","767","","0","yellow","purple","[""yellow"",""purple"",""high nameability""]","right-left","[""purple"",""yellow""]","1","high nameability","3","right","trigger",""
"html-button-response","30","569654","0.0-24.0-0.0","CAN_141","141","","","","","","790","<button class=""jspsych-btn""><img src=""stimuli/yellow.png"" style=""width: 200px;height: 200px;""></button>","1","yellow","purple","[""yellow"",""purple"",""high nameability""]","right-left","[""purple"",""yellow""]","1","high nameability","3","right","response","1"
"html-audio-button-response","31","569860","0.0-24.0-1.0","CAN_141","141","","","","","","null","stimuli/bleep.m4a","null","yellow","purple","[""yellow"",""purple"",""high nameability""]","right-left","[""purple"",""yellow""]","1","high nameability","3","right","audio_feedback","1"
"html-button-response","32","570382","0.0-25.0","CAN_141","141","","","","","","null","<button class=""jspsych-btn""><img src=""stimuli/white_square.png"" style=""width: 200px;height: 200px;""></button>","null","yellow","purple","[""yellow"",""purple"",""high nameability""]","right-left","[""purple"",""yellow""]","1","high nameability","3","right","iti",""
"html-button-response","33","571126","0.0-26.0","CAN_141","141","","","","","","708","","0","mustard","lightred","[""mustard"",""lightred"",""low nameability""]","right-left","[""lightred"",""mustard""]","1","low nameability","4","right","trigger",""
"html-button-response","34","572025","0.0-27.0-0.0","CAN_141","141","","","","","","886","<button class=""jspsych-btn""><img src=""stimuli/mustard.png"" style=""width: 200px;height: 200px;""></button>","1","mustard","lightred","[""mustard"",""lightred"",""low nameability""]","right-left","[""lightred"",""mustard""]","1","low nameability","4","right","response","1"
"html-audio-button-response","35","572233","0.0-27.0-1.0","CAN_141","141","","","","","","null","stimuli/bleep.m4a","null","mustard","lightred","[""mustard"",""lightred"",""low nameability""]","right-left","[""lightred"",""mustard""]","1","low nameability","4","right","audio_feedback","1"
"html-button-response","36","572754","0.0-28.0","CAN_141","141","","","","","","null","<button class=""jspsych-btn""><img src=""stimuli/white_square.png"" style=""width: 200px;height: 200px;""></button>","null","mustard","lightred","[""mustard"",""lightred"",""low nameability""]","right-left","[""lightred"",""mustard""]","1","low nameability","4","right","iti",""
"html-button-response","37","573470","0.0-29.0","CAN_141","141","","","","","","695","","0","brown","red","[""brown"",""red"",""high nameability""]","right-left","[""red"",""brown""]","1","high nameability","5","right","trigger",""
"html-button-response","38","574264","0.0-30.0-0.0","CAN_141","141","","","","","","786","<button class=""jspsych-btn""><img src=""stimuli/brown.png"" style=""width: 200px;height: 200px;""></button>","1","brown","red","[""brown"",""red"",""high nameability""]","right-left","[""red"",""brown""]","1","high nameability","5","right","response","1"
"html-audio-button-response","39","574467","0.0-30.0-1.0","CAN_141","141","","","","","","null","stimuli/bleep.m4a","null","brown","red","[""brown"",""red"",""high nameability""]","right-left","[""red"",""brown""]","1","high nameability","5","right","audio_feedback","1"
"html-button-response","40","574986","0.0-31.0","CAN_141","141","","","","","","null","<button class=""jspsych-btn""><img src=""stimuli/white_square.png"" style=""width: 200px;height: 200px;""></button>","null","brown","red","[""brown"",""red"",""high nameability""]","right-left","[""red"",""brown""]","1","high nameability","5","right","iti",""
"html-button-response","41","575682","0.0-32.0","CAN_141","141","","","","","","675","","0","brown","blue","[""brown"",""blue"",""high nameability""]","right-left","[""blue"",""brown""]","1","high nameability","6","right","trigger",""
"html-button-response","42","576643","0.0-33.0-0.0","CAN_141","141","","","","","","954","<button class=""jspsych-btn""><img src=""stimuli/brown.png"" style=""width: 200px;height: 200px;""></button>","1","brown","blue","[""brown"",""blue"",""high nameability""]","right-left","[""blue"",""brown""]","1","high nameability","6","right","response","1"
"html-audio-button-response","43","576847","0.0-33.0-1.0","CAN_141","141","","","","","","null","stimuli/bleep.m4a","null","brown","blue","[""brown"",""blue"",""high nameability""]","right-left","[""blue"",""brown""]","1","high nameability","6","right","audio_feedback","1"
"html-button-response","44","577363","0.0-34.0","CAN_141","141","","","","","","null","<button class=""jspsych-btn""><img src=""stimuli/white_square.png"" style=""width: 200px;height: 200px;""></button>","null","brown","blue","[""brown"",""blue"",""high nameability""]","right-left","[""blue"",""brown""]","1","high nameability","6","right","iti",""
"html-button-response","45","578048","0.0-35.0","CAN_141","141","","","","","","674","","0","lightred","neonyellow","[""lightred"",""neonyellow"",""low nameability""]","right-left","[""neonyellow"",""lightred""]","1","low nameability","7","right","trigger",""
"html-button-response","46","578860","0.0-36.0-0.0","CAN_141","141","","","","","","803","<button class=""jspsych-btn""><img src=""stimuli/lightred.png"" style=""width: 200px;height: 200px;""></button>","1","lightred","neonyellow","[""lightred"",""neonyellow"",""low nameability""]","right-left","[""neonyellow"",""lightred""]","1","low nameability","7","right","response","1"
"html-audio-button-response","47","579070","0.0-36.0-1.0","CAN_141","141","","","","","","null","stimuli/bleep.m4a","null","lightred","neonyellow","[""lightred"",""neonyellow"",""low nameability""]","right-left","[""neonyellow"",""lightred""]","1","low nameability","7","right","audio_feedback","1"
"html-button-response","48","579596","0.0-37.0","CAN_141","141","","","","","","null","<button class=""jspsych-btn""><img src=""stimuli/white_square.png"" style=""width: 200px;height: 200px;""></button>","null","lightred","neonyellow","[""lightred"",""neonyellow"",""low nameability""]","right-left","[""neonyellow"",""lightred""]","1","low nameability","7","right","iti",""
"html-button-response","49","580266","0.0-38.0","CAN_141","141","","","","","","654","","0","neonyellow","lightred","[""neonyellow"",""lightred"",""low nameability""]","right-left","[""lightred"",""neonyellow""]","1","low nameability","8","right","trigger",""
"html-button-response","50","581098","0.0-39.0-0.0","CAN_141","141","","","","","","825","<button class=""jspsych-btn""><img src=""stimuli/neonyellow.png"" style=""width: 200px;height: 200px;""></button>","1","neonyellow","lightred","[""neonyellow"",""lightred"",""low nameability""]","right-left","[""lightred"",""neonyellow""]","1","low nameability","8","right","response","1"
"html-audio-button-response","51","581306","0.0-39.0-1.0","CAN_141","141","","","","","","null","stimuli/bleep.m4a","null","neonyellow","lightred","[""neonyellow"",""lightred"",""low nameability""]","right-left","[""lightred"",""neonyellow""]","1","low nameability","8","right","audio_feedback","1"
"html-button-response","52","581819","0.0-40.0","CAN_141","141","","","","","","null","<button class=""jspsych-btn""><img src=""stimuli/white_square.png"" style=""width: 200px;height: 200px;""></button>","null","neonyellow","lightred","[""neonyellow"",""lightred"",""low nameability""]","right-left","[""lightred"",""neonyellow""]","1","low nameability","8","right","iti",""
"html-button-response","53","582560","0.0-41.0","CAN_141","141","","","","","","727","","0","mustard","pink","[""mustard"",""pink"",""low nameability""]","right-left","[""pink"",""mustard""]","1","low nameability","9","right","trigger",""
"html-button-response","54","583337","0.0-42.0-0.0","CAN_141","141","","","","","","761","<button class=""jspsych-btn""><img src=""stimuli/mustard.png"" style=""width: 200px;height: 200px;""></button>","1","mustard","pink","[""mustard"",""pink"",""low nameability""]","right-left","[""pink"",""mustard""]","1","low nameability","9","right","response","1"
"html-audio-button-response","55","583548","0.0-42.0-1.0","CAN_141","141","","","","","","null","stimuli/bleep.m4a","null","mustard","pink","[""mustard"",""pink"",""low nameability""]","right-left","[""pink"",""mustard""]","1","low nameability","9","right","audio_feedback","1"
"html-button-response","56","584077","0.0-43.0","CAN_141","141","","","","","","null","<button class=""jspsych-btn""><img src=""stimuli/white_square.png"" style=""width: 200px;height: 200px;""></button>","null","mustard","pink","[""mustard"",""pink"",""low nameability""]","right-left","[""pink"",""mustard""]","1","low nameability","9","right","iti",""
"html-button-response","57","584775","0.0-44.0","CAN_141","141","","","","","","676","","0","blue","yellow","[""blue"",""yellow"",""high nameability""]","left-right","[""blue"",""yellow"",""high nameability""]","1","high nameability","10","left","trigger",""
"html-button-response","58","585573","0.0-45.0-0.0","CAN_141","141","","","","","","785","<button class=""jspsych-btn""><img src=""stimuli/blue.png"" style=""width: 200px;height: 200px;""></button>","0","blue","yellow","[""blue"",""yellow"",""high nameability""]","left-right","[""blue"",""yellow"",""high nameability""]","1","high nameability","10","left","response","1"
"html-audio-button-response","59","585783","0.0-45.0-1.0","CAN_141","141","","","","","","null","stimuli/bleep.m4a","null","blue","yellow","[""blue"",""yellow"",""high nameability""]","left-right","[""blue"",""yellow"",""high nameability""]","1","high nameability","10","left","audio_feedback","1"
"html-button-response","60","586311","0.0-46.0","CAN_141","141","","","","","","null","<button class=""jspsych-btn""><img src=""stimuli/white_square.png"" style=""width: 200px;height: 200px;""></button>","null","blue","yellow","[""blue"",""yellow"",""high nameability""]","left-right","[""blue"",""yellow"",""high nameability""]","1","high nameability","10","left","iti",""
"pavlovia","61","586422","0.0-47.0","CAN_141","141","","","","","","","","","","","","","","","","","","",""
"pavlovia","62","586438","0.0-48.0","CAN_141","141","","","","","","","","","","","","","","","","","","",""
"html-audio-button-response","63","588673","0.0-49.0","CAN_141","141","","","","","","2371","stimuli/tada.m4a","0","","","","","","","","","","",""
"html-button-response","64","589607","0.0-50.0","CAN_141","141","","","","","","926","","0","","","","","","","","","","",""
"html-button-response","65","590403","0.0-51.0","CAN_141","141","","","","","","782","","0","neonyellow","darkgreenblue","[""neonyellow"",""darkgreenblue"",""low nameability""]","right-left","[""darkgreenblue"",""neonyellow""]","2","low nameability","11","right","trigger",""
"html-button-response","66","591127","0.0-52.0-0.0","CAN_141","141","","","","","","713","<button class=""jspsych-btn""><img src=""stimuli/neonyellow.png"" style=""width: 200px;height: 200px;""></button>","1","neonyellow","darkgreenblue","[""neonyellow"",""darkgreenblue"",""low nameability""]","right-left","[""darkgreenblue"",""neonyellow""]","2","low nameability","11","right","response","1"
"html-audio-button-response","67","591336","0.0-52.0-1.0","CAN_141","141","","","","","","null","stimuli/bleep.m4a","null","neonyellow","darkgreenblue","[""neonyellow"",""darkgreenblue"",""low nameability""]","right-left","[""darkgreenblue"",""neonyellow""]","2","low nameability","11","right","audio_feedback","1"
"html-button-response","68","591865","0.0-53.0","CAN_141","141","","","","","","null","<button class=""jspsych-btn""><img src=""stimuli/white_square.png"" style=""width: 200px;height: 200px;""></button>","null","neonyellow","darkgreenblue","[""neonyellow"",""darkgreenblue"",""low nameability""]","right-left","[""darkgreenblue"",""neonyellow""]","2","low nameability","11","right","iti",""
"html-button-response","69","592556","0.0-54.0","CAN_141","141","","","","","","673","","0","pink","neonyellow","[""pink"",""neonyellow"",""low nameability""]","left-right","[""pink"",""neonyellow"",""low nameability""]","2","low nameability","12","left","trigger",""
"html-button-response","70","593303","0.0-55.0-0.0","CAN_141","141","","","","","","737","<button class=""jspsych-btn""><img src=""stimuli/pink.png"" style=""width: 200px;height: 200px;""></button>","0","pink","neonyellow","[""pink"",""neonyellow"",""low nameability""]","left-right","[""pink"",""neonyellow"",""low nameability""]","2","low nameability","12","left","response","1"
"html-audio-button-response","71","593512","0.0-55.0-1.0","CAN_141","141","","","","","","null","stimuli/bleep.m4a","null","pink","neonyellow","[""pink"",""neonyellow"",""low nameability""]","left-right","[""pink"",""neonyellow"",""low nameability""]","2","low nameability","12","left","audio_feedback","1"
"html-button-response","72","594034","0.0-56.0","CAN_141","141","","","","","","null","<button class=""jspsych-btn""><img src=""stimuli/white_square.png"" style=""width: 200px;height: 200px;""></button>","null","pink","neonyellow","[""pink"",""neonyellow"",""low nameability""]","left-right","[""pink"",""neonyellow"",""low nameability""]","2","low nameability","12","left","iti",""
"html-button-response","73","594738","0.0-57.0","CAN_141","141","","","","","","682","","0","orange","purple","[""orange"",""purple"",""high nameability""]","right-left","[""purple"",""orange""]","2","high nameability","13","right","trigger",""
"html-button-response","74","595427","0.0-58.0-0.0","CAN_141","141","","","","","","680","<button class=""jspsych-btn""><img src=""stimuli/orange.png"" style=""width: 200px;height: 200px;""></button>","1","orange","purple","[""orange"",""purple"",""high nameability""]","right-left","[""purple"",""orange""]","2","high nameability","13","right","response","1"
"html-audio-button-response","75","595631","0.0-58.0-1.0","CAN_141","141","","","","","","null","stimuli/bleep.m4a","null","orange","purple","[""orange"",""purple"",""high nameability""]","right-left","[""purple"",""orange""]","2","high nameability","13","right","audio_feedback","1"
"html-button-response","76","596155","0.0-59.0","CAN_141","141","","","","","","null","<button class=""jspsych-btn""><img src=""stimuli/white_square.png"" style=""width: 200px;height: 200px;""></button>","null","orange","purple","[""orange"",""purple"",""high nameability""]","right-left","[""purple"",""orange""]","2","high nameability","13","right","iti",""
"html-button-response","77","596929","0.0-60.0","CAN_141","141","","","","","","756","","0","yellow","red","[""yellow"",""red"",""high nameability""]","right-left","[""red"",""yellow""]","2","high nameability","14","right","trigger",""
"html-button-response","78","597662","0.0-61.0-0.0","CAN_141","141","","","","","","724","<button class=""jspsych-btn""><img src=""stimuli/yellow.png"" style=""width: 200px;height: 200px;""></button>","1","yellow","red","[""yellow"",""red"",""high nameability""]","right-left","[""red"",""yellow""]","2","high nameability","14","right","response","1"
"html-audio-button-response","79","597868","0.0-61.0-1.0","CAN_141","141","","","","","","null","stimuli/bleep.m4a","null","yellow","red","[""yellow"",""red"",""high nameability""]","right-left","[""red"",""yellow""]","2","high nameability","14","right","audio_feedback","1"
"html-button-response","80","598389","0.0-62.0","CAN_141","141","","","","","","null","<button class=""jspsych-btn""><img src=""stimuli/white_square.png"" style=""width: 200px;height: 200px;""></button>","null","yellow","red","[""yellow"",""red"",""high nameability""]","right-left","[""red"",""yellow""]","2","high nameability","14","right","iti",""
"html-button-response","81","599052","0.0-63.0","CAN_141","141","","","","","","643","","0","blue","purple","[""blue"",""purple"",""high nameability""]","left-right","[""blue"",""purple"",""high nameability""]","2","high nameability","15","left","trigger",""
"html-button-response","82","599775","0.0-64.0-0.0","CAN_141","141","","","","","","715","<button class=""jspsych-btn""><img src=""stimuli/blue.png"" style=""width: 200px;height: 200px;""></button>","0","blue","purple","[""blue"",""purple"",""high nameability""]","left-right","[""blue"",""purple"",""high nameability""]","2","high nameability","15","left","response","1"
"html-audio-button-response","83","599981","0.0-64.0-1.0","CAN_141","141","","","","","","null","stimuli/bleep.m4a","null","blue","purple","[""blue"",""purple"",""high nameability""]","left-right","[""blue"",""purple"",""high nameability""]","2","high nameability","15","left","audio_feedback","1"
"html-button-response","84","600509","0.0-65.0","CAN_141","141","","","","","","null","<button class=""jspsych-btn""><img src=""stimuli/white_square.png"" style=""width: 200px;height: 200px;""></button>","null","blue","purple","[""blue"",""purple"",""high nameability""]","left-right","[""blue"",""purple"",""high nameability""]","2","high nameability","15","left","iti",""
"html-button-response","85","601185","0.0-66.0","CAN_141","141","","","","","","662","","0","lightred","mustard","[""lightred"",""mustard"",""low nameability""]","right-left","[""mustard"",""lightred""]","2","low nameability","16","right","trigger",""
"html-button-response","86","601894","0.0-67.0-0.0","CAN_141","141","","","","","","700","<button class=""jspsych-btn""><img src=""stimuli/lightred.png"" style=""width: 200px;height: 200px;""></button>","1","lightred","mustard","[""lightred"",""mustard"",""low nameability""]","right-left","[""mustard"",""lightred""]","2","low nameability","16","right","response","1"
"html-audio-button-response","87","602100","0.0-67.0-1.0","CAN_141","141","","","","","","null","stimuli/bleep.m4a","null","lightred","mustard","[""lightred"",""mustard"",""low nameability""]","right-left","[""mustard"",""lightred""]","2","low nameability","16","right","audio_feedback","1"
"html-button-response","88","602622","0.0-68.0","CAN_141","141","","","","","","null","<button class=""jspsych-btn""><img src=""stimuli/white_square.png"" style=""width: 200px;height: 200px;""></button>","null","lightred","mustard","[""lightred"",""mustard"",""low nameability""]","right-left","[""mustard"",""lightred""]","2","low nameability","16","right","iti",""
"html-button-response","89","603317","0.0-69.0","CAN_141","141","","","","","","679","","0","pink","lightred","[""pink"",""lightred"",""low nameability""]","left-right","[""pink"",""lightred"",""low nameability""]","2","low nameability","17","left","trigger",""
"html-button-response","90","604087","0.0-70.0-0.0","CAN_141","141","","","","","","763","<button class=""jspsych-btn""><img src=""stimuli/pink.png"" style=""width: 200px;height: 200px;""></button>","0","pink","lightred","[""pink"",""lightred"",""low nameability""]","left-right","[""pink"",""lightred"",""low nameability""]","2","low nameability","17","left","response","1"
"html-audio-button-response","91","604294","0.0-70.0-1.0","CAN_141","141","","","","","","null","stimuli/bleep.m4a","null","pink","lightred","[""pink"",""lightred"",""low nameability""]","left-right","[""pink"",""lightred"",""low nameability""]","2","low nameability","17","left","audio_feedback","1"
"html-button-response","92","604819","0.0-71.0","CAN_141","141","","","","","","null","<button class=""jspsych-btn""><img src=""stimuli/white_square.png"" style=""width: 200px;height: 200px;""></button>","null","pink","lightred","[""pink"",""lightred"",""low nameability""]","left-right","[""pink"",""lightred"",""low nameability""]","2","low nameability","17","left","iti",""
"html-button-response","93","605589","0.0-72.0","CAN_141","141","","","","","","747","","0","orange","blue","[""orange"",""blue"",""high nameability""]","right-left","[""blue"",""orange""]","2","high nameability","18","right","trigger",""
"html-button-response","94","606279","0.0-73.0-0.0","CAN_141","141","","","","","","682","<button class=""jspsych-btn""><img src=""stimuli/orange.png"" style=""width: 200px;height: 200px;""></button>","1","orange","blue","[""orange"",""blue"",""high nameability""]","right-left","[""blue"",""orange""]","2","high nameability","18","right","response","1"
"html-audio-button-response","95","606483","0.0-73.0-1.0","CAN_141","141","","","","","","null","stimuli/bleep.m4a","null","orange","blue","[""orange"",""blue"",""high nameability""]","right-left","[""blue"",""orange""]","2","high nameability","18","right","audio_feedback","1"
"html-button-response","96","607007","0.0-74.0","CAN_141","141","","","","","","null","<button class=""jspsych-btn""><img src=""stimuli/white_square.png"" style=""width: 200px;height: 200px;""></button>","null","orange","blue","[""orange"",""blue"",""high nameability""]","right-left","[""blue"",""orange""]","2","high nameability","18","right","iti",""
"html-button-response","97","607571","0.0-75.0","CAN_141","141","","","","","","547","","0","yellow","orange","[""yellow"",""orange"",""high nameability""]","left-right","[""yellow"",""orange"",""high nameability""]","2","high nameability","19","left","trigger",""
"html-button-response","98","608688","0.0-76.0-0.0","CAN_141","141","","","","","","1111","<button class=""jspsych-btn""><img src=""stimuli/yellow.png"" style=""width: 200px;height: 200px;""></button>","0","yellow","orange","[""yellow"",""orange"",""high nameability""]","left-right","[""yellow"",""orange"",""high nameability""]","2","high nameability","19","left","response","1"
"html-audio-button-response","99","608896","0.0-76.0-1.0","CAN_141","141","","","","","","null","stimuli/bleep.m4a","null","yellow","orange","[""yellow"",""orange"",""high nameability""]","left-right","[""yellow"",""orange"",""high nameability""]","2","high nameability","19","left","audio_feedback","1"
"html-button-response","100","609420","0.0-77.0","CAN_141","141","","","","","","null","<button class=""jspsych-btn""><img src=""stimuli/white_square.png"" style=""width: 200px;height: 200px;""></button>","null","yellow","orange","[""yellow"",""orange"",""high nameability""]","left-right","[""yellow"",""orange"",""high nameability""]","2","high nameability","19","left","iti",""
"html-button-response","101","610163","0.0-78.0","CAN_141","141","","","","","","720","","0","blue","orange","[""blue"",""orange"",""high nameability""]","right-left","[""orange"",""blue""]","2","high nameability","20","right","trigger",""
"html-button-response","102","610909","0.0-79.0-0.0","CAN_141","141","","","","","","739","<button class=""jspsych-btn""><img src=""stimuli/blue.png"" style=""width: 200px;height: 200px;""></button>","1","blue","orange","[""blue"",""orange"",""high nameability""]","right-left","[""orange"",""blue""]","2","high nameability","20","right","response","1"
"html-audio-button-response","103","611117","0.0-79.0-1.0","CAN_141","141","","","","","","null","stimuli/bleep.m4a","null","blue","orange","[""blue"",""orange"",""high nameability""]","right-left","[""orange"",""blue""]","2","high nameability","20","right","audio_feedback","1"
"html-button-response","104","611637","0.0-80.0","CAN_141","141","","","","","","null","<button class=""jspsych-btn""><img src=""stimuli/white_square.png"" style=""width: 200px;height: 200px;""></button>","null","blue","orange","[""blue"",""orange"",""high nameability""]","right-left","[""orange"",""blue""]","2","high nameability","20","right","iti",""
"pavlovia","105","611724","0.0-81.0","CAN_141","141","","","","","","","","","","","","","","","","","","",""
"pavlovia","106","611735","0.0-82.0","CAN_141","141","","","","","","","","","","","","","","","","","","",""
"html-audio-button-response","107","613557","0.0-83.0","CAN_141","141","","","","","","1917","stimuli/tada.m4a","0","","","","","","","","","","",""
"html-button-response","108","614525","0.0-84.0","CAN_141","141","","","","","","960","","0","","","","","","","","","","",""
"html-button-response","109","615429","0.0-85.0","CAN_141","141","","","","","","897","","0","purple","red","[""purple"",""red"",""high nameability""]","left-right","[""purple"",""red"",""high nameability""]","3","high nameability","21","left","trigger",""
"html-button-response","110","616192","0.0-86.0-0.0","CAN_141","141","","","","","","757","<button class=""jspsych-btn""><img src=""stimuli/purple.png"" style=""width: 200px;height: 200px;""></button>","0","purple","red","[""purple"",""red"",""high nameability""]","left-right","[""purple"",""red"",""high nameability""]","3","high nameability","21","left","response","1"
"html-audio-button-response","111","616399","0.0-86.0-1.0","CAN_141","141","","","","","","null","stimuli/bleep.m4a","null","purple","red","[""purple"",""red"",""high nameability""]","left-right","[""purple"",""red"",""high nameability""]","3","high nameability","21","left","audio_feedback","1"
"html-button-response","112","616923","0.0-87.0","CAN_141","141","","","","","","null","<button class=""jspsych-btn""><img src=""stimuli/white_square.png"" style=""width: 200px;height: 200px;""></button>","null","purple","red","[""purple"",""red"",""high nameability""]","left-right","[""purple"",""red"",""high nameability""]","3","high nameability","21","left","iti",""
"html-button-response","113","617523","0.0-88.0","CAN_141","141","","","","","","578","","0","darkgreenblue","turquoise","[""darkgreenblue"",""turquoise"",""low nameability""]","left-right","[""darkgreenblue"",""turquoise"",""low nameability""]","3","low nameability","22","left","trigger",""
"html-button-response","114","618295","0.0-89.0-0.0","CAN_141","141","","","","","","763","<button class=""jspsych-btn""><img src=""stimuli/darkgreenblue.png"" style=""width: 200px;height: 200px;""></button>","0","darkgreenblue","turquoise","[""darkgreenblue"",""turquoise"",""low nameability""]","left-right","[""darkgreenblue"",""turquoise"",""low nameability""]","3","low nameability","22","left","response","1"
"html-audio-button-response","115","618498","0.0-89.0-1.0","CAN_141","141","","","","","","null","stimuli/bleep.m4a","null","darkgreenblue","turquoise","[""darkgreenblue"",""turquoise"",""low nameability""]","left-right","[""darkgreenblue"",""turquoise"",""low nameability""]","3","low nameability","22","left","audio_feedback","1"
"html-button-response","116","619018","0.0-90.0","CAN_141","141","","","","","","null","<button class=""jspsych-btn""><img src=""stimuli/white_square.png"" style=""width: 200px;height: 200px;""></button>","null","darkgreenblue","turquoise","[""darkgreenblue"",""turquoise"",""low nameability""]","left-right","[""darkgreenblue"",""turquoise"",""low nameability""]","3","low nameability","22","left","iti",""
"html-button-response","117","619719","0.0-91.0","CAN_141","141","","","","","","680","","0","mustard","neonyellow","[""mustard"",""neonyellow"",""low nameability""]","right-left","[""neonyellow"",""mustard""]","3","low nameability","23","right","trigger",""
"html-button-response","118","620628","0.0-92.0-0.0","CAN_141","141","","","","","","900","<button class=""jspsych-btn""><img src=""stimuli/mustard.png"" style=""width: 200px;height: 200px;""></button>","1","mustard","neonyellow","[""mustard"",""neonyellow"",""low nameability""]","right-left","[""neonyellow"",""mustard""]","3","low nameability","23","right","response","1"
"html-audio-button-response","119","620833","0.0-92.0-1.0","CAN_141","141","","","","","","null","stimuli/bleep.m4a","null","mustard","neonyellow","[""mustard"",""neonyellow"",""low nameability""]","right-left","[""neonyellow"",""mustard""]","3","low nameability","23","right","audio_feedback","1"
"html-button-response","120","621354","0.0-93.0","CAN_141","141","","","","","","null","<button class=""jspsych-btn""><img src=""stimuli/white_square.png"" style=""width: 200px;height: 200px;""></button>","null","mustard","neonyellow","[""mustard"",""neonyellow"",""low nameability""]","right-left","[""neonyellow"",""mustard""]","3","low nameability","23","right","iti",""
"html-button-response","121","622160","0.0-94.0","CAN_141","141","","","","","","790","","0","purple","blue","[""purple"",""blue"",""high nameability""]","left-right","[""purple"",""blue"",""high nameability""]","3","high nameability","24","left","trigger",""
"html-button-response","122","622938","0.0-95.0-0.0","CAN_141","141","","","","","","770","<button class=""jspsych-btn""><img src=""stimuli/purple.png"" style=""width: 200px;height: 200px;""></button>","0","purple","blue","[""purple"",""blue"",""high nameability""]","left-right","[""purple"",""blue"",""high nameability""]","3","high nameability","24","left","response","1"
"html-audio-button-response","123","623140","0.0-95.0-1.0","CAN_141","141","","","","","","null","stimuli/bleep.m4a","null","purple","blue","[""purple"",""blue"",""high nameability""]","left-right","[""purple"",""blue"",""high nameability""]","3","high nameability","24","left","audio_feedback","1"
"html-button-response","124","623663","0.0-96.0","CAN_141","141","","","","","","null","<button class=""jspsych-btn""><img src=""stimuli/white_square.png"" style=""width: 200px;height: 200px;""></button>","null","purple","blue","[""purple"",""blue"",""high nameability""]","left-right","[""purple"",""blue"",""high nameability""]","3","high nameability","24","left","iti",""
"html-button-response","125","624426","0.0-97.0","CAN_141","141","","","","","","738","","0","red","orange","[""red"",""orange"",""high nameability""]","left-right","[""red"",""orange"",""high nameability""]","3","high nameability","25","left","trigger",""
"html-button-response","126","625142","0.0-98.0-0.0","CAN_141","141","","","","","","706","<button class=""jspsych-btn""><img src=""stimuli/red.png"" style=""width: 200px;height: 200px;""></button>","0","red","orange","[""red"",""orange"",""high nameability""]","left-right","[""red"",""orange"",""high nameability""]","3","high nameability","25","left","response","1"
"html-audio-button-response","127","625350","0.0-98.0-1.0","CAN_141","141","","","","","","null","stimuli/bleep.m4a","null","red","orange","[""red"",""orange"",""high nameability""]","left-right","[""red"",""orange"",""high nameability""]","3","high nameability","25","left","audio_feedback","1"
"html-button-response","128","625876","0.0-99.0","CAN_141","141","","","","","","null","<button class=""jspsych-btn""><img src=""stimuli/white_square.png"" style=""width: 200px;height: 200px;""></button>","null","red","orange","[""red"",""orange"",""high nameability""]","left-right","[""red"",""orange"",""high nameability""]","3","high nameability","25","left","iti",""
"html-button-response","129","626581","0.0-100.0","CAN_141","141","","","","","","681","","0","purple","orange","[""purple"",""orange"",""high nameability""]","left-right","[""purple"",""orange"",""high nameability""]","3","high nameability","26","left","trigger",""
"html-button-response","130","627347","0.0-101.0-0.0","CAN_141","141","","","","","","757","<button class=""jspsych-btn""><img src=""stimuli/purple.png"" style=""width: 200px;height: 200px;""></button>","0","purple","orange","[""purple"",""orange"",""high nameability""]","left-right","[""purple"",""orange"",""high nameability""]","3","high nameability","26","left","response","1"
"html-audio-button-response","131","627553","0.0-101.0-1.0","CAN_141","141","","","","","","null","stimuli/bleep.m4a","null","purple","orange","[""purple"",""orange"",""high nameability""]","left-right","[""purple"",""orange"",""high nameability""]","3","high nameability","26","left","audio_feedback","1"
"html-button-response","132","628071","0.0-102.0","CAN_141","141","","","","","","null","<button class=""jspsych-btn""><img src=""stimuli/white_square.png"" style=""width: 200px;height: 200px;""></button>","null","purple","orange","[""purple"",""orange"",""high nameability""]","left-right","[""purple"",""orange"",""high nameability""]","3","high nameability","26","left","iti",""
"html-button-response","133","629040","0.0-103.0","CAN_141","141","","","","","","951","","0","red","blue","[""red"",""blue"",""high nameability""]","right-left","[""blue"",""red""]","3","high nameability","27","right","trigger",""
"html-button-response","134","629866","0.0-104.0-0.0","CAN_141","141","","","","","","817","<button class=""jspsych-btn""><img src=""stimuli/red.png"" style=""width: 200px;height: 200px;""></button>","1","red","blue","[""red"",""blue"",""high nameability""]","right-left","[""blue"",""red""]","3","high nameability","27","right","response","1"
"html-audio-button-response","135","630072","0.0-104.0-1.0","CAN_141","141","","","","","","null","stimuli/bleep.m4a","null","red","blue","[""red"",""blue"",""high nameability""]","right-left","[""blue"",""red""]","3","high nameability","27","right","audio_feedback","1"
"html-button-response","136","630596","0.0-105.0","CAN_141","141","","","","","","null","<button class=""jspsych-btn""><img src=""stimuli/white_square.png"" style=""width: 200px;height: 200px;""></button>","null","red","blue","[""red"",""blue"",""high nameability""]","right-left","[""blue"",""red""]","3","high nameability","27","right","iti",""
"html-button-response","137","631278","0.0-106.0","CAN_141","141","","","","","","664","","0","turquoise","darkgreenblue","[""turquoise"",""darkgreenblue"",""low nameability""]","right-left","[""darkgreenblue"",""turquoise""]","3","low nameability","28","right","trigger",""
"html-button-response","138","632036","0.0-107.0-0.0","CAN_141","141","","","","","","749","<button class=""jspsych-btn""><img src=""stimuli/turquoise.png"" style=""width: 200px;height: 200px;""></button>","1","turquoise","darkgreenblue","[""turquoise"",""darkgreenblue"",""low nameability""]","right-left","[""darkgreenblue"",""turquoise""]","3","low nameability","28","right","response","1"
"html-audio-button-response","139","632240","0.0-107.0-1.0","CAN_141","141","","","","","","null","stimuli/bleep.m4a","null","turquoise","darkgreenblue","[""turquoise"",""darkgreenblue"",""low nameability""]","right-left","[""darkgreenblue"",""turquoise""]","3","low nameability","28","right","audio_feedback","1"
"html-button-response","140","632758","0.0-108.0","CAN_141","141","","","","","","null","<button class=""jspsych-btn""><img src=""stimuli/white_square.png"" style=""width: 200px;height: 200px;""></button>","null","turquoise","darkgreenblue","[""turquoise"",""darkgreenblue"",""low nameability""]","right-left","[""darkgreenblue"",""turquoise""]","3","low nameability","28","right","iti",""
"html-button-response","141","633413","0.0-109.0","CAN_141","141","","","","","","633","","0","purple","brown","[""purple"",""brown"",""high nameability""]","right-left","[""brown"",""purple""]","3","high nameability","29","right","trigger",""
"html-button-response","142","634173","0.0-110.0-0.0","CAN_141","141","","","","","","752","<button class=""jspsych-btn""><img src=""stimuli/purple.png"" style=""width: 200px;height: 200px;""></button>","1","purple","brown","[""purple"",""brown"",""high nameability""]","right-left","[""brown"",""purple""]","3","high nameability","29","right","response","1"
"html-audio-button-response","143","634380","0.0-110.0-1.0","CAN_141","141","","","","","","null","stimuli/bleep.m4a","null","purple","brown","[""purple"",""brown"",""high nameability""]","right-left","[""brown"",""purple""]","3","high nameability","29","right","audio_feedback","1"
"html-button-response","144","634906","0.0-111.0","CAN_141","141","","","","","","null","<button class=""jspsych-btn""><img src=""stimuli/white_square.png"" style=""width: 200px;height: 200px;""></button>","null","purple","brown","[""purple"",""brown"",""high nameability""]","right-left","[""brown"",""purple""]","3","high nameability","29","right","iti",""
"html-button-response","145","635916","0.0-112.0","CAN_141","141","","","","","","980","","0","turquoise","pink","[""turquoise"",""pink"",""low nameability""]","right-left","[""pink"",""turquoise""]","3","low nameability","30","right","trigger",""
"html-button-response","146","636738","0.0-113.0-0.0","CAN_141","141","","","","","","815","<button class=""jspsych-btn""><img src=""stimuli/turquoise.png"" style=""width: 200px;height: 200px;""></button>","1","turquoise","pink","[""turquoise"",""pink"",""low nameability""]","right-left","[""pink"",""turquoise""]","3","low nameability","30","right","response","1"
"html-audio-button-response","147","636944","0.0-113.0-1.0","CAN_141","141","","","","","","null","stimuli/bleep.m4a","null","turquoise","pink","[""turquoise"",""pink"",""low nameability""]","right-left","[""pink"",""turquoise""]","3","low nameability","30","right","audio_feedback","1"
"html-button-response","148","637463","0.0-114.0","CAN_141","141","","","","","","null","<button class=""jspsych-btn""><img src=""stimuli/white_square.png"" style=""width: 200px;height: 200px;""></button>","null","turquoise","pink","[""turquoise"",""pink"",""low nameability""]","right-left","[""pink"",""turquoise""]","3","low nameability","30","right","iti",""
"pavlovia","149","637520","0.0-115.0","CAN_141","141","","","","","","","","","","","","","","","","","","",""
"pavlovia","150","637526","0.0-116.0","CAN_141","141","","","","","","","","","","","","","","","","","","",""
"html-audio-button-response","151","639369","0.0-117.0","CAN_141","141","","","","","","1907","stimuli/tada.m4a","0","","","","","","","","","","",""
"html-button-response","152","641056","0.0-118.0","CAN_141","141","","","","","","1679","","0","","","","","","","","","","",""
"html-button-response","153","642097","0.0-119.0","CAN_141","141","","","","","","1027","","0","turquoise","neonyellow","[""turquoise"",""neonyellow"",""low nameability""]","left-right","[""turquoise"",""neonyellow"",""low nameability""]","4","low nameability","31","left","trigger",""
"html-button-response","154","643012","0.0-120.0-0.0","CAN_141","141","","","","","","907","<button class=""jspsych-btn""><img src=""stimuli/turquoise.png"" style=""width: 200px;height: 200px;""></button>","0","turquoise","neonyellow","[""turquoise"",""neonyellow"",""low nameability""]","left-right","[""turquoise"",""neonyellow"",""low nameability""]","4","low nameability","31","left","response","1"
"html-audio-button-response","155","643216","0.0-120.0-1.0","CAN_141","141","","","","","","null","stimuli/bleep.m4a","null","turquoise","neonyellow","[""turquoise"",""neonyellow"",""low nameability""]","left-right","[""turquoise"",""neonyellow"",""low nameability""]","4","low nameability","31","left","audio_feedback","1"
"html-button-response","156","643738","0.0-121.0","CAN_141","141","","","","","","null","<button class=""jspsych-btn""><img src=""stimuli/white_square.png"" style=""width: 200px;height: 200px;""></button>","null","turquoise","neonyellow","[""turquoise"",""neonyellow"",""low nameability""]","left-right","[""turquoise"",""neonyellow"",""low nameability""]","4","low nameability","31","left","iti",""
"html-button-response","157","644399","0.0-122.0","CAN_141","141","","","","","","643","","0","red","purple","[""red"",""purple"",""high nameability""]","left-right","[""red"",""purple"",""high nameability""]","4","high nameability","32","left","trigger",""
"html-button-response","158","645179","0.0-123.0-0.0","CAN_141","141","","","","","","773","<button class=""jspsych-btn""><img src=""stimuli/red.png"" style=""width: 200px;height: 200px;""></button>","0","red","purple","[""red"",""purple"",""high nameability""]","left-right","[""red"",""purple"",""high nameability""]","4","high nameability","32","left","response","1"
"html-audio-button-response","159","645384","0.0-123.0-1.0","CAN_141","141","","","","","","null","stimuli/bleep.m4a","null","red","purple","[""red"",""purple"",""high nameability""]","left-right","[""red"",""purple"",""high nameability""]","4","high nameability","32","left","audio_feedback","1"
"html-button-response","160","645903","0.0-124.0","CAN_141","141","","","","","","null","<button class=""jspsych-btn""><img src=""stimuli/white_square.png"" style=""width: 200px;height: 200px;""></button>","null","red","purple","[""red"",""purple"",""high nameability""]","left-right","[""red"",""purple"",""high nameability""]","4","high nameability","32","left","iti",""
"html-button-response","161","646560","0.0-125.0","CAN_141","141","","","","","","640","","0","orange","yellow","[""orange"",""yellow"",""high nameability""]","left-right","[""orange"",""yellow"",""high nameability""]","4","high nameability","33","left","trigger",""
"html-button-response","162","647232","0.0-126.0-0.0","CAN_141","141","","","","","","658","<button class=""jspsych-btn""><img src=""stimuli/orange.png"" style=""width: 200px;height: 200px;""></button>","0","orange","yellow","[""orange"",""yellow"",""high nameability""]","left-right","[""orange"",""yellow"",""high nameability""]","4","high nameability","33","left","response","1"
"html-audio-button-response","163","647457","0.0-126.0-1.0","CAN_141","141","","","","","","null","stimuli/bleep.m4a","null","orange","yellow","[""orange"",""yellow"",""high nameability""]","left-right","[""orange"",""yellow"",""high nameability""]","4","high nameability","33","left","audio_feedback","1"
"html-button-response","164","647995","0.0-127.0","CAN_141","141","","","","","","null","<button class=""jspsych-btn""><img src=""stimuli/white_square.png"" style=""width: 200px;height: 200px;""></button>","null","orange","yellow","[""orange"",""yellow"",""high nameability""]","left-right","[""orange"",""yellow"",""high nameability""]","4","high nameability","33","left","iti",""
"html-button-response","165","648507","0.0-128.0","CAN_141","141","","","","","","490","","0","darkgreenblue","neonyellow","[""darkgreenblue"",""neonyellow"",""low nameability""]","right-left","[""neonyellow"",""darkgreenblue""]","4","low nameability","34","right","trigger",""
"html-button-response","166","649176","0.0-129.0-0.0","CAN_141","141","","","","","","657","<button class=""jspsych-btn""><img src=""stimuli/darkgreenblue.png"" style=""width: 200px;height: 200px;""></button>","1","darkgreenblue","neonyellow","[""darkgreenblue"",""neonyellow"",""low nameability""]","right-left","[""neonyellow"",""darkgreenblue""]","4","low nameability","34","right","response","1"
"html-audio-button-response","167","649391","0.0-129.0-1.0","CAN_141","141","","","","","","null","stimuli/bleep.m4a","null","darkgreenblue","neonyellow","[""darkgreenblue"",""neonyellow"",""low nameability""]","right-left","[""neonyellow"",""darkgreenblue""]","4","low nameability","34","right","audio_feedback","1"
"html-button-response","168","649916","0.0-130.0","CAN_141","141","","","","","","null","<button class=""jspsych-btn""><img src=""stimuli/white_square.png"" style=""width: 200px;height: 200px;""></button>","null","darkgreenblue","neonyellow","[""darkgreenblue"",""neonyellow"",""low nameability""]","right-left","[""neonyellow"",""darkgreenblue""]","4","low nameability","34","right","iti",""
"html-button-response","169","650567","0.0-131.0","CAN_141","141","","","","","","634","","0","pink","turquoise","[""pink"",""turquoise"",""low nameability""]","left-right","[""pink"",""turquoise"",""low nameability""]","4","low nameability","35","left","trigger",""
"html-button-response","170","651354","0.0-132.0-0.0","CAN_141","141","","","","","","776","<button class=""jspsych-btn""><img src=""stimuli/pink.png"" style=""width: 200px;height: 200px;""></button>","0","pink","turquoise","[""pink"",""turquoise"",""low nameability""]","left-right","[""pink"",""turquoise"",""low nameability""]","4","low nameability","35","left","response","1"
"html-audio-button-response","171","651569","0.0-132.0-1.0","CAN_141","141","","","","","","null","stimuli/bleep.m4a","null","pink","turquoise","[""pink"",""turquoise"",""low nameability""]","left-right","[""pink"",""turquoise"",""low nameability""]","4","low nameability","35","left","audio_feedback","1"
"html-button-response","172","652107","0.0-133.0","CAN_141","141","","","","","","null","<button class=""jspsych-btn""><img src=""stimuli/white_square.png"" style=""width: 200px;height: 200px;""></button>","null","pink","turquoise","[""pink"",""turquoise"",""low nameability""]","left-right","[""pink"",""turquoise"",""low nameability""]","4","low nameability","35","left","iti",""
"html-button-response","173","652811","0.0-134.0","CAN_141","141","","","","","","686","","0","blue","brown","[""blue"",""brown"",""high nameability""]","right-left","[""brown"",""blue""]","4","high nameability","36","right","trigger",""
"html-button-response","174","653513","0.0-135.0-0.0","CAN_141","141","","","","","","689","<button class=""jspsych-btn""><img src=""stimuli/blue.png"" style=""width: 200px;height: 200px;""></button>","1","blue","brown","[""blue"",""brown"",""high nameability""]","right-left","[""brown"",""blue""]","4","high nameability","36","right","response","1"
"html-audio-button-response","175","653725","0.0-135.0-1.0","CAN_141","141","","","","","","null","stimuli/bleep.m4a","null","blue","brown","[""blue"",""brown"",""high nameability""]","right-left","[""brown"",""blue""]","4","high nameability","36","right","audio_feedback","1"
"html-button-response","176","654250","0.0-136.0","CAN_141","141","","","","","","null","<button class=""jspsych-btn""><img src=""stimuli/white_square.png"" style=""width: 200px;height: 200px;""></button>","null","blue","brown","[""blue"",""brown"",""high nameability""]","right-left","[""brown"",""blue""]","4","high nameability","36","right","iti",""
"html-button-response","177","655051","0.0-137.0","CAN_141","141","","","","","","778","","0","red","brown","[""red"",""brown"",""high nameability""]","left-right","[""red"",""brown"",""high nameability""]","4","high nameability","37","left","trigger",""
"html-button-response","178","655762","0.0-138.0-0.0","CAN_141","141","","","","","","703","<button class=""jspsych-btn""><img src=""stimuli/red.png"" style=""width: 200px;height: 200px;""></button>","0","red","brown","[""red"",""brown"",""high nameability""]","left-right","[""red"",""brown"",""high nameability""]","4","high nameability","37","left","response","1"
"html-audio-button-response","179","655970","0.0-138.0-1.0","CAN_141","141","","","","","","null","stimuli/bleep.m4a","null","red","brown","[""red"",""brown"",""high nameability""]","left-right","[""red"",""brown"",""high nameability""]","4","high nameability","37","left","audio_feedback","1"
"html-button-response","180","656502","0.0-139.0","CAN_141","141","","","","","","null","<button class=""jspsych-btn""><img src=""stimuli/white_square.png"" style=""width: 200px;height: 200px;""></button>","null","red","brown","[""red"",""brown"",""high nameability""]","left-right","[""red"",""brown"",""high nameability""]","4","high nameability","37","left","iti",""
"html-button-response","181","657139","0.0-140.0","CAN_141","141","","","","","","609","","0","lightred","turquoise","[""lightred"",""turquoise"",""low nameability""]","right-left","[""turquoise"",""lightred""]","4","low nameability","38","right","trigger",""
"html-button-response","182","657779","0.0-141.0-0.0","CAN_141","141","","","","","","631","<button class=""jspsych-btn""><img src=""stimuli/lightred.png"" style=""width: 200px;height: 200px;""></button>","1","lightred","turquoise","[""lightred"",""turquoise"",""low nameability""]","right-left","[""turquoise"",""lightred""]","4","low nameability","38","right","response","1"
"html-audio-button-response","183","657987","0.0-141.0-1.0","CAN_141","141","","","","","","null","stimuli/bleep.m4a","null","lightred","turquoise","[""lightred"",""turquoise"",""low nameability""]","right-left","[""turquoise"",""lightred""]","4","low nameability","38","right","audio_feedback","1"
"html-button-response","184","658504","0.0-142.0","CAN_141","141","","","","","","null","<button class=""jspsych-btn""><img src=""stimuli/white_square.png"" style=""width: 200px;height: 200px;""></button>","null","lightred","turquoise","[""lightred"",""turquoise"",""low nameability""]","right-left","[""turquoise"",""lightred""]","4","low nameability","38","right","iti",""
"html-button-response","185","659233","0.0-143.0","CAN_141","141","","","","","","710","","0","darkgreenblue","mustard","[""darkgreenblue"",""mustard"",""low nameability""]","right-left","[""mustard"",""darkgreenblue""]","4","low nameability","39","right","trigger",""
"html-button-response","186","659937","0.0-144.0-0.0","CAN_141","141","","","","","","689","<button class=""jspsych-btn""><img src=""stimuli/darkgreenblue.png"" style=""width: 200px;height: 200px;""></button>","1","darkgreenblue","mustard","[""darkgreenblue"",""mustard"",""low nameability""]","right-left","[""mustard"",""darkgreenblue""]","4","low nameability","39","right","response","1"
"html-audio-button-response","187","660143","0.0-144.0-1.0","CAN_141","141","","","","","","null","stimuli/bleep.m4a","null","darkgreenblue","mustard","[""darkgreenblue"",""mustard"",""low nameability""]","right-left","[""mustard"",""darkgreenblue""]","4","low nameability","39","right","audio_feedback","1"
"html-button-response","188","660670","0.0-145.0","CAN_141","141","","","","","","null","<button class=""jspsych-btn""><img src=""stimuli/white_square.png"" style=""width: 200px;height: 200px;""></button>","null","darkgreenblue","mustard","[""darkgreenblue"",""mustard"",""low nameability""]","right-left","[""mustard"",""darkgreenblue""]","4","low nameability","39","right","iti",""
"html-button-response","189","661355","0.0-146.0","CAN_141","141","","","","","","664","","0","blue","red","[""blue"",""red"",""high nameability""]","right-left","[""red"",""blue""]","4","high nameability","40","right","trigger",""
"html-button-response","190","661970","0.0-147.0-0.0","CAN_141","141","","","","","","607","<button class=""jspsych-btn""><img src=""stimuli/blue.png"" style=""width: 200px;height: 200px;""></button>","1","blue","red","[""blue"",""red"",""high nameability""]","right-left","[""red"",""blue""]","4","high nameability","40","right","response","1"
"html-audio-button-response","191","662177","0.0-147.0-1.0","CAN_141","141","","","","","","null","stimuli/bleep.m4a","null","blue","red","[""blue"",""red"",""high nameability""]","right-left","[""red"",""blue""]","4","high nameability","40","right","audio_feedback","1"
"html-button-response","192","662712","0.0-148.0","CAN_141","141","","","","","","null","<button class=""jspsych-btn""><img src=""stimuli/white_square.png"" style=""width: 200px;height: 200px;""></button>","null","blue","red","[""blue"",""red"",""high nameability""]","right-left","[""red"",""blue""]","4","high nameability","40","right","iti",""
"pavlovia","193","662838","0.0-149.0","CAN_141","141","","","","","","","","","","","","","","","","","","",""
"pavlovia","194","662852","0.0-150.0","CAN_141","141","","","","","","","","","","","","","","","","","","",""
"html-audio-button-response","195","664666","0.0-151.0","CAN_141","141","","","","","","1955","stimuli/tada.m4a","0","","","","","","","","","","",""
"html-button-response","196","665711","0.0-152.0","CAN_141","141","","","","","","1038","","0","","","","","","","","","","",""
"html-button-response","197","666542","0.0-153.0","CAN_141","141","","","","","","822","","0","pink","mustard","[""pink"",""mustard"",""low nameability""]","left-right","[""pink"",""mustard"",""low nameability""]","5","low nameability","41","left","trigger",""
"html-button-response","198","667311","0.0-154.0-0.0","CAN_141","141","","","","","","762","<button class=""jspsych-btn""><img src=""stimuli/pink.png"" style=""width: 200px;height: 200px;""></button>","0","pink","mustard","[""pink"",""mustard"",""low nameability""]","left-right","[""pink"",""mustard"",""low nameability""]","5","low nameability","41","left","response","1"
"html-audio-button-response","199","667516","0.0-154.0-1.0","CAN_141","141","","","","","","null","stimuli/bleep.m4a","null","pink","mustard","[""pink"",""mustard"",""low nameability""]","left-right","[""pink"",""mustard"",""low nameability""]","5","low nameability","41","left","audio_feedback","1"
"html-button-response","200","668036","0.0-155.0","CAN_141","141","","","","","","null","<button class=""jspsych-btn""><img src=""stimuli/white_square.png"" style=""width: 200px;height: 200px;""></button>","null","pink","mustard","[""pink"",""mustard"",""low nameability""]","left-right","[""pink"",""mustard"",""low nameability""]","5","low nameability","41","left","iti",""
"html-button-response","201","668688","0.0-156.0","CAN_141","141","","","","","","634","","0","brown","orange","[""brown"",""orange"",""high nameability""]","left-right","[""brown"",""orange"",""high nameability""]","5","high nameability","42","left","trigger",""
"html-button-response","202","669471","0.0-157.0-0.0","CAN_141","141","","","","","","770","<button class=""jspsych-btn""><img src=""stimuli/brown.png"" style=""width: 200px;height: 200px;""></button>","0","brown","orange","[""brown"",""orange"",""high nameability""]","left-right","[""brown"",""orange"",""high nameability""]","5","high nameability","42","left","response","1"
"html-audio-button-response","203","669675","0.0-157.0-1.0","CAN_141","141","","","","","","null","stimuli/bleep.m4a","null","brown","orange","[""brown"",""orange"",""high nameability""]","left-right","[""brown"",""orange"",""high nameability""]","5","high nameability","42","left","audio_feedback","1"
"html-button-response","204","670196","0.0-158.0","CAN_141","141","","","","","","null","<button class=""jspsych-btn""><img src=""stimuli/white_square.png"" style=""width: 200px;height: 200px;""></button>","null","brown","orange","[""brown"",""orange"",""high nameability""]","left-right","[""brown"",""orange"",""high nameability""]","5","high nameability","42","left","iti",""
"html-button-response","205","670986","0.0-159.0","CAN_141","141","","","","","","770","","0","lightred","darkgreenblue","[""lightred"",""darkgreenblue"",""low nameability""]","right-left","[""darkgreenblue"",""lightred""]","5","low nameability","43","right","trigger",""
"html-button-response","206","671941","0.0-160.0-0.0","CAN_141","141","","","","","","949","<button class=""jspsych-btn""><img src=""stimuli/lightred.png"" style=""width: 200px;height: 200px;""></button>","1","lightred","darkgreenblue","[""lightred"",""darkgreenblue"",""low nameability""]","right-left","[""darkgreenblue"",""lightred""]","5","low nameability","43","right","response","1"
"html-audio-button-response","207","672148","0.0-160.0-1.0","CAN_141","141","","","","","","null","stimuli/bleep.m4a","null","lightred","darkgreenblue","[""lightred"",""darkgreenblue"",""low nameability""]","right-left","[""darkgreenblue"",""lightred""]","5","low nameability","43","right","audio_feedback","1"
"html-button-response","208","672665","0.0-161.0","CAN_141","141","","","","","","null","<button class=""jspsych-btn""><img src=""stimuli/white_square.png"" style=""width: 200px;height: 200px;""></button>","null","lightred","darkgreenblue","[""lightred"",""darkgreenblue"",""low nameability""]","right-left","[""darkgreenblue"",""lightred""]","5","low nameability","43","right","iti",""
"html-button-response","209","673375","0.0-162.0","CAN_141","141","","","","","","698","","0","darkgreenblue","pink","[""darkgreenblue"",""pink"",""low nameability""]","right-left","[""pink"",""darkgreenblue""]","5","low nameability","44","right","trigger",""
"html-button-response","210","674157","0.0-163.0-0.0","CAN_141","141","","","","","","772","<button class=""jspsych-btn""><img src=""stimuli/darkgreenblue.png"" style=""width: 200px;height: 200px;""></button>","1","darkgreenblue","pink","[""darkgreenblue"",""pink"",""low nameability""]","right-left","[""pink"",""darkgreenblue""]","5","low nameability","44","right","response","1"
"html-audio-button-response","211","674365","0.0-163.0-1.0","CAN_141","141","","","","","","null","stimuli/bleep.m4a","null","darkgreenblue","pink","[""darkgreenblue"",""pink"",""low nameability""]","right-left","[""pink"",""darkgreenblue""]","5","low nameability","44","right","audio_feedback","1"
"html-button-response","212","674884","0.0-164.0","CAN_141","141","","","","","","null","<button class=""jspsych-btn""><img src=""stimuli/white_square.png"" style=""width: 200px;height: 200px;""></button>","null","darkgreenblue","pink","[""darkgreenblue"",""pink"",""low nameability""]","right-left","[""pink"",""darkgreenblue""]","5","low nameability","44","right","iti",""
"html-button-response","213","675470","0.0-165.0","CAN_141","141","","","","","","566","","0","turquoise","lightred","[""turquoise"",""lightred"",""low nameability""]","left-right","[""turquoise"",""lightred"",""low nameability""]","5","low nameability","45","left","trigger",""
"html-button-response","214","676337","0.0-166.0-0.0","CAN_141","141","","","","","","859","<button class=""jspsych-btn""><img src=""stimuli/turquoise.png"" style=""width: 200px;height: 200px;""></button>","0","turquoise","lightred","[""turquoise"",""lightred"",""low nameability""]","left-right","[""turquoise"",""lightred"",""low nameability""]","5","low nameability","45","left","response","1"
"html-audio-button-response","215","676544","0.0-166.0-1.0","CAN_141","141","","","","","","null","stimuli/bleep.m4a","null","turquoise","lightred","[""turquoise"",""lightred"",""low nameability""]","left-right","[""turquoise"",""lightred"",""low nameability""]","5","low nameability","45","left","audio_feedback","1"
"html-button-response","216","677065","0.0-167.0","CAN_141","141","","","","","","null","<button class=""jspsych-btn""><img src=""stimuli/white_square.png"" style=""width: 200px;height: 200px;""></button>","null","turquoise","lightred","[""turquoise"",""lightred"",""low nameability""]","left-right","[""turquoise"",""lightred"",""low nameability""]","5","low nameability","45","left","iti",""
"html-button-response","217","677652","0.0-168.0","CAN_141","141","","","","","","569","","0","yellow","blue","[""yellow"",""blue"",""high nameability""]","left-right","[""yellow"",""blue"",""high nameability""]","5","high nameability","46","left","trigger",""
"html-button-response","218","678411","0.0-169.0-0.0","CAN_141","141","","","","","","750","<button class=""jspsych-btn""><img src=""stimuli/yellow.png"" style=""width: 200px;height: 200px;""></button>","0","yellow","blue","[""yellow"",""blue"",""high nameability""]","left-right","[""yellow"",""blue"",""high nameability""]","5","high nameability","46","left","response","1"
"html-audio-button-response","219","678616","0.0-169.0-1.0","CAN_141","141","","","","","","null","stimuli/bleep.m4a","null","yellow","blue","[""yellow"",""blue"",""high nameability""]","left-right","[""yellow"",""blue"",""high nameability""]","5","high nameability","46","left","audio_feedback","1"
"html-button-response","220","679145","0.0-170.0","CAN_141","141","","","","","","null","<button class=""jspsych-btn""><img src=""stimuli/white_square.png"" style=""width: 200px;height: 200px;""></button>","null","yellow","blue","[""yellow"",""blue"",""high nameability""]","left-right","[""yellow"",""blue"",""high nameability""]","5","high nameability","46","left","iti",""
"html-button-response","221","679726","0.0-171.0","CAN_141","141","","","","","","562","","0","brown","yellow","[""brown"",""yellow"",""high nameability""]","left-right","[""brown"",""yellow"",""high nameability""]","5","high nameability","47","left","trigger",""
"html-button-response","222","680479","0.0-172.0-0.0","CAN_141","141","","","","","","747","<button class=""jspsych-btn""><img src=""stimuli/brown.png"" style=""width: 200px;height: 200px;""></button>","0","brown","yellow","[""brown"",""yellow"",""high nameability""]","left-right","[""brown"",""yellow"",""high nameability""]","5","high nameability","47","left","response","1"
"html-audio-button-response","223","680682","0.0-172.0-1.0","CAN_141","141","","","","","","null","stimuli/bleep.m4a","null","brown","yellow","[""brown"",""yellow"",""high nameability""]","left-right","[""brown"",""yellow"",""high nameability""]","5","high nameability","47","left","audio_feedback","1"
"html-button-response","224","681202","0.0-173.0","CAN_141","141","","","","","","null","<button class=""jspsych-btn""><img src=""stimuli/white_square.png"" style=""width: 200px;height: 200px;""></button>","null","brown","yellow","[""brown"",""yellow"",""high nameability""]","left-right","[""brown"",""yellow"",""high nameability""]","5","high nameability","47","left","iti",""
"html-button-response","225","681759","0.0-174.0","CAN_141","141","","","","","","546","","0","neonyellow","pink","[""neonyellow"",""pink"",""low nameability""]","left-right","[""neonyellow"",""pink"",""low nameability""]","5","low nameability","48","left","trigger",""
"html-button-response","226","682387","0.0-175.0-0.0","CAN_141","141","","","","","","621","<button class=""jspsych-btn""><img src=""stimuli/neonyellow.png"" style=""width: 200px;height: 200px;""></button>","0","neonyellow","pink","[""neonyellow"",""pink"",""low nameability""]","left-right","[""neonyellow"",""pink"",""low nameability""]","5","low nameability","48","left","response","1"
"html-audio-button-response","227","682589","0.0-175.0-1.0","CAN_141","141","","","","","","null","stimuli/bleep.m4a","null","neonyellow","pink","[""neonyellow"",""pink"",""low nameability""]","left-right","[""neonyellow"",""pink"",""low nameability""]","5","low nameability","48","left","audio_feedback","1"
"html-button-response","228","683109","0.0-176.0","CAN_141","141","","","","","","null","<button class=""jspsych-btn""><img src=""stimuli/white_square.png"" style=""width: 200px;height: 200px;""></button>","null","neonyellow","pink","[""neonyellow"",""pink"",""low nameability""]","left-right","[""neonyellow"",""pink"",""low nameability""]","5","low nameability","48","left","iti",""
"html-button-response","229","683824","0.0-177.0","CAN_141","141","","","","","","696","","0","darkgreenblue","lightred","[""darkgreenblue"",""lightred"",""low nameability""]","left-right","[""darkgreenblue"",""lightred"",""low nameability""]","5","low nameability","49","left","trigger",""
"html-button-response","230","684476","0.0-178.0-0.0","CAN_141","141","","","","","","644","<button class=""jspsych-btn""><img src=""stimuli/darkgreenblue.png"" style=""width: 200px;height: 200px;""></button>","0","darkgreenblue","lightred","[""darkgreenblue"",""lightred"",""low nameability""]","left-right","[""darkgreenblue"",""lightred"",""low nameability""]","5","low nameability","49","left","response","1"
"html-audio-button-response","231","684678","0.0-178.0-1.0","CAN_141","141","","","","","","null","stimuli/bleep.m4a","null","darkgreenblue","lightred","[""darkgreenblue"",""lightred"",""low nameability""]","left-right","[""darkgreenblue"",""lightred"",""low nameability""]","5","low nameability","49","left","audio_feedback","1"
"html-button-response","232","685199","0.0-179.0","CAN_141","141","","","","","","null","<button class=""jspsych-btn""><img src=""stimuli/white_square.png"" style=""width: 200px;height: 200px;""></button>","null","darkgreenblue","lightred","[""darkgreenblue"",""lightred"",""low nameability""]","left-right","[""darkgreenblue"",""lightred"",""low nameability""]","5","low nameability","49","left","iti",""
"html-button-response","233","685959","0.0-180.0","CAN_141","141","","","","","","739","","0","mustard","darkgreenblue","[""mustard"",""darkgreenblue"",""low nameability""]","left-right","[""mustard"",""darkgreenblue"",""low nameability""]","5","low nameability","50","left","trigger",""
"html-button-response","234","686575","0.0-181.0-0.0","CAN_141","141","","","","","","609","<button class=""jspsych-btn""><img src=""stimuli/mustard.png"" style=""width: 200px;height: 200px;""></button>","0","mustard","darkgreenblue","[""mustard"",""darkgreenblue"",""low nameability""]","left-right","[""mustard"",""darkgreenblue"",""low nameability""]","5","low nameability","50","left","response","1"
"html-audio-button-response","235","686779","0.0-181.0-1.0","CAN_141","141","","","","","","null","stimuli/bleep.m4a","null","mustard","darkgreenblue","[""mustard"",""darkgreenblue"",""low nameability""]","left-right","[""mustard"",""darkgreenblue"",""low nameability""]","5","low nameability","50","left","audio_feedback","1"
"html-button-response","236","687298","0.0-182.0","CAN_141","141","","","","","","null","<button class=""jspsych-btn""><img src=""stimuli/white_square.png"" style=""width: 200px;height: 200px;""></button>","null","mustard","darkgreenblue","[""mustard"",""darkgreenblue"",""low nameability""]","left-right","[""mustard"",""darkgreenblue"",""low nameability""]","5","low nameability","50","left","iti",""
"pavlovia","237","687372","0.0-183.0","CAN_141","141","","","","","","","","","","","","","","","","","","",""
"pavlovia","238","687380","0.0-184.0","CAN_141","141","","","","","","","","","","","","","","","","","","",""
"html-audio-button-response","239","689033","0.0-185.0","CAN_141","141","","","","","","1731","stimuli/tada.m4a","0","","","","","","","","","","",""
"html-button-response","240","689868","0.0-186.0","CAN_141","141","","","","","","831","","0","","","","","","","","","","",""
"html-button-response","241","690634","0.0-187.0","CAN_141","141","","","","","","756","","0","brown","purple","[""brown"",""purple"",""high nameability""]","right-left","[""purple"",""brown""]","6","high nameability","51","right","trigger",""
"html-button-response","242","691412","0.0-188.0-0.0","CAN_141","141","","","","","","771","<button class=""jspsych-btn""><img src=""stimuli/brown.png"" style=""width: 200px;height: 200px;""></button>","1","brown","purple","[""brown"",""purple"",""high nameability""]","right-left","[""purple"",""brown""]","6","high nameability","51","right","response","1"
"html-audio-button-response","243","691615","0.0-188.0-1.0","CAN_141","141","","","","","","null","stimuli/bleep.m4a","null","brown","purple","[""brown"",""purple"",""high nameability""]","right-left","[""purple"",""brown""]","6","high nameability","51","right","audio_feedback","1"
"html-button-response","244","692137","0.0-189.0","CAN_141","141","","","","","","null","<button class=""jspsych-btn""><img src=""stimuli/white_square.png"" style=""width: 200px;height: 200px;""></button>","null","brown","purple","[""brown"",""purple"",""high nameability""]","right-left","[""purple"",""brown""]","6","high nameability","51","right","iti",""
"html-button-response","245","692713","0.0-190.0","CAN_141","141","","","","","","559","","0","pink","darkgreenblue","[""pink"",""darkgreenblue"",""low nameability""]","left-right","[""pink"",""darkgreenblue"",""low nameability""]","6","low nameability","52","left","trigger",""
"html-button-response","246","693387","0.0-191.0-0.0","CAN_141","141","","","","","","667","<button class=""jspsych-btn""><img src=""stimuli/pink.png"" style=""width: 200px;height: 200px;""></button>","0","pink","darkgreenblue","[""pink"",""darkgreenblue"",""low nameability""]","left-right","[""pink"",""darkgreenblue"",""low nameability""]","6","low nameability","52","left","response","1"
"html-audio-button-response","247","693593","0.0-191.0-1.0","CAN_141","141","","","","","","null","stimuli/bleep.m4a","null","pink","darkgreenblue","[""pink"",""darkgreenblue"",""low nameability""]","left-right","[""pink"",""darkgreenblue"",""low nameability""]","6","low nameability","52","left","audio_feedback","1"
"html-button-response","248","694112","0.0-192.0","CAN_141","141","","","","","","null","<button class=""jspsych-btn""><img src=""stimuli/white_square.png"" style=""width: 200px;height: 200px;""></button>","null","pink","darkgreenblue","[""pink"",""darkgreenblue"",""low nameability""]","left-right","[""pink"",""darkgreenblue"",""low nameability""]","6","low nameability","52","left","iti",""
"html-button-response","249","694717","0.0-193.0","CAN_141","141","","","","","","588","","0","lightred","pink","[""lightred"",""pink"",""low nameability""]","left-right","[""lightred"",""pink"",""low nameability""]","6","low nameability","53","left","trigger",""
"html-button-response","250","695358","0.0-194.0-0.0","CAN_141","141","","","","","","633","<button class=""jspsych-btn""><img src=""stimuli/lightred.png"" style=""width: 200px;height: 200px;""></button>","0","lightred","pink","[""lightred"",""pink"",""low nameability""]","left-right","[""lightred"",""pink"",""low nameability""]","6","low nameability","53","left","response","1"
"html-audio-button-response","251","695565","0.0-194.0-1.0","CAN_141","141","","","","","","null","stimuli/bleep.m4a","null","lightred","pink","[""lightred"",""pink"",""low nameability""]","left-right","[""lightred"",""pink"",""low nameability""]","6","low nameability","53","left","audio_feedback","1"
"html-button-response","252","696088","0.0-195.0","CAN_141","141","","","","","","null","<button class=""jspsych-btn""><img src=""stimuli/white_square.png"" style=""width: 200px;height: 200px;""></button>","null","lightred","pink","[""lightred"",""pink"",""low nameability""]","left-right","[""lightred"",""pink"",""low nameability""]","6","low nameability","53","left","iti",""
"html-button-response","253","696786","0.0-196.0","CAN_141","141","","","","","","681","","0","orange","red","[""orange"",""red"",""high nameability""]","right-left","[""red"",""orange""]","6","high nameability","54","right","trigger",""
"html-button-response","254","697698","0.0-197.0-0.0","CAN_141","141","","","","","","902","<button class=""jspsych-btn""><img src=""stimuli/orange.png"" style=""width: 200px;height: 200px;""></button>","1","orange","red","[""orange"",""red"",""high nameability""]","right-left","[""red"",""orange""]","6","high nameability","54","right","response","1"
"html-audio-button-response","255","697904","0.0-197.0-1.0","CAN_141","141","","","","","","null","stimuli/bleep.m4a","null","orange","red","[""orange"",""red"",""high nameability""]","right-left","[""red"",""orange""]","6","high nameability","54","right","audio_feedback","1"
"html-button-response","256","698429","0.0-198.0","CAN_141","141","","","","","","null","<button class=""jspsych-btn""><img src=""stimuli/white_square.png"" style=""width: 200px;height: 200px;""></button>","null","orange","red","[""orange"",""red"",""high nameability""]","right-left","[""red"",""orange""]","6","high nameability","54","right","iti",""
"html-button-response","257","699042","0.0-199.0","CAN_141","141","","","","","","585","","0","purple","yellow","[""purple"",""yellow"",""high nameability""]","left-right","[""purple"",""yellow"",""high nameability""]","6","high nameability","55","left","trigger",""
"html-button-response","258","699752","0.0-200.0-0.0","CAN_141","141","","","","","","703","<button class=""jspsych-btn""><img src=""stimuli/purple.png"" style=""width: 200px;height: 200px;""></button>","0","purple","yellow","[""purple"",""yellow"",""high nameability""]","left-right","[""purple"",""yellow"",""high nameability""]","6","high nameability","55","left","response","1"
"html-audio-button-response","259","699956","0.0-200.0-1.0","CAN_141","141","","","","","","null","stimuli/bleep.m4a","null","purple","yellow","[""purple"",""yellow"",""high nameability""]","left-right","[""purple"",""yellow"",""high nameability""]","6","high nameability","55","left","audio_feedback","1"
"html-button-response","260","700481","0.0-201.0","CAN_141","141","","","","","","null","<button class=""jspsych-btn""><img src=""stimuli/white_square.png"" style=""width: 200px;height: 200px;""></button>","null","purple","yellow","[""purple"",""yellow"",""high nameability""]","left-right","[""purple"",""yellow"",""high nameability""]","6","high nameability","55","left","iti",""
"html-button-response","261","701118","0.0-202.0","CAN_141","141","","","","","","619","","0","neonyellow","turquoise","[""neonyellow"",""turquoise"",""low nameability""]","right-left","[""turquoise"",""neonyellow""]","6","low nameability","56","right","trigger",""
"html-button-response","262","701958","0.0-203.0-0.0","CAN_141","141","","","","","","832","<button class=""jspsych-btn""><img src=""stimuli/neonyellow.png"" style=""width: 200px;height: 200px;""></button>","1","neonyellow","turquoise","[""neonyellow"",""turquoise"",""low nameability""]","right-left","[""turquoise"",""neonyellow""]","6","low nameability","56","right","response","1"
"html-audio-button-response","263","702163","0.0-203.0-1.0","CAN_141","141","","","","","","null","stimuli/bleep.m4a","null","neonyellow","turquoise","[""neonyellow"",""turquoise"",""low nameability""]","right-left","[""turquoise"",""neonyellow""]","6","low nameability","56","right","audio_feedback","1"
"html-button-response","264","702693","0.0-204.0","CAN_141","141","","","","","","null","<button class=""jspsych-btn""><img src=""stimuli/white_square.png"" style=""width: 200px;height: 200px;""></button>","null","neonyellow","turquoise","[""neonyellow"",""turquoise"",""low nameability""]","right-left","[""turquoise"",""neonyellow""]","6","low nameability","56","right","iti",""
"html-button-response","265","703293","0.0-205.0","CAN_141","141","","","","","","574","","0","turquoise","mustard","[""turquoise"",""mustard"",""low nameability""]","left-right","[""turquoise"",""mustard"",""low nameability""]","6","low nameability","57","left","trigger",""
"html-button-response","266","704029","0.0-206.0-0.0","CAN_141","141","","","","","","727","<button class=""jspsych-btn""><img src=""stimuli/turquoise.png"" style=""width: 200px;height: 200px;""></button>","0","turquoise","mustard","[""turquoise"",""mustard"",""low nameability""]","left-right","[""turquoise"",""mustard"",""low nameability""]","6","low nameability","57","left","response","1"
"html-audio-button-response","267","704229","0.0-206.0-1.0","CAN_141","141","","","","","","null","stimuli/bleep.m4a","null","turquoise","mustard","[""turquoise"",""mustard"",""low nameability""]","left-right","[""turquoise"",""mustard"",""low nameability""]","6","low nameability","57","left","audio_feedback","1"
"html-button-response","268","704740","0.0-207.0","CAN_141","141","","","","","","null","<button class=""jspsych-btn""><img src=""stimuli/white_square.png"" style=""width: 200px;height: 200px;""></button>","null","turquoise","mustard","[""turquoise"",""mustard"",""low nameability""]","left-right","[""turquoise"",""mustard"",""low nameability""]","6","low nameability","57","left","iti",""
"html-button-response","269","705402","0.0-208.0","CAN_141","141","","","","","","644","","0","neonyellow","mustard","[""neonyellow"",""mustard"",""low nameability""]","left-right","[""neonyellow"",""mustard"",""low nameability""]","6","low nameability","58","left","trigger",""
"html-button-response","270","706123","0.0-209.0-0.0","CAN_141","141","","","","","","715","<button class=""jspsych-btn""><img src=""stimuli/neonyellow.png"" style=""width: 200px;height: 200px;""></button>","0","neonyellow","mustard","[""neonyellow"",""mustard"",""low nameability""]","left-right","[""neonyellow"",""mustard"",""low nameability""]","6","low nameability","58","left","response","1"
"html-audio-button-response","271","706329","0.0-209.0-1.0","CAN_141","141","","","","","","null","stimuli/bleep.m4a","null","neonyellow","mustard","[""neonyellow"",""mustard"",""low nameability""]","left-right","[""neonyellow"",""mustard"",""low nameability""]","6","low nameability","58","left","audio_feedback","1"
"html-button-response","272","706849","0.0-210.0","CAN_141","141","","","","","","null","<button class=""jspsych-btn""><img src=""stimuli/white_square.png"" style=""width: 200px;height: 200px;""></button>","null","neonyellow","mustard","[""neonyellow"",""mustard"",""low nameability""]","left-right","[""neonyellow"",""mustard"",""low nameability""]","6","low nameability","58","left","iti",""
"html-button-response","273","707461","0.0-211.0","CAN_141","141","","","","","","595","","0","red","yellow","[""red"",""yellow"",""high nameability""]","right-left","[""yellow"",""red""]","6","high nameability","59","right","trigger",""
"html-button-response","274","708276","0.0-212.0-0.0","CAN_141","141","","","","","","806","<button class=""jspsych-btn""><img src=""stimuli/red.png"" style=""width: 200px;height: 200px;""></button>","1","red","yellow","[""red"",""yellow"",""high nameability""]","right-left","[""yellow"",""red""]","6","high nameability","59","right","response","1"
"html-audio-button-response","275","708483","0.0-212.0-1.0","CAN_141","141","","","","","","null","stimuli/bleep.m4a","null","red","yellow","[""red"",""yellow"",""high nameability""]","right-left","[""yellow"",""red""]","6","high nameability","59","right","audio_feedback","1"
"html-button-response","276","708998","0.0-213.0","CAN_141","141","","","","","","null","<button class=""jspsych-btn""><img src=""stimuli/white_square.png"" style=""width: 200px;height: 200px;""></button>","null","red","yellow","[""red"",""yellow"",""high nameability""]","right-left","[""yellow"",""red""]","6","high nameability","59","right","iti",""
"html-button-response","277","709725","0.0-214.0","CAN_141","141","","","","","","707","","0","mustard","turquoise","[""mustard"",""turquoise"",""low nameability""]","right-left","[""turquoise"",""mustard""]","6","low nameability","60","right","trigger",""
"html-button-response","278","710495","0.0-215.0-0.0","CAN_141","141","","","","","","763","<button class=""jspsych-btn""><img src=""stimuli/mustard.png"" style=""width: 200px;height: 200px;""></button>","1","mustard","turquoise","[""mustard"",""turquoise"",""low nameability""]","right-left","[""turquoise"",""mustard""]","6","low nameability","60","right","response","1"
"html-audio-button-response","279","710701","0.0-215.0-1.0","CAN_141","141","","","","","","null","stimuli/bleep.m4a","null","mustard","turquoise","[""mustard"",""turquoise"",""low nameability""]","right-left","[""turquoise"",""mustard""]","6","low nameability","60","right","audio_feedback","1"
"html-button-response","280","711237","0.0-216.0","CAN_141","141","","","","","","null","<button class=""jspsych-btn""><img src=""stimuli/white_square.png"" style=""width: 200px;height: 200px;""></button>","null","mustard","turquoise","[""mustard"",""turquoise"",""low nameability""]","right-left","[""turquoise"",""mustard""]","6","low nameability","60","right","iti",""
