"trial_type","trial_index","time_elapsed","internal_node_id","subject_id","seed","success","timeout","failed_images","failed_audio","failed_video","rt","stimulus","response","target","foil","choices","combination_order","choices_in_order","round","condition","trial_counter","target_location","trial_kind","correct"
"pavlovia","0","21","0.0-0.0","CAN_121","121","","","","","","","","","","","","","","","","","","",""
"preload","1","693","0.0-1.0","CAN_121","121","true","false","[]","[]","[]","","","","","","","","","","","","","",""
"fullscreen","2","874969","0.0-2.0","CAN_121","121","true","","","","","","","","","","","","","","","","","",""
"html-button-response","3","974649","0.0-3.0","CAN_121","121","","","","","","99651","","0","","","","","","","","","","",""
"html-button-response","4","977290","0.0-4.0","CAN_121","121","","","","","","2627","","0","star","square","[""square"",""star""]","left-right","[""square"",""star""]","1","practice","1","right","trigger",""
"html-button-response","5","983667","0.0-5.0-0.0","CAN_121","121","","","","","","6361","<button class=""jspsych-btn""><img src=""stimuli/star.png"" style=""width: 200px;height: 200px;""></button>","1","star","square","[""square"",""star""]","left-right","[""square"",""star""]","1","practice","1","right","response","1"
"html-audio-button-response","6","983878","0.0-5.0-1.0","CAN_121","121","","","","","","null","stimuli/bleep.m4a","null","star","square","[""square"",""star""]","left-right","[""square"",""star""]","1","practice","1","right","audio_feedback","1"
"html-button-response","7","984409","0.0-6.0","CAN_121","121","","","","","","null","<button class=""jspsych-btn""><img src=""stimuli/white_square.png"" style=""width: 200px;height: 200px;""></button>","null","star","square","[""square"",""star""]","left-right","[""square"",""star""]","1","practice","1","right","iti",""
"html-button-response","8","985656","0.0-7.0","CAN_121","121","","","","","","1226","","0","triangle","pentagram","[""triangle"",""pentagram""]","left-right","[""triangle"",""pentagram""]","1","practice","1","left","trigger",""
"html-button-response","9","986779","0.0-8.0-0.0","CAN_121","121","","","","","","1113","<button class=""jspsych-btn""><img src=""stimuli/triangle.png"" style=""width: 200px;height: 200px;""></button>","0","triangle","pentagram","[""triangle"",""pentagram""]","left-right","[""triangle"",""pentagram""]","1","practice","1","left","response","1"
"html-audio-button-response","10","986990","0.0-8.0-1.0","CAN_121","121","","","","","","null","stimuli/bleep.m4a","null","triangle","pentagram","[""triangle"",""pentagram""]","left-right","[""triangle"",""pentagram""]","1","practice","1","left","audio_feedback","1"
"html-button-response","11","987507","0.0-9.0","CAN_121","121","","","","","","null","<button class=""jspsych-btn""><img src=""stimuli/white_square.png"" style=""width: 200px;height: 200px;""></button>","null","triangle","pentagram","[""triangle"",""pentagram""]","left-right","[""triangle"",""pentagram""]","1","practice","1","left","iti",""
"html-button-response","12","988342","0.0-10.0","CAN_121","121","","","","","","813","","0","diamond","rectangle","[""rectangle"",""diamond""]","left-right","[""rectangle"",""diamond""]","1","practice","1","right","trigger",""
"html-button-response","13","989037","0.0-11.0-0.0","CAN_121","121","","","","","","681","<button class=""jspsych-btn""><img src=""stimuli/diamond.png"" style=""width: 200px;height: 200px;""></button>","1","diamond","rectangle","[""rectangle"",""diamond""]","left-right","[""rectangle"",""diamond""]","1","practice","1","right","response","1"
"html-audio-button-response","14","989241","0.0-11.0-1.0","CAN_121","121","","","","","","null","stimuli/bleep.m4a","null","diamond","rectangle","[""rectangle"",""diamond""]","left-right","[""rectangle"",""diamond""]","1","practice","1","right","audio_feedback","1"
"html-button-response","15","989764","0.0-12.0","CAN_121","121","","","","","","null","<button class=""jspsych-btn""><img src=""stimuli/white_square.png"" style=""width: 200px;height: 200px;""></button>","null","diamond","rectangle","[""rectangle"",""diamond""]","left-right","[""rectangle"",""diamond""]","1","practice","1","right","iti",""
"html-button-response","16","990436","0.0-13.0","CAN_121","121","","","","","","656","","0","pentagram","star","[""pentagram"",""star""]","left-right","[""pentagram"",""star""]","1","practice","1","left","trigger",""
"html-button-response","17","991290","0.0-14.0-0.0","CAN_121","121","","","","","","840","<button class=""jspsych-btn""><img src=""stimuli/pentagram.png"" style=""width: 200px;height: 200px;""></button>","0","pentagram","star","[""pentagram"",""star""]","left-right","[""pentagram"",""star""]","1","practice","1","left","response","1"
"html-audio-button-response","18","991498","0.0-14.0-1.0","CAN_121","121","","","","","","null","stimuli/bleep.m4a","null","pentagram","star","[""pentagram"",""star""]","left-right","[""pentagram"",""star""]","1","practice","1","left","audio_feedback","1"
"html-button-response","19","992015","0.0-15.0","CAN_121","121","","","","","","null","<button class=""jspsych-btn""><img src=""stimuli/white_square.png"" style=""width: 200px;height: 200px;""></button>","null","pentagram","star","[""pentagram"",""star""]","left-right","[""pentagram"",""star""]","1","practice","1","left","iti",""
"html-button-response","20","1003856","0.0-16.0","CAN_121","121","","","","","","11822","","0","","","","","","","","","","",""
"html-button-response","21","1004567","0.0-17.0","CAN_121","121","","","","","","700","","0","darkgreenblue","neonyellow","[""darkgreenblue"",""neonyellow"",""low nameability""]","right-left","[""neonyellow"",""darkgreenblue""]","1","low nameability","1","right","trigger",""
"html-button-response","22","1005161","0.0-18.0-0.0","CAN_121","121","","","","","","585","<button class=""jspsych-btn""><img src=""stimuli/darkgreenblue.png"" style=""width: 200px;height: 200px;""></button>","1","darkgreenblue","neonyellow","[""darkgreenblue"",""neonyellow"",""low nameability""]","right-left","[""neonyellow"",""darkgreenblue""]","1","low nameability","1","right","response","1"
"html-audio-button-response","23","1005367","0.0-18.0-1.0","CAN_121","121","","","","","","null","stimuli/bleep.m4a","null","darkgreenblue","neonyellow","[""darkgreenblue"",""neonyellow"",""low nameability""]","right-left","[""neonyellow"",""darkgreenblue""]","1","low nameability","1","right","audio_feedback","1"
"html-button-response","24","1005889","0.0-19.0","CAN_121","121","","","","","","null","<button class=""jspsych-btn""><img src=""stimuli/white_square.png"" style=""width: 200px;height: 200px;""></button>","null","darkgreenblue","neonyellow","[""darkgreenblue"",""neonyellow"",""low nameability""]","right-left","[""neonyellow"",""darkgreenblue""]","1","low nameability","1","right","iti",""
"html-button-response","25","1006413","0.0-20.0","CAN_121","121","","","","","","508","","0","neonyellow","mustard","[""neonyellow"",""mustard"",""low nameability""]","left-right","[""neonyellow"",""mustard"",""low nameability""]","1","low nameability","2","left","trigger",""
"html-button-response","26","1007114","0.0-21.0-0.0","CAN_121","121","","","","","","694","<button class=""jspsych-btn""><img src=""stimuli/neonyellow.png"" style=""width: 200px;height: 200px;""></button>","0","neonyellow","mustard","[""neonyellow"",""mustard"",""low nameability""]","left-right","[""neonyellow"",""mustard"",""low nameability""]","1","low nameability","2","left","response","1"
"html-audio-button-response","27","1007322","0.0-21.0-1.0","CAN_121","121","","","","","","null","stimuli/bleep.m4a","null","neonyellow","mustard","[""neonyellow"",""mustard"",""low nameability""]","left-right","[""neonyellow"",""mustard"",""low nameability""]","1","low nameability","2","left","audio_feedback","1"
"html-button-response","28","1007841","0.0-22.0","CAN_121","121","","","","","","null","<button class=""jspsych-btn""><img src=""stimuli/white_square.png"" style=""width: 200px;height: 200px;""></button>","null","neonyellow","mustard","[""neonyellow"",""mustard"",""low nameability""]","left-right","[""neonyellow"",""mustard"",""low nameability""]","1","low nameability","2","left","iti",""
"html-button-response","29","1008383","0.0-23.0","CAN_121","121","","","","","","523","","0","blue","red","[""blue"",""red"",""high nameability""]","left-right","[""blue"",""red"",""high nameability""]","1","high nameability","3","left","trigger",""
"html-button-response","30","1009048","0.0-24.0-0.0","CAN_121","121","","","","","","657","<button class=""jspsych-btn""><img src=""stimuli/blue.png"" style=""width: 200px;height: 200px;""></button>","0","blue","red","[""blue"",""red"",""high nameability""]","left-right","[""blue"",""red"",""high nameability""]","1","high nameability","3","left","response","1"
"html-audio-button-response","31","1009250","0.0-24.0-1.0","CAN_121","121","","","","","","null","stimuli/bleep.m4a","null","blue","red","[""blue"",""red"",""high nameability""]","left-right","[""blue"",""red"",""high nameability""]","1","high nameability","3","left","audio_feedback","1"
"html-button-response","32","1009777","0.0-25.0","CAN_121","121","","","","","","null","<button class=""jspsych-btn""><img src=""stimuli/white_square.png"" style=""width: 200px;height: 200px;""></button>","null","blue","red","[""blue"",""red"",""high nameability""]","left-right","[""blue"",""red"",""high nameability""]","1","high nameability","3","left","iti",""
"html-button-response","33","1010392","0.0-26.0","CAN_121","121","","","","","","591","","0","orange","red","[""orange"",""red"",""high nameability""]","right-left","[""red"",""orange""]","1","high nameability","4","right","trigger",""
"html-button-response","34","1011052","0.0-27.0-0.0","CAN_121","121","","","","","","651","<button class=""jspsych-btn""><img src=""stimuli/orange.png"" style=""width: 200px;height: 200px;""></button>","1","orange","red","[""orange"",""red"",""high nameability""]","right-left","[""red"",""orange""]","1","high nameability","4","right","response","1"
"html-audio-button-response","35","1011253","0.0-27.0-1.0","CAN_121","121","","","","","","null","stimuli/bleep.m4a","null","orange","red","[""orange"",""red"",""high nameability""]","right-left","[""red"",""orange""]","1","high nameability","4","right","audio_feedback","1"
"html-button-response","36","1011771","0.0-28.0","CAN_121","121","","","","","","null","<button class=""jspsych-btn""><img src=""stimuli/white_square.png"" style=""width: 200px;height: 200px;""></button>","null","orange","red","[""orange"",""red"",""high nameability""]","right-left","[""red"",""orange""]","1","high nameability","4","right","iti",""
"html-button-response","37","1012348","0.0-29.0","CAN_121","121","","","","","","558","","0","turquoise","darkgreenblue","[""turquoise"",""darkgreenblue"",""low nameability""]","left-right","[""turquoise"",""darkgreenblue"",""low nameability""]","1","low nameability","5","left","trigger",""
"html-button-response","38","1012981","0.0-30.0-0.0","CAN_121","121","","","","","","626","<button class=""jspsych-btn""><img src=""stimuli/turquoise.png"" style=""width: 200px;height: 200px;""></button>","0","turquoise","darkgreenblue","[""turquoise"",""darkgreenblue"",""low nameability""]","left-right","[""turquoise"",""darkgreenblue"",""low nameability""]","1","low nameability","5","left","response","1"
"html-audio-button-response","39","1013186","0.0-30.0-1.0","CAN_121","121","","","","","","null","stimuli/bleep.m4a","null","turquoise","darkgreenblue","[""turquoise"",""darkgreenblue"",""low nameability""]","left-right","[""turquoise"",""darkgreenblue"",""low nameability""]","1","low nameability","5","left","audio_feedback","1"
"html-button-response","40","1013707","0.0-31.0","CAN_121","121","","","","","","null","<button class=""jspsych-btn""><img src=""stimuli/white_square.png"" style=""width: 200px;height: 200px;""></button>","null","turquoise","darkgreenblue","[""turquoise"",""darkgreenblue"",""low nameability""]","left-right","[""turquoise"",""darkgreenblue"",""low nameability""]","1","low nameability","5","left","iti",""
"html-button-response","41","1014212","0.0-32.0","CAN_121","121","","","","","","486","","0","blue","orange","[""blue"",""orange"",""high nameability""]","right-left","[""orange"",""blue""]","1","high nameability","6","right","trigger",""
"html-button-response","42","1014797","0.0-33.0-0.0","CAN_121","121","","","","","","576","<button class=""jspsych-btn""><img src=""stimuli/blue.png"" style=""width: 200px;height: 200px;""></button>","1","blue","orange","[""blue"",""orange"",""high nameability""]","right-left","[""orange"",""blue""]","1","high nameability","6","right","response","1"
"html-audio-button-response","43","1015003","0.0-33.0-1.0","CAN_121","121","","","","","","null","stimuli/bleep.m4a","null","blue","orange","[""blue"",""orange"",""high nameability""]","right-left","[""orange"",""blue""]","1","high nameability","6","right","audio_feedback","1"
"html-button-response","44","1015527","0.0-34.0","CAN_121","121","","","","","","null","<button class=""jspsych-btn""><img src=""stimuli/white_square.png"" style=""width: 200px;height: 200px;""></button>","null","blue","orange","[""blue"",""orange"",""high nameability""]","right-left","[""orange"",""blue""]","1","high nameability","6","right","iti",""
"html-button-response","45","1016084","0.0-35.0","CAN_121","121","","","","","","540","","0","purple","yellow","[""purple"",""yellow"",""high nameability""]","right-left","[""yellow"",""purple""]","1","high nameability","7","right","trigger",""
"html-button-response","46","1016666","0.0-36.0-0.0","CAN_121","121","","","","","","575","<button class=""jspsych-btn""><img src=""stimuli/purple.png"" style=""width: 200px;height: 200px;""></button>","1","purple","yellow","[""purple"",""yellow"",""high nameability""]","right-left","[""yellow"",""purple""]","1","high nameability","7","right","response","1"
"html-audio-button-response","47","1016879","0.0-36.0-1.0","CAN_121","121","","","","","","null","stimuli/bleep.m4a","null","purple","yellow","[""purple"",""yellow"",""high nameability""]","right-left","[""yellow"",""purple""]","1","high nameability","7","right","audio_feedback","1"
"html-button-response","48","1017403","0.0-37.0","CAN_121","121","","","","","","null","<button class=""jspsych-btn""><img src=""stimuli/white_square.png"" style=""width: 200px;height: 200px;""></button>","null","purple","yellow","[""purple"",""yellow"",""high nameability""]","right-left","[""yellow"",""purple""]","1","high nameability","7","right","iti",""
"html-button-response","49","1017913","0.0-38.0","CAN_121","121","","","","","","494","","0","pink","turquoise","[""pink"",""turquoise"",""low nameability""]","left-right","[""pink"",""turquoise"",""low nameability""]","1","low nameability","8","left","trigger",""
"html-button-response","50","1018553","0.0-39.0-0.0","CAN_121","121","","","","","","635","<button class=""jspsych-btn""><img src=""stimuli/pink.png"" style=""width: 200px;height: 200px;""></button>","0","pink","turquoise","[""pink"",""turquoise"",""low nameability""]","left-right","[""pink"",""turquoise"",""low nameability""]","1","low nameability","8","left","response","1"
"html-audio-button-response","51","1018758","0.0-39.0-1.0","CAN_121","121","","","","","","null","stimuli/bleep.m4a","null","pink","turquoise","[""pink"",""turquoise"",""low nameability""]","left-right","[""pink"",""turquoise"",""low nameability""]","1","low nameability","8","left","audio_feedback","1"
"html-button-response","52","1019279","0.0-40.0","CAN_121","121","","","","","","null","<button class=""jspsych-btn""><img src=""stimuli/white_square.png"" style=""width: 200px;height: 200px;""></button>","null","pink","turquoise","[""pink"",""turquoise"",""low nameability""]","left-right","[""pink"",""turquoise"",""low nameability""]","1","low nameability","8","left","iti",""
"html-button-response","53","1019755","0.0-41.0","CAN_121","121","","","","","","458","","0","lightred","darkgreenblue","[""lightred"",""darkgreenblue"",""low nameability""]","left-right","[""lightred"",""darkgreenblue"",""low nameability""]","1","low nameability","9","left","trigger",""
"html-button-response","54","1020335","0.0-42.0-0.0","CAN_121","121","","","","","","572","<button class=""jspsych-btn""><img src=""stimuli/lightred.png"" style=""width: 200px;height: 200px;""></button>","0","lightred","darkgreenblue","[""lightred"",""darkgreenblue"",""low nameability""]","left-right","[""lightred"",""darkgreenblue"",""low nameability""]","1","low nameability","9","left","response","1"
"html-audio-button-response","55","1020542","0.0-42.0-1.0","CAN_121","121","","","","","","null","stimuli/bleep.m4a","null","lightred","darkgreenblue","[""lightred"",""darkgreenblue"",""low nameability""]","left-right","[""lightred"",""darkgreenblue"",""low nameability""]","1","low nameability","9","left","audio_feedback","1"
"html-button-response","56","1021061","0.0-43.0","CAN_121","121","","","","","","null","<button class=""jspsych-btn""><img src=""stimuli/white_square.png"" style=""width: 200px;height: 200px;""></button>","null","lightred","darkgreenblue","[""lightred"",""darkgreenblue"",""low nameability""]","left-right","[""lightred"",""darkgreenblue"",""low nameability""]","1","low nameability","9","left","iti",""
"html-button-response","57","1021501","0.0-44.0","CAN_121","121","","","","","","420","","0","neonyellow","lightred","[""neonyellow"",""lightred"",""low nameability""]","right-left","[""lightred"",""neonyellow""]","1","low nameability","10","right","trigger",""
"html-button-response","58","1022138","0.0-45.0-0.0","CAN_121","121","","","","","","630","<button class=""jspsych-btn""><img src=""stimuli/neonyellow.png"" style=""width: 200px;height: 200px;""></button>","1","neonyellow","lightred","[""neonyellow"",""lightred"",""low nameability""]","right-left","[""lightred"",""neonyellow""]","1","low nameability","10","right","response","1"
"html-audio-button-response","59","1022342","0.0-45.0-1.0","CAN_121","121","","","","","","null","stimuli/bleep.m4a","null","neonyellow","lightred","[""neonyellow"",""lightred"",""low nameability""]","right-left","[""lightred"",""neonyellow""]","1","low nameability","10","right","audio_feedback","1"
"html-button-response","60","1022862","0.0-46.0","CAN_121","121","","","","","","null","<button class=""jspsych-btn""><img src=""stimuli/white_square.png"" style=""width: 200px;height: 200px;""></button>","null","neonyellow","lightred","[""neonyellow"",""lightred"",""low nameability""]","right-left","[""lightred"",""neonyellow""]","1","low nameability","10","right","iti",""
"pavlovia","61","1022960","0.0-47.0","CAN_121","121","","","","","","","","","","","","","","","","","","",""
"pavlovia","62","1022976","0.0-48.0","CAN_121","121","","","","","","","","","","","","","","","","","","",""
"html-audio-button-response","63","1025337","0.0-49.0","CAN_121","121","","","","","","2472","stimuli/tada.m4a","0","","","","","","","","","","",""
"html-button-response","64","1026299","0.0-50.0","CAN_121","121","","","","","","957","","0","","","","","","","","","","",""
"html-button-response","65","1026904","0.0-51.0","CAN_121","121","","","","","","596","","0","mustard","turquoise","[""mustard"",""turquoise"",""low nameability""]","left-right","[""mustard"",""turquoise"",""low nameability""]","2","low nameability","11","left","trigger",""
"html-button-response","66","1027540","0.0-52.0-0.0","CAN_121","121","","","","","","628","<button class=""jspsych-btn""><img src=""stimuli/mustard.png"" style=""width: 200px;height: 200px;""></button>","0","mustard","turquoise","[""mustard"",""turquoise"",""low nameability""]","left-right","[""mustard"",""turquoise"",""low nameability""]","2","low nameability","11","left","response","1"
"html-audio-button-response","67","1027746","0.0-52.0-1.0","CAN_121","121","","","","","","null","stimuli/bleep.m4a","null","mustard","turquoise","[""mustard"",""turquoise"",""low nameability""]","left-right","[""mustard"",""turquoise"",""low nameability""]","2","low nameability","11","left","audio_feedback","1"
"html-button-response","68","1028266","0.0-53.0","CAN_121","121","","","","","","null","<button class=""jspsych-btn""><img src=""stimuli/white_square.png"" style=""width: 200px;height: 200px;""></button>","null","mustard","turquoise","[""mustard"",""turquoise"",""low nameability""]","left-right","[""mustard"",""turquoise"",""low nameability""]","2","low nameability","11","left","iti",""
"html-button-response","69","1028757","0.0-54.0","CAN_121","121","","","","","","476","","0","darkgreenblue","mustard","[""darkgreenblue"",""mustard"",""low nameability""]","right-left","[""mustard"",""darkgreenblue""]","2","low nameability","12","right","trigger",""
"html-button-response","70","1029302","0.0-55.0-0.0","CAN_121","121","","","","","","537","<button class=""jspsych-btn""><img src=""stimuli/darkgreenblue.png"" style=""width: 200px;height: 200px;""></button>","1","darkgreenblue","mustard","[""darkgreenblue"",""mustard"",""low nameability""]","right-left","[""mustard"",""darkgreenblue""]","2","low nameability","12","right","response","1"
"html-audio-button-response","71","1029506","0.0-55.0-1.0","CAN_121","121","","","","","","null","stimuli/bleep.m4a","null","darkgreenblue","mustard","[""darkgreenblue"",""mustard"",""low nameability""]","right-left","[""mustard"",""darkgreenblue""]","2","low nameability","12","right","audio_feedback","1"
"html-button-response","72","1030021","0.0-56.0","CAN_121","121","","","","","","null","<button class=""jspsych-btn""><img src=""stimuli/white_square.png"" style=""width: 200px;height: 200px;""></button>","null","darkgreenblue","mustard","[""darkgreenblue"",""mustard"",""low nameability""]","right-left","[""mustard"",""darkgreenblue""]","2","low nameability","12","right","iti",""
"html-button-response","73","1030481","0.0-57.0","CAN_121","121","","","","","","441","","0","mustard","neonyellow","[""mustard"",""neonyellow"",""low nameability""]","left-right","[""mustard"",""neonyellow"",""low nameability""]","2","low nameability","13","left","trigger",""
"html-button-response","74","1031128","0.0-58.0-0.0","CAN_121","121","","","","","","640","<button class=""jspsych-btn""><img src=""stimuli/mustard.png"" style=""width: 200px;height: 200px;""></button>","0","mustard","neonyellow","[""mustard"",""neonyellow"",""low nameability""]","left-right","[""mustard"",""neonyellow"",""low nameability""]","2","low nameability","13","left","response","1"
"html-audio-button-response","75","1031335","0.0-58.0-1.0","CAN_121","121","","","","","","null","stimuli/bleep.m4a","null","mustard","neonyellow","[""mustard"",""neonyellow"",""low nameability""]","left-right","[""mustard"",""neonyellow"",""low nameability""]","2","low nameability","13","left","audio_feedback","1"
"html-button-response","76","1031850","0.0-59.0","CAN_121","121","","","","","","null","<button class=""jspsych-btn""><img src=""stimuli/white_square.png"" style=""width: 200px;height: 200px;""></button>","null","mustard","neonyellow","[""mustard"",""neonyellow"",""low nameability""]","left-right","[""mustard"",""neonyellow"",""low nameability""]","2","low nameability","13","left","iti",""
"html-button-response","77","1032320","0.0-60.0","CAN_121","121","","","","","","450","","0","lightred","neonyellow","[""lightred"",""neonyellow"",""low nameability""]","right-left","[""neonyellow"",""lightred""]","2","low nameability","14","right","trigger",""
"html-button-response","78","1032899","0.0-61.0-0.0","CAN_121","121","","","","","","571","<button class=""jspsych-btn""><img src=""stimuli/lightred.png"" style=""width: 200px;height: 200px;""></button>","1","lightred","neonyellow","[""lightred"",""neonyellow"",""low nameability""]","right-left","[""neonyellow"",""lightred""]","2","low nameability","14","right","response","1"
"html-audio-button-response","79","1033109","0.0-61.0-1.0","CAN_121","121","","","","","","null","stimuli/bleep.m4a","null","lightred","neonyellow","[""lightred"",""neonyellow"",""low nameability""]","right-left","[""neonyellow"",""lightred""]","2","low nameability","14","right","audio_feedback","1"
"html-button-response","80","1033627","0.0-62.0","CAN_121","121","","","","","","null","<button class=""jspsych-btn""><img src=""stimuli/white_square.png"" style=""width: 200px;height: 200px;""></button>","null","lightred","neonyellow","[""lightred"",""neonyellow"",""low nameability""]","right-left","[""neonyellow"",""lightred""]","2","low nameability","14","right","iti",""
"html-button-response","81","1034141","0.0-63.0","CAN_121","121","","","","","","498","","0","purple","orange","[""purple"",""orange"",""high nameability""]","right-left","[""orange"",""purple""]","2","high nameability","15","right","trigger",""
"html-button-response","82","1035370","0.0-64.0-0.0","CAN_121","121","","","","","","1225","<button class=""jspsych-btn""><img src=""stimuli/purple.png"" style=""width: 200px;height: 200px;""></button>","1","purple","orange","[""purple"",""orange"",""high nameability""]","right-left","[""orange"",""purple""]","2","high nameability","15","right","response","1"
"html-audio-button-response","83","1035582","0.0-64.0-1.0","CAN_121","121","","","","","","null","stimuli/bleep.m4a","null","purple","orange","[""purple"",""orange"",""high nameability""]","right-left","[""orange"",""purple""]","2","high nameability","15","right","audio_feedback","1"
"html-button-response","84","1036097","0.0-65.0","CAN_121","121","","","","","","null","<button class=""jspsych-btn""><img src=""stimuli/white_square.png"" style=""width: 200px;height: 200px;""></button>","null","purple","orange","[""purple"",""orange"",""high nameability""]","right-left","[""orange"",""purple""]","2","high nameability","15","right","iti",""
"html-button-response","85","1036643","0.0-66.0","CAN_121","121","","","","","","528","","0","pink","neonyellow","[""pink"",""neonyellow"",""low nameability""]","left-right","[""pink"",""neonyellow"",""low nameability""]","2","low nameability","16","left","trigger",""
"html-button-response","86","1037272","0.0-67.0-0.0","CAN_121","121","","","","","","618","<button class=""jspsych-btn""><img src=""stimuli/pink.png"" style=""width: 200px;height: 200px;""></button>","0","pink","neonyellow","[""pink"",""neonyellow"",""low nameability""]","left-right","[""pink"",""neonyellow"",""low nameability""]","2","low nameability","16","left","response","1"
"html-audio-button-response","87","1037478","0.0-67.0-1.0","CAN_121","121","","","","","","null","stimuli/bleep.m4a","null","pink","neonyellow","[""pink"",""neonyellow"",""low nameability""]","left-right","[""pink"",""neonyellow"",""low nameability""]","2","low nameability","16","left","audio_feedback","1"
"html-button-response","88","1037997","0.0-68.0","CAN_121","121","","","","","","null","<button class=""jspsych-btn""><img src=""stimuli/white_square.png"" style=""width: 200px;height: 200px;""></button>","null","pink","neonyellow","[""pink"",""neonyellow"",""low nameability""]","left-right","[""pink"",""neonyellow"",""low nameability""]","2","low nameability","16","left","iti",""
"html-button-response","89","1038437","0.0-69.0","CAN_121","121","","","","","","423","","0","yellow","orange","[""yellow"",""orange"",""high nameability""]","left-right","[""yellow"",""orange"",""high nameability""]","2","high nameability","17","left","trigger",""
"html-button-response","90","1039093","0.0-70.0-0.0","CAN_121","121","","","","","","645","<button class=""jspsych-btn""><img src=""stimuli/yellow.png"" style=""width: 200px;height: 200px;""></button>","0","yellow","orange","[""yellow"",""orange"",""high nameability""]","left-right","[""yellow"",""orange"",""high nameability""]","2","high nameability","17","left","response","1"
"html-audio-button-response","91","1039298","0.0-70.0-1.0","CAN_121","121","","","","","","null","stimuli/bleep.m4a","null","yellow","orange","[""yellow"",""orange"",""high nameability""]","left-right","[""yellow"",""orange"",""high nameability""]","2","high nameability","17","left","audio_feedback","1"
"html-button-response","92","1039819","0.0-71.0","CAN_121","121","","","","","","null","<button class=""jspsych-btn""><img src=""stimuli/white_square.png"" style=""width: 200px;height: 200px;""></button>","null","yellow","orange","[""yellow"",""orange"",""high nameability""]","left-right","[""yellow"",""orange"",""high nameability""]","2","high nameability","17","left","iti",""
"html-button-response","93","1040280","0.0-72.0","CAN_121","121","","","","","","449","","0","lightred","turquoise","[""lightred"",""turquoise"",""low nameability""]","right-left","[""turquoise"",""lightred""]","2","low nameability","18","right","trigger",""
"html-button-response","94","1040886","0.0-73.0-0.0","CAN_121","121","","","","","","595","<button class=""jspsych-btn""><img src=""stimuli/lightred.png"" style=""width: 200px;height: 200px;""></button>","1","lightred","turquoise","[""lightred"",""turquoise"",""low nameability""]","right-left","[""turquoise"",""lightred""]","2","low nameability","18","right","response","1"
"html-audio-button-response","95","1041090","0.0-73.0-1.0","CAN_121","121","","","","","","null","stimuli/bleep.m4a","null","lightred","turquoise","[""lightred"",""turquoise"",""low nameability""]","right-left","[""turquoise"",""lightred""]","2","low nameability","18","right","audio_feedback","1"
"html-button-response","96","1041612","0.0-74.0","CAN_121","121","","","","","","null","<button class=""jspsych-btn""><img src=""stimuli/white_square.png"" style=""width: 200px;height: 200px;""></button>","null","lightred","turquoise","[""lightred"",""turquoise"",""low nameability""]","right-left","[""turquoise"",""lightred""]","2","low nameability","18","right","iti",""
"html-button-response","97","1042119","0.0-75.0","CAN_121","121","","","","","","487","","0","yellow","brown","[""yellow"",""brown"",""high nameability""]","right-left","[""brown"",""yellow""]","2","high nameability","19","right","trigger",""
"html-button-response","98","1043255","0.0-76.0-0.0","CAN_121","121","","","","","","1129","<button class=""jspsych-btn""><img src=""stimuli/yellow.png"" style=""width: 200px;height: 200px;""></button>","1","yellow","brown","[""yellow"",""brown"",""high nameability""]","right-left","[""brown"",""yellow""]","2","high nameability","19","right","response","1"
"html-audio-button-response","99","1043460","0.0-76.0-1.0","CAN_121","121","","","","","","null","stimuli/bleep.m4a","null","yellow","brown","[""yellow"",""brown"",""high nameability""]","right-left","[""brown"",""yellow""]","2","high nameability","19","right","audio_feedback","1"
"html-button-response","100","1043982","0.0-77.0","CAN_121","121","","","","","","null","<button class=""jspsych-btn""><img src=""stimuli/white_square.png"" style=""width: 200px;height: 200px;""></button>","null","yellow","brown","[""yellow"",""brown"",""high nameability""]","right-left","[""brown"",""yellow""]","2","high nameability","19","right","iti",""
"html-button-response","101","1044529","0.0-78.0","CAN_121","121","","","","","","521","","0","brown","blue","[""brown"",""blue"",""high nameability""]","right-left","[""blue"",""brown""]","2","high nameability","20","right","trigger",""
"html-button-response","102","1045109","0.0-79.0-0.0","CAN_121","121","","","","","","574","<button class=""jspsych-btn""><img src=""stimuli/brown.png"" style=""width: 200px;height: 200px;""></button>","1","brown","blue","[""brown"",""blue"",""high nameability""]","right-left","[""blue"",""brown""]","2","high nameability","20","right","response","1"
"html-audio-button-response","103","1045313","0.0-79.0-1.0","CAN_121","121","","","","","","null","stimuli/bleep.m4a","null","brown","blue","[""brown"",""blue"",""high nameability""]","right-left","[""blue"",""brown""]","2","high nameability","20","right","audio_feedback","1"
"html-button-response","104","1045829","0.0-80.0","CAN_121","121","","","","","","null","<button class=""jspsych-btn""><img src=""stimuli/white_square.png"" style=""width: 200px;height: 200px;""></button>","null","brown","blue","[""brown"",""blue"",""high nameability""]","right-left","[""blue"",""brown""]","2","high nameability","20","right","iti",""
"pavlovia","105","1045905","0.0-81.0","CAN_121","121","","","","","","","","","","","","","","","","","","",""
"pavlovia","106","1045916","0.0-82.0","CAN_121","121","","","","","","","","","","","","","","","","","","",""
"html-audio-button-response","107","1047128","0.0-83.0","CAN_121","121","","","","","","1291","stimuli/tada.m4a","0","","","","","","","","","","",""
"html-button-response","108","1047839","0.0-84.0","CAN_121","121","","","","","","704","","0","","","","","","","","","","",""
"html-button-response","109","1048475","0.0-85.0","CAN_121","121","","","","","","628","","0","blue","yellow","[""blue"",""yellow"",""high nameability""]","right-left","[""yellow"",""blue""]","3","high nameability","21","right","trigger",""
"html-button-response","110","1049044","0.0-86.0-0.0","CAN_121","121","","","","","","561","<button class=""jspsych-btn""><img src=""stimuli/blue.png"" style=""width: 200px;height: 200px;""></button>","1","blue","yellow","[""blue"",""yellow"",""high nameability""]","right-left","[""yellow"",""blue""]","3","high nameability","21","right","response","1"
"html-audio-button-response","111","1049250","0.0-86.0-1.0","CAN_121","121","","","","","","null","stimuli/bleep.m4a","null","blue","yellow","[""blue"",""yellow"",""high nameability""]","right-left","[""yellow"",""blue""]","3","high nameability","21","right","audio_feedback","1"
"html-button-response","112","1049772","0.0-87.0","CAN_121","121","","","","","","null","<button class=""jspsych-btn""><img src=""stimuli/white_square.png"" style=""width: 200px;height: 200px;""></button>","null","blue","yellow","[""blue"",""yellow"",""high nameability""]","right-left","[""yellow"",""blue""]","3","high nameability","21","right","iti",""
"html-button-response","113","1050226","0.0-88.0","CAN_121","121","","","","","","435","","0","orange","blue","[""orange"",""blue"",""high nameability""]","left-right","[""orange"",""blue"",""high nameability""]","3","high nameability","22","left","trigger",""
"html-button-response","114","1050869","0.0-89.0-0.0","CAN_121","121","","","","","","633","<button class=""jspsych-btn""><img src=""stimuli/orange.png"" style=""width: 200px;height: 200px;""></button>","0","orange","blue","[""orange"",""blue"",""high nameability""]","left-right","[""orange"",""blue"",""high nameability""]","3","high nameability","22","left","response","1"
"html-audio-button-response","115","1051075","0.0-89.0-1.0","CAN_121","121","","","","","","null","stimuli/bleep.m4a","null","orange","blue","[""orange"",""blue"",""high nameability""]","left-right","[""orange"",""blue"",""high nameability""]","3","high nameability","22","left","audio_feedback","1"
"html-button-response","116","1051598","0.0-90.0","CAN_121","121","","","","","","null","<button class=""jspsych-btn""><img src=""stimuli/white_square.png"" style=""width: 200px;height: 200px;""></button>","null","orange","blue","[""orange"",""blue"",""high nameability""]","left-right","[""orange"",""blue"",""high nameability""]","3","high nameability","22","left","iti",""
"html-button-response","117","1052053","0.0-91.0","CAN_121","121","","","","","","437","","0","pink","lightred","[""pink"",""lightred"",""low nameability""]","left-right","[""pink"",""lightred"",""low nameability""]","3","low nameability","23","left","trigger",""
"html-button-response","118","1052708","0.0-92.0-0.0","CAN_121","121","","","","","","650","<button class=""jspsych-btn""><img src=""stimuli/pink.png"" style=""width: 200px;height: 200px;""></button>","0","pink","lightred","[""pink"",""lightred"",""low nameability""]","left-right","[""pink"",""lightred"",""low nameability""]","3","low nameability","23","left","response","1"
"html-audio-button-response","119","1052910","0.0-92.0-1.0","CAN_121","121","","","","","","null","stimuli/bleep.m4a","null","pink","lightred","[""pink"",""lightred"",""low nameability""]","left-right","[""pink"",""lightred"",""low nameability""]","3","low nameability","23","left","audio_feedback","1"
"html-button-response","120","1053429","0.0-93.0","CAN_121","121","","","","","","null","<button class=""jspsych-btn""><img src=""stimuli/white_square.png"" style=""width: 200px;height: 200px;""></button>","null","pink","lightred","[""pink"",""lightred"",""low nameability""]","left-right","[""pink"",""lightred"",""low nameability""]","3","low nameability","23","left","iti",""
"html-button-response","121","1053910","0.0-94.0","CAN_121","121","","","","","","463","","0","mustard","darkgreenblue","[""mustard"",""darkgreenblue"",""low nameability""]","right-left","[""darkgreenblue"",""mustard""]","3","low nameability","24","right","trigger",""
"html-button-response","122","1055093","0.0-95.0-0.0","CAN_121","121","","","","","","1175","<button class=""jspsych-btn""><img src=""stimuli/mustard.png"" style=""width: 200px;height: 200px;""></button>","1","mustard","darkgreenblue","[""mustard"",""darkgreenblue"",""low nameability""]","right-left","[""darkgreenblue"",""mustard""]","3","low nameability","24","right","response","1"
"html-audio-button-response","123","1055295","0.0-95.0-1.0","CAN_121","121","","","","","","null","stimuli/bleep.m4a","null","mustard","darkgreenblue","[""mustard"",""darkgreenblue"",""low nameability""]","right-left","[""darkgreenblue"",""mustard""]","3","low nameability","24","right","audio_feedback","1"
"html-button-response","124","1055821","0.0-96.0","CAN_121","121","","","","","","null","<button class=""jspsych-btn""><img src=""stimuli/white_square.png"" style=""width: 200px;height: 200px;""></button>","null","mustard","darkgreenblue","[""mustard"",""darkgreenblue"",""low nameability""]","right-left","[""darkgreenblue"",""mustard""]","3","low nameability","24","right","iti",""
"html-button-response","125","1056335","0.0-97.0","CAN_121","121","","","","","","497","","0","brown","red","[""brown"",""red"",""high nameability""]","right-left","[""red"",""brown""]","3","high nameability","25","right","trigger",""
"html-button-response","126","1057054","0.0-98.0-0.0","CAN_121","121","","","","","","709","<button class=""jspsych-btn""><img src=""stimuli/brown.png"" style=""width: 200px;height: 200px;""></button>","1","brown","red","[""brown"",""red"",""high nameability""]","right-left","[""red"",""brown""]","3","high nameability","25","right","response","1"
"html-audio-button-response","127","1057259","0.0-98.0-1.0","CAN_121","121","","","","","","null","stimuli/bleep.m4a","null","brown","red","[""brown"",""red"",""high nameability""]","right-left","[""red"",""brown""]","3","high nameability","25","right","audio_feedback","1"
"html-button-response","128","1057779","0.0-99.0","CAN_121","121","","","","","","null","<button class=""jspsych-btn""><img src=""stimuli/white_square.png"" style=""width: 200px;height: 200px;""></button>","null","brown","red","[""brown"",""red"",""high nameability""]","right-left","[""red"",""brown""]","3","high nameability","25","right","iti",""
"html-button-response","129","1058299","0.0-100.0","CAN_121","121","","","","","","500","","0","darkgreenblue","lightred","[""darkgreenblue"",""lightred"",""low nameability""]","left-right","[""darkgreenblue"",""lightred"",""low nameability""]","3","low nameability","26","left","trigger",""
"html-button-response","130","1058956","0.0-101.0-0.0","CAN_121","121","","","","","","650","<button class=""jspsych-btn""><img src=""stimuli/darkgreenblue.png"" style=""width: 200px;height: 200px;""></button>","0","darkgreenblue","lightred","[""darkgreenblue"",""lightred"",""low nameability""]","left-right","[""darkgreenblue"",""lightred"",""low nameability""]","3","low nameability","26","left","response","1"
"html-audio-button-response","131","1059162","0.0-101.0-1.0","CAN_121","121","","","","","","null","stimuli/bleep.m4a","null","darkgreenblue","lightred","[""darkgreenblue"",""lightred"",""low nameability""]","left-right","[""darkgreenblue"",""lightred"",""low nameability""]","3","low nameability","26","left","audio_feedback","1"
"html-button-response","132","1059679","0.0-102.0","CAN_121","121","","","","","","null","<button class=""jspsych-btn""><img src=""stimuli/white_square.png"" style=""width: 200px;height: 200px;""></button>","null","darkgreenblue","lightred","[""darkgreenblue"",""lightred"",""low nameability""]","left-right","[""darkgreenblue"",""lightred"",""low nameability""]","3","low nameability","26","left","iti",""
"html-button-response","133","1060157","0.0-103.0","CAN_121","121","","","","","","461","","0","purple","blue","[""purple"",""blue"",""high nameability""]","left-right","[""purple"",""blue"",""high nameability""]","3","high nameability","27","left","trigger",""
"html-button-response","134","1060812","0.0-104.0-0.0","CAN_121","121","","","","","","647","<button class=""jspsych-btn""><img src=""stimuli/purple.png"" style=""width: 200px;height: 200px;""></button>","0","purple","blue","[""purple"",""blue"",""high nameability""]","left-right","[""purple"",""blue"",""high nameability""]","3","high nameability","27","left","response","1"
"html-audio-button-response","135","1061015","0.0-104.0-1.0","CAN_121","121","","","","","","null","stimuli/bleep.m4a","null","purple","blue","[""purple"",""blue"",""high nameability""]","left-right","[""purple"",""blue"",""high nameability""]","3","high nameability","27","left","audio_feedback","1"
"html-button-response","136","1061534","0.0-105.0","CAN_121","121","","","","","","null","<button class=""jspsych-btn""><img src=""stimuli/white_square.png"" style=""width: 200px;height: 200px;""></button>","null","purple","blue","[""purple"",""blue"",""high nameability""]","left-right","[""purple"",""blue"",""high nameability""]","3","high nameability","27","left","iti",""
"html-button-response","137","1062002","0.0-106.0","CAN_121","121","","","","","","447","","0","orange","purple","[""orange"",""purple"",""high nameability""]","right-left","[""purple"",""orange""]","3","high nameability","28","right","trigger",""
"html-button-response","138","1062581","0.0-107.0-0.0","CAN_121","121","","","","","","572","<button class=""jspsych-btn""><img src=""stimuli/orange.png"" style=""width: 200px;height: 200px;""></button>","1","orange","purple","[""orange"",""purple"",""high nameability""]","right-left","[""purple"",""orange""]","3","high nameability","28","right","response","1"
"html-audio-button-response","139","1062787","0.0-107.0-1.0","CAN_121","121","","","","","","null","stimuli/bleep.m4a","null","orange","purple","[""orange"",""purple"",""high nameability""]","right-left","[""purple"",""orange""]","3","high nameability","28","right","audio_feedback","1"
"html-button-response","140","1063311","0.0-108.0","CAN_121","121","","","","","","null","<button class=""jspsych-btn""><img src=""stimuli/white_square.png"" style=""width: 200px;height: 200px;""></button>","null","orange","purple","[""orange"",""purple"",""high nameability""]","right-left","[""purple"",""orange""]","3","high nameability","28","right","iti",""
"html-button-response","141","1063890","0.0-109.0","CAN_121","121","","","","","","559","","0","brown","yellow","[""brown"",""yellow"",""high nameability""]","left-right","[""brown"",""yellow"",""high nameability""]","3","high nameability","29","left","trigger",""
"html-button-response","142","1064483","0.0-110.0-0.0","CAN_121","121","","","","","","584","<button class=""jspsych-btn""><img src=""stimuli/brown.png"" style=""width: 200px;height: 200px;""></button>","0","brown","yellow","[""brown"",""yellow"",""high nameability""]","left-right","[""brown"",""yellow"",""high nameability""]","3","high nameability","29","left","response","1"
"html-audio-button-response","143","1064686","0.0-110.0-1.0","CAN_121","121","","","","","","null","stimuli/bleep.m4a","null","brown","yellow","[""brown"",""yellow"",""high nameability""]","left-right","[""brown"",""yellow"",""high nameability""]","3","high nameability","29","left","audio_feedback","1"
"html-button-response","144","1065207","0.0-111.0","CAN_121","121","","","","","","null","<button class=""jspsych-btn""><img src=""stimuli/white_square.png"" style=""width: 200px;height: 200px;""></button>","null","brown","yellow","[""brown"",""yellow"",""high nameability""]","left-right","[""brown"",""yellow"",""high nameability""]","3","high nameability","29","left","iti",""
"html-button-response","145","1065752","0.0-112.0","CAN_121","121","","","","","","526","","0","pink","darkgreenblue","[""pink"",""darkgreenblue"",""low nameability""]","left-right","[""pink"",""darkgreenblue"",""low nameability""]","3","low nameability","30","left","trigger",""
"html-button-response","146","1066312","0.0-113.0-0.0","CAN_121","121","","","","","","554","<button class=""jspsych-btn""><img src=""stimuli/pink.png"" style=""width: 200px;height: 200px;""></button>","0","pink","darkgreenblue","[""pink"",""darkgreenblue"",""low nameability""]","left-right","[""pink"",""darkgreenblue"",""low nameability""]","3","low nameability","30","left","response","1"
"html-audio-button-response","147","1066518","0.0-113.0-1.0","CAN_121","121","","","","","","null","stimuli/bleep.m4a","null","pink","darkgreenblue","[""pink"",""darkgreenblue"",""low nameability""]","left-right","[""pink"",""darkgreenblue"",""low nameability""]","3","low nameability","30","left","audio_feedback","1"
"html-button-response","148","1067033","0.0-114.0","CAN_121","121","","","","","","null","<button class=""jspsych-btn""><img src=""stimuli/white_square.png"" style=""width: 200px;height: 200px;""></button>","null","pink","darkgreenblue","[""pink"",""darkgreenblue"",""low nameability""]","left-right","[""pink"",""darkgreenblue"",""low nameability""]","3","low nameability","30","left","iti",""
"pavlovia","149","1067105","0.0-115.0","CAN_121","121","","","","","","","","","","","","","","","","","","",""
"pavlovia","150","1067113","0.0-116.0","CAN_121","121","","","","","","","","","","","","","","","","","","",""
"html-audio-button-response","151","1068767","0.0-117.0","CAN_121","121","","","","","","1731","stimuli/tada.m4a","0","","","","","","","","","","",""
"html-button-response","152","1070229","0.0-118.0","CAN_121","121","","","","","","1456","","0","","","","","","","","","","",""
"html-button-response","153","1070876","0.0-119.0","CAN_121","121","","","","","","638","","0","red","yellow","[""red"",""yellow"",""high nameability""]","right-left","[""yellow"",""red""]","4","high nameability","31","right","trigger",""
"html-button-response","154","1071490","0.0-120.0-0.0","CAN_121","121","","","","","","605","<button class=""jspsych-btn""><img src=""stimuli/red.png"" style=""width: 200px;height: 200px;""></button>","1","red","yellow","[""red"",""yellow"",""high nameability""]","right-left","[""yellow"",""red""]","4","high nameability","31","right","response","1"
"html-audio-button-response","155","1071694","0.0-120.0-1.0","CAN_121","121","","","","","","null","stimuli/bleep.m4a","null","red","yellow","[""red"",""yellow"",""high nameability""]","right-left","[""yellow"",""red""]","4","high nameability","31","right","audio_feedback","1"
"html-button-response","156","1072224","0.0-121.0","CAN_121","121","","","","","","null","<button class=""jspsych-btn""><img src=""stimuli/white_square.png"" style=""width: 200px;height: 200px;""></button>","null","red","yellow","[""red"",""yellow"",""high nameability""]","right-left","[""yellow"",""red""]","4","high nameability","31","right","iti",""
"html-button-response","157","1072781","0.0-122.0","CAN_121","121","","","","","","536","","0","red","purple","[""red"",""purple"",""high nameability""]","left-right","[""red"",""purple"",""high nameability""]","4","high nameability","32","left","trigger",""
"html-button-response","158","1073369","0.0-123.0-0.0","CAN_121","121","","","","","","581","<button class=""jspsych-btn""><img src=""stimuli/red.png"" style=""width: 200px;height: 200px;""></button>","0","red","purple","[""red"",""purple"",""high nameability""]","left-right","[""red"",""purple"",""high nameability""]","4","high nameability","32","left","response","1"
"html-audio-button-response","159","1073570","0.0-123.0-1.0","CAN_121","121","","","","","","null","stimuli/bleep.m4a","null","red","purple","[""red"",""purple"",""high nameability""]","left-right","[""red"",""purple"",""high nameability""]","4","high nameability","32","left","audio_feedback","1"
"html-button-response","160","1074090","0.0-124.0","CAN_121","121","","","","","","null","<button class=""jspsych-btn""><img src=""stimuli/white_square.png"" style=""width: 200px;height: 200px;""></button>","null","red","purple","[""red"",""purple"",""high nameability""]","left-right","[""red"",""purple"",""high nameability""]","4","high nameability","32","left","iti",""
"html-button-response","161","1074604","0.0-125.0","CAN_121","121","","","","","","491","","0","lightred","mustard","[""lightred"",""mustard"",""low nameability""]","right-left","[""mustard"",""lightred""]","4","low nameability","33","right","trigger",""
"html-button-response","162","1075157","0.0-126.0-0.0","CAN_121","121","","","","","","544","<button class=""jspsych-btn""><img src=""stimuli/lightred.png"" style=""width: 200px;height: 200px;""></button>","1","lightred","mustard","[""lightred"",""mustard"",""low nameability""]","right-left","[""mustard"",""lightred""]","4","low nameability","33","right","response","1"
"html-audio-button-response","163","1075363","0.0-126.0-1.0","CAN_121","121","","","","","","null","stimuli/bleep.m4a","null","lightred","mustard","[""lightred"",""mustard"",""low nameability""]","right-left","[""mustard"",""lightred""]","4","low nameability","33","right","audio_feedback","1"
"html-button-response","164","1075881","0.0-127.0","CAN_121","121","","","","","","null","<button class=""jspsych-btn""><img src=""stimuli/white_square.png"" style=""width: 200px;height: 200px;""></button>","null","lightred","mustard","[""lightred"",""mustard"",""low nameability""]","right-left","[""mustard"",""lightred""]","4","low nameability","33","right","iti",""
"html-button-response","165","1076433","0.0-128.0","CAN_121","121","","","","","","533","","0","turquoise","pink","[""turquoise"",""pink"",""low nameability""]","left-right","[""turquoise"",""pink"",""low nameability""]","4","low nameability","34","left","trigger",""
"html-button-response","166","1077047","0.0-129.0-0.0","CAN_121","121","","","","","","607","<button class=""jspsych-btn""><img src=""stimuli/turquoise.png"" style=""width: 200px;height: 200px;""></button>","0","turquoise","pink","[""turquoise"",""pink"",""low nameability""]","left-right","[""turquoise"",""pink"",""low nameability""]","4","low nameability","34","left","response","1"
"html-audio-button-response","167","1077250","0.0-129.0-1.0","CAN_121","121","","","","","","null","stimuli/bleep.m4a","null","turquoise","pink","[""turquoise"",""pink"",""low nameability""]","left-right","[""turquoise"",""pink"",""low nameability""]","4","low nameability","34","left","audio_feedback","1"
"html-button-response","168","1077765","0.0-130.0","CAN_121","121","","","","","","null","<button class=""jspsych-btn""><img src=""stimuli/white_square.png"" style=""width: 200px;height: 200px;""></button>","null","turquoise","pink","[""turquoise"",""pink"",""low nameability""]","left-right","[""turquoise"",""pink"",""low nameability""]","4","low nameability","34","left","iti",""
"html-button-response","169","1078358","0.0-131.0","CAN_121","121","","","","","","575","","0","orange","brown","[""orange"",""brown"",""high nameability""]","left-right","[""orange"",""brown"",""high nameability""]","4","high nameability","35","left","trigger",""
"html-button-response","170","1078988","0.0-132.0-0.0","CAN_121","121","","","","","","624","<button class=""jspsych-btn""><img src=""stimuli/orange.png"" style=""width: 200px;height: 200px;""></button>","0","orange","brown","[""orange"",""brown"",""high nameability""]","left-right","[""orange"",""brown"",""high nameability""]","4","high nameability","35","left","response","1"
"html-audio-button-response","171","1079194","0.0-132.0-1.0","CAN_121","121","","","","","","null","stimuli/bleep.m4a","null","orange","brown","[""orange"",""brown"",""high nameability""]","left-right","[""orange"",""brown"",""high nameability""]","4","high nameability","35","left","audio_feedback","1"
"html-button-response","172","1079711","0.0-133.0","CAN_121","121","","","","","","null","<button class=""jspsych-btn""><img src=""stimuli/white_square.png"" style=""width: 200px;height: 200px;""></button>","null","orange","brown","[""orange"",""brown"",""high nameability""]","left-right","[""orange"",""brown"",""high nameability""]","4","high nameability","35","left","iti",""
"html-button-response","173","1080245","0.0-134.0","CAN_121","121","","","","","","514","","0","darkgreenblue","pink","[""darkgreenblue"",""pink"",""low nameability""]","left-right","[""darkgreenblue"",""pink"",""low nameability""]","4","low nameability","36","left","trigger",""
"html-button-response","174","1080855","0.0-135.0-0.0","CAN_121","121","","","","","","598","<button class=""jspsych-btn""><img src=""stimuli/darkgreenblue.png"" style=""width: 200px;height: 200px;""></button>","0","darkgreenblue","pink","[""darkgreenblue"",""pink"",""low nameability""]","left-right","[""darkgreenblue"",""pink"",""low nameability""]","4","low nameability","36","left","response","1"
"html-audio-button-response","175","1081061","0.0-135.0-1.0","CAN_121","121","","","","","","null","stimuli/bleep.m4a","null","darkgreenblue","pink","[""darkgreenblue"",""pink"",""low nameability""]","left-right","[""darkgreenblue"",""pink"",""low nameability""]","4","low nameability","36","left","audio_feedback","1"
"html-button-response","176","1081572","0.0-136.0","CAN_121","121","","","","","","null","<button class=""jspsych-btn""><img src=""stimuli/white_square.png"" style=""width: 200px;height: 200px;""></button>","null","darkgreenblue","pink","[""darkgreenblue"",""pink"",""low nameability""]","left-right","[""darkgreenblue"",""pink"",""low nameability""]","4","low nameability","36","left","iti",""
"html-button-response","177","1082163","0.0-137.0","CAN_121","121","","","","","","550","","0","yellow","red","[""yellow"",""red"",""high nameability""]","right-left","[""red"",""yellow""]","4","high nameability","37","right","trigger",""
"html-button-response","178","1082793","0.0-138.0-0.0","CAN_121","121","","","","","","616","<button class=""jspsych-btn""><img src=""stimuli/yellow.png"" style=""width: 200px;height: 200px;""></button>","1","yellow","red","[""yellow"",""red"",""high nameability""]","right-left","[""red"",""yellow""]","4","high nameability","37","right","response","1"
"html-audio-button-response","179","1082998","0.0-138.0-1.0","CAN_121","121","","","","","","null","stimuli/bleep.m4a","null","yellow","red","[""yellow"",""red"",""high nameability""]","right-left","[""red"",""yellow""]","4","high nameability","37","right","audio_feedback","1"
"html-button-response","180","1083519","0.0-139.0","CAN_121","121","","","","","","null","<button class=""jspsych-btn""><img src=""stimuli/white_square.png"" style=""width: 200px;height: 200px;""></button>","null","yellow","red","[""yellow"",""red"",""high nameability""]","right-left","[""red"",""yellow""]","4","high nameability","37","right","iti",""
"html-button-response","181","1084048","0.0-140.0","CAN_121","121","","","","","","505","","0","yellow","blue","[""yellow"",""blue"",""high nameability""]","right-left","[""blue"",""yellow""]","4","high nameability","38","right","trigger",""
"html-button-response","182","1084630","0.0-141.0-0.0","CAN_121","121","","","","","","570","<button class=""jspsych-btn""><img src=""stimuli/yellow.png"" style=""width: 200px;height: 200px;""></button>","1","yellow","blue","[""yellow"",""blue"",""high nameability""]","right-left","[""blue"",""yellow""]","4","high nameability","38","right","response","1"
"html-audio-button-response","183","1084843","0.0-141.0-1.0","CAN_121","121","","","","","","null","stimuli/bleep.m4a","null","yellow","blue","[""yellow"",""blue"",""high nameability""]","right-left","[""blue"",""yellow""]","4","high nameability","38","right","audio_feedback","1"
"html-button-response","184","1085362","0.0-142.0","CAN_121","121","","","","","","null","<button class=""jspsych-btn""><img src=""stimuli/white_square.png"" style=""width: 200px;height: 200px;""></button>","null","yellow","blue","[""yellow"",""blue"",""high nameability""]","right-left","[""blue"",""yellow""]","4","high nameability","38","right","iti",""
"html-button-response","185","1085859","0.0-143.0","CAN_121","121","","","","","","483","","0","mustard","lightred","[""mustard"",""lightred"",""low nameability""]","left-right","[""mustard"",""lightred"",""low nameability""]","4","low nameability","39","left","trigger",""
"html-button-response","186","1086484","0.0-144.0-0.0","CAN_121","121","","","","","","616","<button class=""jspsych-btn""><img src=""stimuli/mustard.png"" style=""width: 200px;height: 200px;""></button>","0","mustard","lightred","[""mustard"",""lightred"",""low nameability""]","left-right","[""mustard"",""lightred"",""low nameability""]","4","low nameability","39","left","response","1"
"html-audio-button-response","187","1086690","0.0-144.0-1.0","CAN_121","121","","","","","","null","stimuli/bleep.m4a","null","mustard","lightred","[""mustard"",""lightred"",""low nameability""]","left-right","[""mustard"",""lightred"",""low nameability""]","4","low nameability","39","left","audio_feedback","1"
"html-button-response","188","1087210","0.0-145.0","CAN_121","121","","","","","","null","<button class=""jspsych-btn""><img src=""stimuli/white_square.png"" style=""width: 200px;height: 200px;""></button>","null","mustard","lightred","[""mustard"",""lightred"",""low nameability""]","left-right","[""mustard"",""lightred"",""low nameability""]","4","low nameability","39","left","iti",""
"html-button-response","189","1087673","0.0-146.0","CAN_121","121","","","","","","448","","0","darkgreenblue","turquoise","[""darkgreenblue"",""turquoise"",""low nameability""]","right-left","[""turquoise"",""darkgreenblue""]","4","low nameability","40","right","trigger",""
"html-button-response","190","1088226","0.0-147.0-0.0","CAN_121","121","","","","","","544","<button class=""jspsych-btn""><img src=""stimuli/darkgreenblue.png"" style=""width: 200px;height: 200px;""></button>","1","darkgreenblue","turquoise","[""darkgreenblue"",""turquoise"",""low nameability""]","right-left","[""turquoise"",""darkgreenblue""]","4","low nameability","40","right","response","1"
"html-audio-button-response","191","1088429","0.0-147.0-1.0","CAN_121","121","","","","","","null","stimuli/bleep.m4a","null","darkgreenblue","turquoise","[""darkgreenblue"",""turquoise"",""low nameability""]","right-left","[""turquoise"",""darkgreenblue""]","4","low nameability","40","right","audio_feedback","1"
"html-button-response","192","1088941","0.0-148.0","CAN_121","121","","","","","","null","<button class=""jspsych-btn""><img src=""stimuli/white_square.png"" style=""width: 200px;height: 200px;""></button>","null","darkgreenblue","turquoise","[""darkgreenblue"",""turquoise"",""low nameability""]","right-left","[""turquoise"",""darkgreenblue""]","4","low nameability","40","right","iti",""
"pavlovia","193","1088972","0.0-149.0","CAN_121","121","","","","","","","","","","","","","","","","","","",""
"pavlovia","194","1088978","0.0-150.0","CAN_121","121","","","","","","","","","","","","","","","","","","",""
"html-audio-button-response","195","1090503","0.0-151.0","CAN_121","121","","","","","","1552","stimuli/tada.m4a","0","","","","","","","","","","",""
"html-button-response","196","1091135","0.0-152.0","CAN_121","121","","","","","","625","","0","","","","","","","","","","",""
"html-button-response","197","1091623","0.0-153.0","CAN_121","121","","","","","","480","","0","turquoise","mustard","[""turquoise"",""mustard"",""low nameability""]","right-left","[""mustard"",""turquoise""]","5","low nameability","41","right","trigger",""
"html-button-response","198","1092167","0.0-154.0-0.0","CAN_121","121","","","","","","537","<button class=""jspsych-btn""><img src=""stimuli/turquoise.png"" style=""width: 200px;height: 200px;""></button>","1","turquoise","mustard","[""turquoise"",""mustard"",""low nameability""]","right-left","[""mustard"",""turquoise""]","5","low nameability","41","right","response","1"
"html-audio-button-response","199","1092371","0.0-154.0-1.0","CAN_121","121","","","","","","null","stimuli/bleep.m4a","null","turquoise","mustard","[""turquoise"",""mustard"",""low nameability""]","right-left","[""mustard"",""turquoise""]","5","low nameability","41","right","audio_feedback","1"
"html-button-response","200","1092886","0.0-155.0","CAN_121","121","","","","","","null","<button class=""jspsych-btn""><img src=""stimuli/white_square.png"" style=""width: 200px;height: 200px;""></button>","null","turquoise","mustard","[""turquoise"",""mustard"",""low nameability""]","right-left","[""mustard"",""turquoise""]","5","low nameability","41","right","iti",""
"html-button-response","201","1093319","0.0-156.0","CAN_121","121","","","","","","410","","0","orange","yellow","[""orange"",""yellow"",""high nameability""]","left-right","[""orange"",""yellow"",""high nameability""]","5","high nameability","42","left","trigger",""
"html-button-response","202","1093901","0.0-157.0-0.0","CAN_121","121","","","","","","572","<button class=""jspsych-btn""><img src=""stimuli/orange.png"" style=""width: 200px;height: 200px;""></button>","0","orange","yellow","[""orange"",""yellow"",""high nameability""]","left-right","[""orange"",""yellow"",""high nameability""]","5","high nameability","42","left","response","1"
"html-audio-button-response","203","1094107","0.0-157.0-1.0","CAN_121","121","","","","","","null","stimuli/bleep.m4a","null","orange","yellow","[""orange"",""yellow"",""high nameability""]","left-right","[""orange"",""yellow"",""high nameability""]","5","high nameability","42","left","audio_feedback","1"
"html-button-response","204","1094624","0.0-158.0","CAN_121","121","","","","","","null","<button class=""jspsych-btn""><img src=""stimuli/white_square.png"" style=""width: 200px;height: 200px;""></button>","null","orange","yellow","[""orange"",""yellow"",""high nameability""]","left-right","[""orange"",""yellow"",""high nameability""]","5","high nameability","42","left","iti",""
"html-button-response","205","1095148","0.0-159.0","CAN_121","121","","","","","","504","","0","brown","orange","[""brown"",""orange"",""high nameability""]","right-left","[""orange"",""brown""]","5","high nameability","43","right","trigger",""
"html-button-response","206","1095670","0.0-160.0-0.0","CAN_121","121","","","","","","513","<button class=""jspsych-btn""><img src=""stimuli/brown.png"" style=""width: 200px;height: 200px;""></button>","1","brown","orange","[""brown"",""orange"",""high nameability""]","right-left","[""orange"",""brown""]","5","high nameability","43","right","response","1"
"html-audio-button-response","207","1095875","0.0-160.0-1.0","CAN_121","121","","","","","","null","stimuli/bleep.m4a","null","brown","orange","[""brown"",""orange"",""high nameability""]","right-left","[""orange"",""brown""]","5","high nameability","43","right","audio_feedback","1"
"html-button-response","208","1096392","0.0-161.0","CAN_121","121","","","","","","null","<button class=""jspsych-btn""><img src=""stimuli/white_square.png"" style=""width: 200px;height: 200px;""></button>","null","brown","orange","[""brown"",""orange"",""high nameability""]","right-left","[""orange"",""brown""]","5","high nameability","43","right","iti",""
"html-button-response","209","1096928","0.0-162.0","CAN_121","121","","","","","","518","","0","red","brown","[""red"",""brown"",""high nameability""]","right-left","[""brown"",""red""]","5","high nameability","44","right","trigger",""
"html-button-response","210","1097495","0.0-163.0-0.0","CAN_121","121","","","","","","560","<button class=""jspsych-btn""><img src=""stimuli/red.png"" style=""width: 200px;height: 200px;""></button>","1","red","brown","[""red"",""brown"",""high nameability""]","right-left","[""brown"",""red""]","5","high nameability","44","right","response","1"
"html-audio-button-response","211","1097698","0.0-163.0-1.0","CAN_121","121","","","","","","null","stimuli/bleep.m4a","null","red","brown","[""red"",""brown"",""high nameability""]","right-left","[""brown"",""red""]","5","high nameability","44","right","audio_feedback","1"
"html-button-response","212","1098212","0.0-164.0","CAN_121","121","","","","","","null","<button class=""jspsych-btn""><img src=""stimuli/white_square.png"" style=""width: 200px;height: 200px;""></button>","null","red","brown","[""red"",""brown"",""high nameability""]","right-left","[""brown"",""red""]","5","high nameability","44","right","iti",""
"html-button-response","213","1098732","0.0-165.0","CAN_121","121","","","","","","504","","0","lightred","pink","[""lightred"",""pink"",""low nameability""]","left-right","[""lightred"",""pink"",""low nameability""]","5","low nameability","45","left","trigger",""
"html-button-response","214","1099301","0.0-166.0-0.0","CAN_121","121","","","","","","561","<button class=""jspsych-btn""><img src=""stimuli/lightred.png"" style=""width: 200px;height: 200px;""></button>","0","lightred","pink","[""lightred"",""pink"",""low nameability""]","left-right","[""lightred"",""pink"",""low nameability""]","5","low nameability","45","left","response","1"
"html-audio-button-response","215","1099507","0.0-166.0-1.0","CAN_121","121","","","","","","null","stimuli/bleep.m4a","null","lightred","pink","[""lightred"",""pink"",""low nameability""]","left-right","[""lightred"",""pink"",""low nameability""]","5","low nameability","45","left","audio_feedback","1"
"html-button-response","216","1100024","0.0-167.0","CAN_121","121","","","","","","null","<button class=""jspsych-btn""><img src=""stimuli/white_square.png"" style=""width: 200px;height: 200px;""></button>","null","lightred","pink","[""lightred"",""pink"",""low nameability""]","left-right","[""lightred"",""pink"",""low nameability""]","5","low nameability","45","left","iti",""
"html-button-response","217","1100512","0.0-168.0","CAN_121","121","","","","","","469","","0","neonyellow","darkgreenblue","[""neonyellow"",""darkgreenblue"",""low nameability""]","left-right","[""neonyellow"",""darkgreenblue"",""low nameability""]","5","low nameability","46","left","trigger",""
"html-button-response","218","1101093","0.0-169.0-0.0","CAN_121","121","","","","","","576","<button class=""jspsych-btn""><img src=""stimuli/neonyellow.png"" style=""width: 200px;height: 200px;""></button>","0","neonyellow","darkgreenblue","[""neonyellow"",""darkgreenblue"",""low nameability""]","left-right","[""neonyellow"",""darkgreenblue"",""low nameability""]","5","low nameability","46","left","response","1"
"html-audio-button-response","219","1101294","0.0-169.0-1.0","CAN_121","121","","","","","","null","stimuli/bleep.m4a","null","neonyellow","darkgreenblue","[""neonyellow"",""darkgreenblue"",""low nameability""]","left-right","[""neonyellow"",""darkgreenblue"",""low nameability""]","5","low nameability","46","left","audio_feedback","1"
"html-button-response","220","1101811","0.0-170.0","CAN_121","121","","","","","","null","<button class=""jspsych-btn""><img src=""stimuli/white_square.png"" style=""width: 200px;height: 200px;""></button>","null","neonyellow","darkgreenblue","[""neonyellow"",""darkgreenblue"",""low nameability""]","left-right","[""neonyellow"",""darkgreenblue"",""low nameability""]","5","low nameability","46","left","iti",""
"html-button-response","221","1102282","0.0-171.0","CAN_121","121","","","","","","456","","0","yellow","purple","[""yellow"",""purple"",""high nameability""]","left-right","[""yellow"",""purple"",""high nameability""]","5","high nameability","47","left","trigger",""
"html-button-response","222","1102814","0.0-172.0-0.0","CAN_121","121","","","","","","525","<button class=""jspsych-btn""><img src=""stimuli/yellow.png"" style=""width: 200px;height: 200px;""></button>","0","yellow","purple","[""yellow"",""purple"",""high nameability""]","left-right","[""yellow"",""purple"",""high nameability""]","5","high nameability","47","left","response","1"
"html-audio-button-response","223","1103018","0.0-172.0-1.0","CAN_121","121","","","","","","null","stimuli/bleep.m4a","null","yellow","purple","[""yellow"",""purple"",""high nameability""]","left-right","[""yellow"",""purple"",""high nameability""]","5","high nameability","47","left","audio_feedback","1"
"html-button-response","224","1103537","0.0-173.0","CAN_121","121","","","","","","null","<button class=""jspsych-btn""><img src=""stimuli/white_square.png"" style=""width: 200px;height: 200px;""></button>","null","yellow","purple","[""yellow"",""purple"",""high nameability""]","left-right","[""yellow"",""purple"",""high nameability""]","5","high nameability","47","left","iti",""
"html-button-response","225","1104065","0.0-174.0","CAN_121","121","","","","","","513","","0","red","orange","[""red"",""orange"",""high nameability""]","right-left","[""orange"",""red""]","5","high nameability","48","right","trigger",""
"html-button-response","226","1104679","0.0-175.0-0.0","CAN_121","121","","","","","","608","<button class=""jspsych-btn""><img src=""stimuli/red.png"" style=""width: 200px;height: 200px;""></button>","1","red","orange","[""red"",""orange"",""high nameability""]","right-left","[""orange"",""red""]","5","high nameability","48","right","response","1"
"html-audio-button-response","227","1104888","0.0-175.0-1.0","CAN_121","121","","","","","","null","stimuli/bleep.m4a","null","red","orange","[""red"",""orange"",""high nameability""]","right-left","[""orange"",""red""]","5","high nameability","48","right","audio_feedback","1"
"html-button-response","228","1105405","0.0-176.0","CAN_121","121","","","","","","null","<button class=""jspsych-btn""><img src=""stimuli/white_square.png"" style=""width: 200px;height: 200px;""></button>","null","red","orange","[""red"",""orange"",""high nameability""]","right-left","[""orange"",""red""]","5","high nameability","48","right","iti",""
"html-button-response","229","1105832","0.0-177.0","CAN_121","121","","","","","","413","","0","red","blue","[""red"",""blue"",""high nameability""]","left-right","[""red"",""blue"",""high nameability""]","5","high nameability","49","left","trigger",""
"html-button-response","230","1106412","0.0-178.0-0.0","CAN_121","121","","","","","","571","<button class=""jspsych-btn""><img src=""stimuli/red.png"" style=""width: 200px;height: 200px;""></button>","0","red","blue","[""red"",""blue"",""high nameability""]","left-right","[""red"",""blue"",""high nameability""]","5","high nameability","49","left","response","1"
"html-audio-button-response","231","1106615","0.0-178.0-1.0","CAN_121","121","","","","","","null","stimuli/bleep.m4a","null","red","blue","[""red"",""blue"",""high nameability""]","left-right","[""red"",""blue"",""high nameability""]","5","high nameability","49","left","audio_feedback","1"
"html-button-response","232","1107134","0.0-179.0","CAN_121","121","","","","","","null","<button class=""jspsych-btn""><img src=""stimuli/white_square.png"" style=""width: 200px;height: 200px;""></button>","null","red","blue","[""red"",""blue"",""high nameability""]","left-right","[""red"",""blue"",""high nameability""]","5","high nameability","49","left","iti",""
"html-button-response","233","1107602","0.0-180.0","CAN_121","121","","","","","","453","","0","mustard","pink","[""mustard"",""pink"",""low nameability""]","right-left","[""pink"",""mustard""]","5","low nameability","50","right","trigger",""
"html-button-response","234","1108216","0.0-181.0-0.0","CAN_121","121","","","","","","606","<button class=""jspsych-btn""><img src=""stimuli/mustard.png"" style=""width: 200px;height: 200px;""></button>","1","mustard","pink","[""mustard"",""pink"",""low nameability""]","right-left","[""pink"",""mustard""]","5","low nameability","50","right","response","1"
"html-audio-button-response","235","1108418","0.0-181.0-1.0","CAN_121","121","","","","","","null","stimuli/bleep.m4a","null","mustard","pink","[""mustard"",""pink"",""low nameability""]","right-left","[""pink"",""mustard""]","5","low nameability","50","right","audio_feedback","1"
"html-button-response","236","1108932","0.0-182.0","CAN_121","121","","","","","","null","<button class=""jspsych-btn""><img src=""stimuli/white_square.png"" style=""width: 200px;height: 200px;""></button>","null","mustard","pink","[""mustard"",""pink"",""low nameability""]","right-left","[""pink"",""mustard""]","5","low nameability","50","right","iti",""
"pavlovia","237","1108996","0.0-183.0","CAN_121","121","","","","","","","","","","","","","","","","","","",""
"pavlovia","238","1109009","0.0-184.0","CAN_121","121","","","","","","","","","","","","","","","","","","",""
"html-audio-button-response","239","1110237","0.0-185.0","CAN_121","121","","","","","","1304","stimuli/tada.m4a","0","","","","","","","","","","",""
"html-button-response","240","1110879","0.0-186.0","CAN_121","121","","","","","","636","","0","","","","","","","","","","",""
"html-button-response","241","1111415","0.0-187.0","CAN_121","121","","","","","","528","","0","blue","brown","[""blue"",""brown"",""high nameability""]","left-right","[""blue"",""brown"",""high nameability""]","6","high nameability","51","left","trigger",""
"html-button-response","242","1111988","0.0-188.0-0.0","CAN_121","121","","","","","","565","<button class=""jspsych-btn""><img src=""stimuli/blue.png"" style=""width: 200px;height: 200px;""></button>","0","blue","brown","[""blue"",""brown"",""high nameability""]","left-right","[""blue"",""brown"",""high nameability""]","6","high nameability","51","left","response","1"
"html-audio-button-response","243","1112191","0.0-188.0-1.0","CAN_121","121","","","","","","null","stimuli/bleep.m4a","null","blue","brown","[""blue"",""brown"",""high nameability""]","left-right","[""blue"",""brown"",""high nameability""]","6","high nameability","51","left","audio_feedback","1"
"html-button-response","244","1112711","0.0-189.0","CAN_121","121","","","","","","null","<button class=""jspsych-btn""><img src=""stimuli/white_square.png"" style=""width: 200px;height: 200px;""></button>","null","blue","brown","[""blue"",""brown"",""high nameability""]","left-right","[""blue"",""brown"",""high nameability""]","6","high nameability","51","left","iti",""
"html-button-response","245","1113260","0.0-190.0","CAN_121","121","","","","","","531","","0","turquoise","lightred","[""turquoise"",""lightred"",""low nameability""]","right-left","[""lightred"",""turquoise""]","6","low nameability","52","right","trigger",""
"html-button-response","246","1113780","0.0-191.0-0.0","CAN_121","121","","","","","","515","<button class=""jspsych-btn""><img src=""stimuli/turquoise.png"" style=""width: 200px;height: 200px;""></button>","1","turquoise","lightred","[""turquoise"",""lightred"",""low nameability""]","right-left","[""lightred"",""turquoise""]","6","low nameability","52","right","response","1"
"html-audio-button-response","247","1113985","0.0-191.0-1.0","CAN_121","121","","","","","","null","stimuli/bleep.m4a","null","turquoise","lightred","[""turquoise"",""lightred"",""low nameability""]","right-left","[""lightred"",""turquoise""]","6","low nameability","52","right","audio_feedback","1"
"html-button-response","248","1114501","0.0-192.0","CAN_121","121","","","","","","null","<button class=""jspsych-btn""><img src=""stimuli/white_square.png"" style=""width: 200px;height: 200px;""></button>","null","turquoise","lightred","[""turquoise"",""lightred"",""low nameability""]","right-left","[""lightred"",""turquoise""]","6","low nameability","52","right","iti",""
"html-button-response","249","1114980","0.0-193.0","CAN_121","121","","","","","","464","","0","neonyellow","turquoise","[""neonyellow"",""turquoise"",""low nameability""]","right-left","[""turquoise"",""neonyellow""]","6","low nameability","53","right","trigger",""
"html-button-response","250","1115539","0.0-194.0-0.0","CAN_121","121","","","","","","551","<button class=""jspsych-btn""><img src=""stimuli/neonyellow.png"" style=""width: 200px;height: 200px;""></button>","1","neonyellow","turquoise","[""neonyellow"",""turquoise"",""low nameability""]","right-left","[""turquoise"",""neonyellow""]","6","low nameability","53","right","response","1"
"html-audio-button-response","251","1115748","0.0-194.0-1.0","CAN_121","121","","","","","","null","stimuli/bleep.m4a","null","neonyellow","turquoise","[""neonyellow"",""turquoise"",""low nameability""]","right-left","[""turquoise"",""neonyellow""]","6","low nameability","53","right","audio_feedback","1"
"html-button-response","252","1116265","0.0-195.0","CAN_121","121","","","","","","null","<button class=""jspsych-btn""><img src=""stimuli/white_square.png"" style=""width: 200px;height: 200px;""></button>","null","neonyellow","turquoise","[""neonyellow"",""turquoise"",""low nameability""]","right-left","[""turquoise"",""neonyellow""]","6","low nameability","53","right","iti",""
"html-button-response","253","1116740","0.0-196.0","CAN_121","121","","","","","","455","","0","blue","purple","[""blue"",""purple"",""high nameability""]","left-right","[""blue"",""purple"",""high nameability""]","6","high nameability","54","left","trigger",""
"html-button-response","254","1117341","0.0-197.0-0.0","CAN_121","121","","","","","","593","<button class=""jspsych-btn""><img src=""stimuli/blue.png"" style=""width: 200px;height: 200px;""></button>","0","blue","purple","[""blue"",""purple"",""high nameability""]","left-right","[""blue"",""purple"",""high nameability""]","6","high nameability","54","left","response","1"
"html-audio-button-response","255","1117547","0.0-197.0-1.0","CAN_121","121","","","","","","null","stimuli/bleep.m4a","null","blue","purple","[""blue"",""purple"",""high nameability""]","left-right","[""blue"",""purple"",""high nameability""]","6","high nameability","54","left","audio_feedback","1"
"html-button-response","256","1118067","0.0-198.0","CAN_121","121","","","","","","null","<button class=""jspsych-btn""><img src=""stimuli/white_square.png"" style=""width: 200px;height: 200px;""></button>","null","blue","purple","[""blue"",""purple"",""high nameability""]","left-right","[""blue"",""purple"",""high nameability""]","6","high nameability","54","left","iti",""
"html-button-response","257","1118559","0.0-199.0","CAN_121","121","","","","","","475","","0","purple","red","[""purple"",""red"",""high nameability""]","left-right","[""purple"",""red"",""high nameability""]","6","high nameability","55","left","trigger",""
"html-button-response","258","1119162","0.0-200.0-0.0","CAN_121","121","","","","","","597","<button class=""jspsych-btn""><img src=""stimuli/purple.png"" style=""width: 200px;height: 200px;""></button>","0","purple","red","[""purple"",""red"",""high nameability""]","left-right","[""purple"",""red"",""high nameability""]","6","high nameability","55","left","response","1"
"html-audio-button-response","259","1119370","0.0-200.0-1.0","CAN_121","121","","","","","","null","stimuli/bleep.m4a","null","purple","red","[""purple"",""red"",""high nameability""]","left-right","[""purple"",""red"",""high nameability""]","6","high nameability","55","left","audio_feedback","1"
"html-button-response","260","1119889","0.0-201.0","CAN_121","121","","","","","","null","<button class=""jspsych-btn""><img src=""stimuli/white_square.png"" style=""width: 200px;height: 200px;""></button>","null","purple","red","[""purple"",""red"",""high nameability""]","left-right","[""purple"",""red"",""high nameability""]","6","high nameability","55","left","iti",""
"html-button-response","261","1120411","0.0-202.0","CAN_121","121","","","","","","503","","0","turquoise","neonyellow","[""turquoise"",""neonyellow"",""low nameability""]","right-left","[""neonyellow"",""turquoise""]","6","low nameability","56","right","trigger",""
"html-button-response","262","1120965","0.0-203.0-0.0","CAN_121","121","","","","","","546","<button class=""jspsych-btn""><img src=""stimuli/turquoise.png"" style=""width: 200px;height: 200px;""></button>","1","turquoise","neonyellow","[""turquoise"",""neonyellow"",""low nameability""]","right-left","[""neonyellow"",""turquoise""]","6","low nameability","56","right","response","1"
"html-audio-button-response","263","1121170","0.0-203.0-1.0","CAN_121","121","","","","","","null","stimuli/bleep.m4a","null","turquoise","neonyellow","[""turquoise"",""neonyellow"",""low nameability""]","right-left","[""neonyellow"",""turquoise""]","6","low nameability","56","right","audio_feedback","1"
"html-button-response","264","1121690","0.0-204.0","CAN_121","121","","","","","","null","<button class=""jspsych-btn""><img src=""stimuli/white_square.png"" style=""width: 200px;height: 200px;""></button>","null","turquoise","neonyellow","[""turquoise"",""neonyellow"",""low nameability""]","right-left","[""neonyellow"",""turquoise""]","6","low nameability","56","right","iti",""
"html-button-response","265","1122138","0.0-205.0","CAN_121","121","","","","","","426","","0","neonyellow","pink","[""neonyellow"",""pink"",""low nameability""]","left-right","[""neonyellow"",""pink"",""low nameability""]","6","low nameability","57","left","trigger",""
"html-button-response","266","1122721","0.0-206.0-0.0","CAN_121","121","","","","","","577","<button class=""jspsych-btn""><img src=""stimuli/neonyellow.png"" style=""width: 200px;height: 200px;""></button>","0","neonyellow","pink","[""neonyellow"",""pink"",""low nameability""]","left-right","[""neonyellow"",""pink"",""low nameability""]","6","low nameability","57","left","response","1"
"html-audio-button-response","267","1122926","0.0-206.0-1.0","CAN_121","121","","","","","","null","stimuli/bleep.m4a","null","neonyellow","pink","[""neonyellow"",""pink"",""low nameability""]","left-right","[""neonyellow"",""pink"",""low nameability""]","6","low nameability","57","left","audio_feedback","1"
"html-button-response","268","1123442","0.0-207.0","CAN_121","121","","","","","","null","<button class=""jspsych-btn""><img src=""stimuli/white_square.png"" style=""width: 200px;height: 200px;""></button>","null","neonyellow","pink","[""neonyellow"",""pink"",""low nameability""]","left-right","[""neonyellow"",""pink"",""low nameability""]","6","low nameability","57","left","iti",""
"html-button-response","269","1123972","0.0-208.0","CAN_121","121","","","","","","505","","0","pink","mustard","[""pink"",""mustard"",""low nameability""]","left-right","[""pink"",""mustard"",""low nameability""]","6","low nameability","58","left","trigger",""
"html-button-response","270","1124668","0.0-209.0-0.0","CAN_121","121","","","","","","687","<button class=""jspsych-btn""><img src=""stimuli/pink.png"" style=""width: 200px;height: 200px;""></button>","0","pink","mustard","[""pink"",""mustard"",""low nameability""]","left-right","[""pink"",""mustard"",""low nameability""]","6","low nameability","58","left","response","1"
"html-audio-button-response","271","1124871","0.0-209.0-1.0","CAN_121","121","","","","","","null","stimuli/bleep.m4a","null","pink","mustard","[""pink"",""mustard"",""low nameability""]","left-right","[""pink"",""mustard"",""low nameability""]","6","low nameability","58","left","audio_feedback","1"
"html-button-response","272","1125398","0.0-210.0","CAN_121","121","","","","","","null","<button class=""jspsych-btn""><img src=""stimuli/white_square.png"" style=""width: 200px;height: 200px;""></button>","null","pink","mustard","[""pink"",""mustard"",""low nameability""]","left-right","[""pink"",""mustard"",""low nameability""]","6","low nameability","58","left","iti",""
"html-button-response","273","1125849","0.0-211.0","CAN_121","121","","","","","","441","","0","purple","brown","[""purple"",""brown"",""high nameability""]","right-left","[""brown"",""purple""]","6","high nameability","59","right","trigger",""
"html-button-response","274","1126457","0.0-212.0-0.0","CAN_121","121","","","","","","599","<button class=""jspsych-btn""><img src=""stimuli/purple.png"" style=""width: 200px;height: 200px;""></button>","1","purple","brown","[""purple"",""brown"",""high nameability""]","right-left","[""brown"",""purple""]","6","high nameability","59","right","response","1"
"html-audio-button-response","275","1126657","0.0-212.0-1.0","CAN_121","121","","","","","","null","stimuli/bleep.m4a","null","purple","brown","[""purple"",""brown"",""high nameability""]","right-left","[""brown"",""purple""]","6","high nameability","59","right","audio_feedback","1"
"html-button-response","276","1127178","0.0-213.0","CAN_121","121","","","","","","null","<button class=""jspsych-btn""><img src=""stimuli/white_square.png"" style=""width: 200px;height: 200px;""></button>","null","purple","brown","[""purple"",""brown"",""high nameability""]","right-left","[""brown"",""purple""]","6","high nameability","59","right","iti",""
"html-button-response","277","1127631","0.0-214.0","CAN_121","121","","","","","","442","","0","brown","purple","[""brown"",""purple"",""high nameability""]","right-left","[""purple"",""brown""]","6","high nameability","60","right","trigger",""
"html-button-response","278","1128411","0.0-215.0-0.0","CAN_121","121","","","","","","772","<button class=""jspsych-btn""><img src=""stimuli/brown.png"" style=""width: 200px;height: 200px;""></button>","1","brown","purple","[""brown"",""purple"",""high nameability""]","right-left","[""purple"",""brown""]","6","high nameability","60","right","response","1"
"html-audio-button-response","279","1128614","0.0-215.0-1.0","CAN_121","121","","","","","","null","stimuli/bleep.m4a","null","brown","purple","[""brown"",""purple"",""high nameability""]","right-left","[""purple"",""brown""]","6","high nameability","60","right","audio_feedback","1"
"html-button-response","280","1129129","0.0-216.0","CAN_121","121","","","","","","null","<button class=""jspsych-btn""><img src=""stimuli/white_square.png"" style=""width: 200px;height: 200px;""></button>","null","brown","purple","[""brown"",""purple"",""high nameability""]","right-left","[""purple"",""brown""]","6","high nameability","60","right","iti",""
