"trial_type","trial_index","time_elapsed","internal_node_id","subject_id","seed","success","timeout","failed_images","failed_audio","failed_video","rt","stimulus","response","target","foil","choices","combination_order","choices_in_order","round","condition","trial_counter","target_location","trial_kind","correct"
"pavlovia","0","20","0.0-0.0","CKN_113","113","","","","","","","","","","","","","","","","","","",""
"preload","1","1988","0.0-1.0","CKN_113","113","true","false","[]","[]","[]","","","","","","","","","","","","","",""
"fullscreen","2","6515","0.0-2.0","CKN_113","113","true","","","","","","","","","","","","","","","","","",""
"html-button-response","3","32137","0.0-3.0","CKN_113","113","","","","","","25596","","0","","","","","","","","","","",""
"html-button-response","4","39298","0.0-4.0","CKN_113","113","","","","","","7151","","0","star","square","[""square"",""star""]","left-right","[""square"",""star""]","1","practice","1","right","trigger",""
"html-button-response","5","49776","0.0-5.0-0.0","CKN_113","113","","","","","","10465","<button class=""jspsych-btn""><img src=""stimuli/star.png"" style=""width: 200px;height: 200px;""></button>","1","star","square","[""square"",""star""]","left-right","[""square"",""star""]","1","practice","1","right","response","1"
"html-audio-button-response","6","49986","0.0-5.0-1.0","CKN_113","113","","","","","","null","stimuli/bleep.m4a","null","star","square","[""square"",""star""]","left-right","[""square"",""star""]","1","practice","1","right","audio_feedback","1"
"html-button-response","7","50502","0.0-6.0","CKN_113","113","","","","","","null","<button class=""jspsych-btn""><img src=""stimuli/white_square.png"" style=""width: 200px;height: 200px;""></button>","null","star","square","[""square"",""star""]","left-right","[""square"",""star""]","1","practice","1","right","iti",""
"html-button-response","8","54423","0.0-7.0","CKN_113","113","","","","","","3899","","0","triangle","pentagram","[""triangle"",""pentagram""]","left-right","[""triangle"",""pentagram""]","1","practice","1","left","trigger",""
"html-button-response","9","61917","0.0-8.0-0.0","CKN_113","113","","","","","","7485","<button class=""jspsych-btn""><img src=""stimuli/triangle.png"" style=""width: 200px;height: 200px;""></button>","1","triangle","pentagram","[""triangle"",""pentagram""]","left-right","[""triangle"",""pentagram""]","1","practice","1","left","response","0"
"html-audio-button-response","10","62554","0.0-8.0-1.0","CKN_113","113","","","","","","null","stimuli/boing.m4a","null","triangle","pentagram","[""triangle"",""pentagram""]","left-right","[""triangle"",""pentagram""]","1","practice","1","left","audio_feedback","0"
"html-button-response","11","70305","0.0-8.1-0.1","CKN_113","113","","","","","","7723","<button class=""jspsych-btn""><img src=""stimuli/triangle.png"" style=""width: 200px;height: 200px;""></button>","0","triangle","pentagram","[""triangle"",""pentagram""]","left-right","[""triangle"",""pentagram""]","1","practice","1","left","response","1"
"html-audio-button-response","12","70508","0.0-8.1-1.1","CKN_113","113","","","","","","null","stimuli/bleep.m4a","null","triangle","pentagram","[""triangle"",""pentagram""]","left-right","[""triangle"",""pentagram""]","1","practice","1","left","audio_feedback","1"
"html-button-response","13","71030","0.0-9.0","CKN_113","113","","","","","","null","<button class=""jspsych-btn""><img src=""stimuli/white_square.png"" style=""width: 200px;height: 200px;""></button>","null","triangle","pentagram","[""triangle"",""pentagram""]","left-right","[""triangle"",""pentagram""]","1","practice","1","left","iti",""
"html-button-response","14","74449","0.0-10.0","CKN_113","113","","","","","","3408","","0","diamond","rectangle","[""rectangle"",""diamond""]","left-right","[""rectangle"",""diamond""]","1","practice","1","right","trigger",""
"html-button-response","15","78164","0.0-11.0-0.0","CKN_113","113","","","","","","3708","<button class=""jspsych-btn""><img src=""stimuli/diamond.png"" style=""width: 200px;height: 200px;""></button>","1","diamond","rectangle","[""rectangle"",""diamond""]","left-right","[""rectangle"",""diamond""]","1","practice","1","right","response","1"
"html-audio-button-response","16","78369","0.0-11.0-1.0","CKN_113","113","","","","","","null","stimuli/bleep.m4a","null","diamond","rectangle","[""rectangle"",""diamond""]","left-right","[""rectangle"",""diamond""]","1","practice","1","right","audio_feedback","1"
"html-button-response","17","78884","0.0-12.0","CKN_113","113","","","","","","null","<button class=""jspsych-btn""><img src=""stimuli/white_square.png"" style=""width: 200px;height: 200px;""></button>","null","diamond","rectangle","[""rectangle"",""diamond""]","left-right","[""rectangle"",""diamond""]","1","practice","1","right","iti",""
"html-button-response","18","80260","0.0-13.0","CKN_113","113","","","","","","1361","","0","pentagram","star","[""pentagram"",""star""]","left-right","[""pentagram"",""star""]","1","practice","1","left","trigger",""
"html-button-response","19","84484","0.0-14.0-0.0","CKN_113","113","","","","","","4216","<button class=""jspsych-btn""><img src=""stimuli/pentagram.png"" style=""width: 200px;height: 200px;""></button>","0","pentagram","star","[""pentagram"",""star""]","left-right","[""pentagram"",""star""]","1","practice","1","left","response","1"
"html-audio-button-response","20","84686","0.0-14.0-1.0","CKN_113","113","","","","","","null","stimuli/bleep.m4a","null","pentagram","star","[""pentagram"",""star""]","left-right","[""pentagram"",""star""]","1","practice","1","left","audio_feedback","1"
"html-button-response","21","85199","0.0-15.0","CKN_113","113","","","","","","null","<button class=""jspsych-btn""><img src=""stimuli/white_square.png"" style=""width: 200px;height: 200px;""></button>","null","pentagram","star","[""pentagram"",""star""]","left-right","[""pentagram"",""star""]","1","practice","1","left","iti",""
"html-button-response","22","98714","0.0-16.0","CKN_113","113","","","","","","13500","","0","","","","","","","","","","",""
"html-button-response","23","99949","0.0-17.0","CKN_113","113","","","","","","1228","","0","darkgreenblue","neonyellow","[""darkgreenblue"",""neonyellow"",""low nameability""]","right-left","[""neonyellow"",""darkgreenblue""]","1","low nameability","1","right","trigger",""
"html-button-response","24","102946","0.0-18.0-0.0","CKN_113","113","","","","","","2991","<button class=""jspsych-btn""><img src=""stimuli/darkgreenblue.png"" style=""width: 200px;height: 200px;""></button>","1","darkgreenblue","neonyellow","[""darkgreenblue"",""neonyellow"",""low nameability""]","right-left","[""neonyellow"",""darkgreenblue""]","1","low nameability","1","right","response","1"
"html-audio-button-response","25","103148","0.0-18.0-1.0","CKN_113","113","","","","","","null","stimuli/bleep.m4a","null","darkgreenblue","neonyellow","[""darkgreenblue"",""neonyellow"",""low nameability""]","right-left","[""neonyellow"",""darkgreenblue""]","1","low nameability","1","right","audio_feedback","1"
"html-button-response","26","103662","0.0-19.0","CKN_113","113","","","","","","null","<button class=""jspsych-btn""><img src=""stimuli/white_square.png"" style=""width: 200px;height: 200px;""></button>","null","darkgreenblue","neonyellow","[""darkgreenblue"",""neonyellow"",""low nameability""]","right-left","[""neonyellow"",""darkgreenblue""]","1","low nameability","1","right","iti",""
"html-button-response","27","104732","0.0-20.0","CKN_113","113","","","","","","1053","","0","turquoise","pink","[""turquoise"",""pink"",""low nameability""]","right-left","[""pink"",""turquoise""]","1","low nameability","2","right","trigger",""
"html-button-response","28","114372","0.0-21.0-0.0","CKN_113","113","","","","","","9634","<button class=""jspsych-btn""><img src=""stimuli/turquoise.png"" style=""width: 200px;height: 200px;""></button>","1","turquoise","pink","[""turquoise"",""pink"",""low nameability""]","right-left","[""pink"",""turquoise""]","1","low nameability","2","right","response","1"
"html-audio-button-response","29","114576","0.0-21.0-1.0","CKN_113","113","","","","","","null","stimuli/bleep.m4a","null","turquoise","pink","[""turquoise"",""pink"",""low nameability""]","right-left","[""pink"",""turquoise""]","1","low nameability","2","right","audio_feedback","1"
"html-button-response","30","115096","0.0-22.0","CKN_113","113","","","","","","null","<button class=""jspsych-btn""><img src=""stimuli/white_square.png"" style=""width: 200px;height: 200px;""></button>","null","turquoise","pink","[""turquoise"",""pink"",""low nameability""]","right-left","[""pink"",""turquoise""]","1","low nameability","2","right","iti",""
"html-button-response","31","116349","0.0-23.0","CKN_113","113","","","","","","1237","","0","red","blue","[""red"",""blue"",""high nameability""]","right-left","[""blue"",""red""]","1","high nameability","3","right","trigger",""
"html-button-response","32","130406","0.0-24.0-0.0","CKN_113","113","","","","","","14049","<button class=""jspsych-btn""><img src=""stimuli/red.png"" style=""width: 200px;height: 200px;""></button>","0","red","blue","[""red"",""blue"",""high nameability""]","right-left","[""blue"",""red""]","1","high nameability","3","right","response","0"
"html-audio-button-response","33","131033","0.0-24.0-1.0","CKN_113","113","","","","","","null","stimuli/boing.m4a","null","red","blue","[""red"",""blue"",""high nameability""]","right-left","[""blue"",""red""]","1","high nameability","3","right","audio_feedback","0"
"html-button-response","34","142073","0.0-24.1-0.1","CKN_113","113","","","","","","11019","<button class=""jspsych-btn""><img src=""stimuli/red.png"" style=""width: 200px;height: 200px;""></button>","1","red","blue","[""red"",""blue"",""high nameability""]","right-left","[""blue"",""red""]","1","high nameability","3","right","response","1"
"html-audio-button-response","35","142275","0.0-24.1-1.1","CKN_113","113","","","","","","null","stimuli/bleep.m4a","null","red","blue","[""red"",""blue"",""high nameability""]","right-left","[""blue"",""red""]","1","high nameability","3","right","audio_feedback","1"
"html-button-response","36","142786","0.0-25.0","CKN_113","113","","","","","","null","<button class=""jspsych-btn""><img src=""stimuli/white_square.png"" style=""width: 200px;height: 200px;""></button>","null","red","blue","[""red"",""blue"",""high nameability""]","right-left","[""blue"",""red""]","1","high nameability","3","right","iti",""
"html-button-response","37","144045","0.0-26.0","CKN_113","113","","","","","","1243","","0","lightred","pink","[""lightred"",""pink"",""low nameability""]","left-right","[""lightred"",""pink"",""low nameability""]","1","low nameability","4","left","trigger",""
"html-button-response","38","151251","0.0-27.0-0.0","CKN_113","113","","","","","","7197","<button class=""jspsych-btn""><img src=""stimuli/lightred.png"" style=""width: 200px;height: 200px;""></button>","0","lightred","pink","[""lightred"",""pink"",""low nameability""]","left-right","[""lightred"",""pink"",""low nameability""]","1","low nameability","4","left","response","1"
"html-audio-button-response","39","151453","0.0-27.0-1.0","CKN_113","113","","","","","","null","stimuli/bleep.m4a","null","lightred","pink","[""lightred"",""pink"",""low nameability""]","left-right","[""lightred"",""pink"",""low nameability""]","1","low nameability","4","left","audio_feedback","1"
"html-button-response","40","151964","0.0-28.0","CKN_113","113","","","","","","null","<button class=""jspsych-btn""><img src=""stimuli/white_square.png"" style=""width: 200px;height: 200px;""></button>","null","lightred","pink","[""lightred"",""pink"",""low nameability""]","left-right","[""lightred"",""pink"",""low nameability""]","1","low nameability","4","left","iti",""
"html-button-response","41","153049","0.0-29.0","CKN_113","113","","","","","","1069","","0","orange","brown","[""orange"",""brown"",""high nameability""]","right-left","[""brown"",""orange""]","1","high nameability","5","right","trigger",""
"html-button-response","42","159029","0.0-30.0-0.0","CKN_113","113","","","","","","5970","<button class=""jspsych-btn""><img src=""stimuli/orange.png"" style=""width: 200px;height: 200px;""></button>","1","orange","brown","[""orange"",""brown"",""high nameability""]","right-left","[""brown"",""orange""]","1","high nameability","5","right","response","1"
"html-audio-button-response","43","159231","0.0-30.0-1.0","CKN_113","113","","","","","","null","stimuli/bleep.m4a","null","orange","brown","[""orange"",""brown"",""high nameability""]","right-left","[""brown"",""orange""]","1","high nameability","5","right","audio_feedback","1"
"html-button-response","44","159748","0.0-31.0","CKN_113","113","","","","","","null","<button class=""jspsych-btn""><img src=""stimuli/white_square.png"" style=""width: 200px;height: 200px;""></button>","null","orange","brown","[""orange"",""brown"",""high nameability""]","right-left","[""brown"",""orange""]","1","high nameability","5","right","iti",""
"html-button-response","45","160861","0.0-32.0","CKN_113","113","","","","","","1089","","0","yellow","blue","[""yellow"",""blue"",""high nameability""]","right-left","[""blue"",""yellow""]","1","high nameability","6","right","trigger",""
"html-button-response","46","163924","0.0-33.0-0.0","CKN_113","113","","","","","","3054","<button class=""jspsych-btn""><img src=""stimuli/yellow.png"" style=""width: 200px;height: 200px;""></button>","1","yellow","blue","[""yellow"",""blue"",""high nameability""]","right-left","[""blue"",""yellow""]","1","high nameability","6","right","response","1"
"html-audio-button-response","47","164128","0.0-33.0-1.0","CKN_113","113","","","","","","null","stimuli/bleep.m4a","null","yellow","blue","[""yellow"",""blue"",""high nameability""]","right-left","[""blue"",""yellow""]","1","high nameability","6","right","audio_feedback","1"
"html-button-response","48","164641","0.0-34.0","CKN_113","113","","","","","","null","<button class=""jspsych-btn""><img src=""stimuli/white_square.png"" style=""width: 200px;height: 200px;""></button>","null","yellow","blue","[""yellow"",""blue"",""high nameability""]","right-left","[""blue"",""yellow""]","1","high nameability","6","right","iti",""
"html-button-response","49","165571","0.0-35.0","CKN_113","113","","","","","","920","","0","orange","blue","[""orange"",""blue"",""high nameability""]","right-left","[""blue"",""orange""]","1","high nameability","7","right","trigger",""
"html-button-response","50","166849","0.0-36.0-0.0","CKN_113","113","","","","","","1269","<button class=""jspsych-btn""><img src=""stimuli/orange.png"" style=""width: 200px;height: 200px;""></button>","1","orange","blue","[""orange"",""blue"",""high nameability""]","right-left","[""blue"",""orange""]","1","high nameability","7","right","response","1"
"html-audio-button-response","51","167055","0.0-36.0-1.0","CKN_113","113","","","","","","null","stimuli/bleep.m4a","null","orange","blue","[""orange"",""blue"",""high nameability""]","right-left","[""blue"",""orange""]","1","high nameability","7","right","audio_feedback","1"
"html-button-response","52","167568","0.0-37.0","CKN_113","113","","","","","","null","<button class=""jspsych-btn""><img src=""stimuli/white_square.png"" style=""width: 200px;height: 200px;""></button>","null","orange","blue","[""orange"",""blue"",""high nameability""]","right-left","[""blue"",""orange""]","1","high nameability","7","right","iti",""
"html-button-response","53","168813","0.0-38.0","CKN_113","113","","","","","","1233","","0","yellow","red","[""yellow"",""red"",""high nameability""]","right-left","[""red"",""yellow""]","1","high nameability","8","right","trigger",""
"html-button-response","54","174991","0.0-39.0-0.0","CKN_113","113","","","","","","6170","<button class=""jspsych-btn""><img src=""stimuli/yellow.png"" style=""width: 200px;height: 200px;""></button>","1","yellow","red","[""yellow"",""red"",""high nameability""]","right-left","[""red"",""yellow""]","1","high nameability","8","right","response","1"
"html-audio-button-response","55","175197","0.0-39.0-1.0","CKN_113","113","","","","","","null","stimuli/bleep.m4a","null","yellow","red","[""yellow"",""red"",""high nameability""]","right-left","[""red"",""yellow""]","1","high nameability","8","right","audio_feedback","1"
"html-button-response","56","175713","0.0-40.0","CKN_113","113","","","","","","null","<button class=""jspsych-btn""><img src=""stimuli/white_square.png"" style=""width: 200px;height: 200px;""></button>","null","yellow","red","[""yellow"",""red"",""high nameability""]","right-left","[""red"",""yellow""]","1","high nameability","8","right","iti",""
"html-button-response","57","176418","0.0-41.0","CKN_113","113","","","","","","690","","0","turquoise","neonyellow","[""turquoise"",""neonyellow"",""low nameability""]","left-right","[""turquoise"",""neonyellow"",""low nameability""]","1","low nameability","9","left","trigger",""
"html-button-response","58","179614","0.0-42.0-0.0","CKN_113","113","","","","","","3189","<button class=""jspsych-btn""><img src=""stimuli/turquoise.png"" style=""width: 200px;height: 200px;""></button>","0","turquoise","neonyellow","[""turquoise"",""neonyellow"",""low nameability""]","left-right","[""turquoise"",""neonyellow"",""low nameability""]","1","low nameability","9","left","response","1"
"html-audio-button-response","59","179816","0.0-42.0-1.0","CKN_113","113","","","","","","null","stimuli/bleep.m4a","null","turquoise","neonyellow","[""turquoise"",""neonyellow"",""low nameability""]","left-right","[""turquoise"",""neonyellow"",""low nameability""]","1","low nameability","9","left","audio_feedback","1"
"html-button-response","60","180330","0.0-43.0","CKN_113","113","","","","","","null","<button class=""jspsych-btn""><img src=""stimuli/white_square.png"" style=""width: 200px;height: 200px;""></button>","null","turquoise","neonyellow","[""turquoise"",""neonyellow"",""low nameability""]","left-right","[""turquoise"",""neonyellow"",""low nameability""]","1","low nameability","9","left","iti",""
"html-button-response","61","181227","0.0-44.0","CKN_113","113","","","","","","885","","0","lightred","mustard","[""lightred"",""mustard"",""low nameability""]","right-left","[""mustard"",""lightred""]","1","low nameability","10","right","trigger",""
"html-button-response","62","184894","0.0-45.0-0.0","CKN_113","113","","","","","","3655","<button class=""jspsych-btn""><img src=""stimuli/lightred.png"" style=""width: 200px;height: 200px;""></button>","1","lightred","mustard","[""lightred"",""mustard"",""low nameability""]","right-left","[""mustard"",""lightred""]","1","low nameability","10","right","response","1"
"html-audio-button-response","63","185100","0.0-45.0-1.0","CKN_113","113","","","","","","null","stimuli/bleep.m4a","null","lightred","mustard","[""lightred"",""mustard"",""low nameability""]","right-left","[""mustard"",""lightred""]","1","low nameability","10","right","audio_feedback","1"
"html-button-response","64","185617","0.0-46.0","CKN_113","113","","","","","","null","<button class=""jspsych-btn""><img src=""stimuli/white_square.png"" style=""width: 200px;height: 200px;""></button>","null","lightred","mustard","[""lightred"",""mustard"",""low nameability""]","right-left","[""mustard"",""lightred""]","1","low nameability","10","right","iti",""
"pavlovia","65","185699","0.0-47.0","CKN_113","113","","","","","","","","","","","","","","","","","","",""
"pavlovia","66","185708","0.0-48.0","CKN_113","113","","","","","","","","","","","","","","","","","","",""
"html-audio-button-response","67","199393","0.0-49.0","CKN_113","113","","","","","","13749","stimuli/tada.m4a","0","","","","","","","","","","",""
"html-button-response","68","201729","0.0-50.0","CKN_113","113","","","","","","2326","","0","","","","","","","","","","",""
"html-button-response","69","204441","0.0-51.0","CKN_113","113","","","","","","2701","","0","red","orange","[""red"",""orange"",""high nameability""]","left-right","[""red"",""orange"",""high nameability""]","2","high nameability","11","left","trigger",""
"html-button-response","70","206594","0.0-52.0-0.0","CKN_113","113","","","","","","2144","<button class=""jspsych-btn""><img src=""stimuli/red.png"" style=""width: 200px;height: 200px;""></button>","0","red","orange","[""red"",""orange"",""high nameability""]","left-right","[""red"",""orange"",""high nameability""]","2","high nameability","11","left","response","1"
"html-audio-button-response","71","206798","0.0-52.0-1.0","CKN_113","113","","","","","","null","stimuli/bleep.m4a","null","red","orange","[""red"",""orange"",""high nameability""]","left-right","[""red"",""orange"",""high nameability""]","2","high nameability","11","left","audio_feedback","1"
"html-button-response","72","207313","0.0-53.0","CKN_113","113","","","","","","null","<button class=""jspsych-btn""><img src=""stimuli/white_square.png"" style=""width: 200px;height: 200px;""></button>","null","red","orange","[""red"",""orange"",""high nameability""]","left-right","[""red"",""orange"",""high nameability""]","2","high nameability","11","left","iti",""
"html-button-response","73","208568","0.0-54.0","CKN_113","113","","","","","","1244","","0","neonyellow","mustard","[""neonyellow"",""mustard"",""low nameability""]","right-left","[""mustard"",""neonyellow""]","2","low nameability","12","right","trigger",""
"html-button-response","74","210896","0.0-55.0-0.0","CKN_113","113","","","","","","2321","<button class=""jspsych-btn""><img src=""stimuli/neonyellow.png"" style=""width: 200px;height: 200px;""></button>","1","neonyellow","mustard","[""neonyellow"",""mustard"",""low nameability""]","right-left","[""mustard"",""neonyellow""]","2","low nameability","12","right","response","1"
"html-audio-button-response","75","211098","0.0-55.0-1.0","CKN_113","113","","","","","","null","stimuli/bleep.m4a","null","neonyellow","mustard","[""neonyellow"",""mustard"",""low nameability""]","right-left","[""mustard"",""neonyellow""]","2","low nameability","12","right","audio_feedback","1"
"html-button-response","76","211609","0.0-56.0","CKN_113","113","","","","","","null","<button class=""jspsych-btn""><img src=""stimuli/white_square.png"" style=""width: 200px;height: 200px;""></button>","null","neonyellow","mustard","[""neonyellow"",""mustard"",""low nameability""]","right-left","[""mustard"",""neonyellow""]","2","low nameability","12","right","iti",""
"html-button-response","77","212338","0.0-57.0","CKN_113","113","","","","","","724","","0","blue","brown","[""blue"",""brown"",""high nameability""]","right-left","[""brown"",""blue""]","2","high nameability","13","right","trigger",""
"html-button-response","78","215719","0.0-58.0-0.0","CKN_113","113","","","","","","3374","<button class=""jspsych-btn""><img src=""stimuli/blue.png"" style=""width: 200px;height: 200px;""></button>","1","blue","brown","[""blue"",""brown"",""high nameability""]","right-left","[""brown"",""blue""]","2","high nameability","13","right","response","1"
"html-audio-button-response","79","215923","0.0-58.0-1.0","CKN_113","113","","","","","","null","stimuli/bleep.m4a","null","blue","brown","[""blue"",""brown"",""high nameability""]","right-left","[""brown"",""blue""]","2","high nameability","13","right","audio_feedback","1"
"html-button-response","80","216438","0.0-59.0","CKN_113","113","","","","","","null","<button class=""jspsych-btn""><img src=""stimuli/white_square.png"" style=""width: 200px;height: 200px;""></button>","null","blue","brown","[""blue"",""brown"",""high nameability""]","right-left","[""brown"",""blue""]","2","high nameability","13","right","iti",""
"html-button-response","81","217533","0.0-60.0","CKN_113","113","","","","","","1085","","0","purple","red","[""purple"",""red"",""high nameability""]","left-right","[""purple"",""red"",""high nameability""]","2","high nameability","14","left","trigger",""
"html-button-response","82","221178","0.0-61.0-0.0","CKN_113","113","","","","","","3638","<button class=""jspsych-btn""><img src=""stimuli/purple.png"" style=""width: 200px;height: 200px;""></button>","0","purple","red","[""purple"",""red"",""high nameability""]","left-right","[""purple"",""red"",""high nameability""]","2","high nameability","14","left","response","1"
"html-audio-button-response","83","221383","0.0-61.0-1.0","CKN_113","113","","","","","","null","stimuli/bleep.m4a","null","purple","red","[""purple"",""red"",""high nameability""]","left-right","[""purple"",""red"",""high nameability""]","2","high nameability","14","left","audio_feedback","1"
"html-button-response","84","221895","0.0-62.0","CKN_113","113","","","","","","null","<button class=""jspsych-btn""><img src=""stimuli/white_square.png"" style=""width: 200px;height: 200px;""></button>","null","purple","red","[""purple"",""red"",""high nameability""]","left-right","[""purple"",""red"",""high nameability""]","2","high nameability","14","left","iti",""
"html-button-response","85","222602","0.0-63.0","CKN_113","113","","","","","","693","","0","pink","mustard","[""pink"",""mustard"",""low nameability""]","right-left","[""mustard"",""pink""]","2","low nameability","15","right","trigger",""
"html-button-response","86","223948","0.0-64.0-0.0","CKN_113","113","","","","","","1336","<button class=""jspsych-btn""><img src=""stimuli/pink.png"" style=""width: 200px;height: 200px;""></button>","1","pink","mustard","[""pink"",""mustard"",""low nameability""]","right-left","[""mustard"",""pink""]","2","low nameability","15","right","response","1"
"html-audio-button-response","87","224150","0.0-64.0-1.0","CKN_113","113","","","","","","null","stimuli/bleep.m4a","null","pink","mustard","[""pink"",""mustard"",""low nameability""]","right-left","[""mustard"",""pink""]","2","low nameability","15","right","audio_feedback","1"
"html-button-response","88","224667","0.0-65.0","CKN_113","113","","","","","","null","<button class=""jspsych-btn""><img src=""stimuli/white_square.png"" style=""width: 200px;height: 200px;""></button>","null","pink","mustard","[""pink"",""mustard"",""low nameability""]","right-left","[""mustard"",""pink""]","2","low nameability","15","right","iti",""
"html-button-response","89","225423","0.0-66.0","CKN_113","113","","","","","","745","","0","mustard","pink","[""mustard"",""pink"",""low nameability""]","left-right","[""mustard"",""pink"",""low nameability""]","2","low nameability","16","left","trigger",""
"html-button-response","90","229144","0.0-67.0-0.0","CKN_113","113","","","","","","3714","<button class=""jspsych-btn""><img src=""stimuli/mustard.png"" style=""width: 200px;height: 200px;""></button>","0","mustard","pink","[""mustard"",""pink"",""low nameability""]","left-right","[""mustard"",""pink"",""low nameability""]","2","low nameability","16","left","response","1"
"html-audio-button-response","91","229347","0.0-67.0-1.0","CKN_113","113","","","","","","null","stimuli/bleep.m4a","null","mustard","pink","[""mustard"",""pink"",""low nameability""]","left-right","[""mustard"",""pink"",""low nameability""]","2","low nameability","16","left","audio_feedback","1"
"html-button-response","92","229859","0.0-68.0","CKN_113","113","","","","","","null","<button class=""jspsych-btn""><img src=""stimuli/white_square.png"" style=""width: 200px;height: 200px;""></button>","null","mustard","pink","[""mustard"",""pink"",""low nameability""]","left-right","[""mustard"",""pink"",""low nameability""]","2","low nameability","16","left","iti",""
"html-button-response","93","230690","0.0-69.0","CKN_113","113","","","","","","820","","0","mustard","neonyellow","[""mustard"",""neonyellow"",""low nameability""]","right-left","[""neonyellow"",""mustard""]","2","low nameability","17","right","trigger",""
"html-button-response","94","234718","0.0-70.0-0.0","CKN_113","113","","","","","","4021","<button class=""jspsych-btn""><img src=""stimuli/mustard.png"" style=""width: 200px;height: 200px;""></button>","1","mustard","neonyellow","[""mustard"",""neonyellow"",""low nameability""]","right-left","[""neonyellow"",""mustard""]","2","low nameability","17","right","response","1"
"html-audio-button-response","95","234919","0.0-70.0-1.0","CKN_113","113","","","","","","null","stimuli/bleep.m4a","null","mustard","neonyellow","[""mustard"",""neonyellow"",""low nameability""]","right-left","[""neonyellow"",""mustard""]","2","low nameability","17","right","audio_feedback","1"
"html-button-response","96","235435","0.0-71.0","CKN_113","113","","","","","","null","<button class=""jspsych-btn""><img src=""stimuli/white_square.png"" style=""width: 200px;height: 200px;""></button>","null","mustard","neonyellow","[""mustard"",""neonyellow"",""low nameability""]","right-left","[""neonyellow"",""mustard""]","2","low nameability","17","right","iti",""
"html-button-response","97","236802","0.0-72.0","CKN_113","113","","","","","","1359","","0","neonyellow","darkgreenblue","[""neonyellow"",""darkgreenblue"",""low nameability""]","right-left","[""darkgreenblue"",""neonyellow""]","2","low nameability","18","right","trigger",""
"html-button-response","98","238801","0.0-73.0-0.0","CKN_113","113","","","","","","1990","<button class=""jspsych-btn""><img src=""stimuli/neonyellow.png"" style=""width: 200px;height: 200px;""></button>","1","neonyellow","darkgreenblue","[""neonyellow"",""darkgreenblue"",""low nameability""]","right-left","[""darkgreenblue"",""neonyellow""]","2","low nameability","18","right","response","1"
"html-audio-button-response","99","238998","0.0-73.0-1.0","CKN_113","113","","","","","","null","stimuli/bleep.m4a","null","neonyellow","darkgreenblue","[""neonyellow"",""darkgreenblue"",""low nameability""]","right-left","[""darkgreenblue"",""neonyellow""]","2","low nameability","18","right","audio_feedback","1"
"html-button-response","100","239515","0.0-74.0","CKN_113","113","","","","","","null","<button class=""jspsych-btn""><img src=""stimuli/white_square.png"" style=""width: 200px;height: 200px;""></button>","null","neonyellow","darkgreenblue","[""neonyellow"",""darkgreenblue"",""low nameability""]","right-left","[""darkgreenblue"",""neonyellow""]","2","low nameability","18","right","iti",""
"html-button-response","101","240289","0.0-75.0","CKN_113","113","","","","","","763","","0","brown","orange","[""brown"",""orange"",""high nameability""]","right-left","[""orange"",""brown""]","2","high nameability","19","right","trigger",""
"html-button-response","102","242530","0.0-76.0-0.0","CKN_113","113","","","","","","2232","<button class=""jspsych-btn""><img src=""stimuli/brown.png"" style=""width: 200px;height: 200px;""></button>","1","brown","orange","[""brown"",""orange"",""high nameability""]","right-left","[""orange"",""brown""]","2","high nameability","19","right","response","1"
"html-audio-button-response","103","242737","0.0-76.0-1.0","CKN_113","113","","","","","","null","stimuli/bleep.m4a","null","brown","orange","[""brown"",""orange"",""high nameability""]","right-left","[""orange"",""brown""]","2","high nameability","19","right","audio_feedback","1"
"html-button-response","104","243252","0.0-77.0","CKN_113","113","","","","","","null","<button class=""jspsych-btn""><img src=""stimuli/white_square.png"" style=""width: 200px;height: 200px;""></button>","null","brown","orange","[""brown"",""orange"",""high nameability""]","right-left","[""orange"",""brown""]","2","high nameability","19","right","iti",""
"html-button-response","105","244309","0.0-78.0","CKN_113","113","","","","","","1048","","0","yellow","brown","[""yellow"",""brown"",""high nameability""]","left-right","[""yellow"",""brown"",""high nameability""]","2","high nameability","20","left","trigger",""
"html-button-response","106","246561","0.0-79.0-0.0","CKN_113","113","","","","","","2244","<button class=""jspsych-btn""><img src=""stimuli/yellow.png"" style=""width: 200px;height: 200px;""></button>","0","yellow","brown","[""yellow"",""brown"",""high nameability""]","left-right","[""yellow"",""brown"",""high nameability""]","2","high nameability","20","left","response","1"
"html-audio-button-response","107","246764","0.0-79.0-1.0","CKN_113","113","","","","","","null","stimuli/bleep.m4a","null","yellow","brown","[""yellow"",""brown"",""high nameability""]","left-right","[""yellow"",""brown"",""high nameability""]","2","high nameability","20","left","audio_feedback","1"
"html-button-response","108","247286","0.0-80.0","CKN_113","113","","","","","","null","<button class=""jspsych-btn""><img src=""stimuli/white_square.png"" style=""width: 200px;height: 200px;""></button>","null","yellow","brown","[""yellow"",""brown"",""high nameability""]","left-right","[""yellow"",""brown"",""high nameability""]","2","high nameability","20","left","iti",""
"pavlovia","109","247338","0.0-81.0","CKN_113","113","","","","","","","","","","","","","","","","","","",""
"pavlovia","110","247345","0.0-82.0","CKN_113","113","","","","","","","","","","","","","","","","","","",""
"html-audio-button-response","111","251233","0.0-83.0","CKN_113","113","","","","","","3936","stimuli/tada.m4a","0","","","","","","","","","","",""
"html-button-response","112","252395","0.0-84.0","CKN_113","113","","","","","","1154","","0","","","","","","","","","","",""
"html-button-response","113","253837","0.0-85.0","CKN_113","113","","","","","","1435","","0","purple","blue","[""purple"",""blue"",""high nameability""]","left-right","[""purple"",""blue"",""high nameability""]","3","high nameability","21","left","trigger",""
"html-button-response","114","255171","0.0-86.0-0.0","CKN_113","113","","","","","","1325","<button class=""jspsych-btn""><img src=""stimuli/purple.png"" style=""width: 200px;height: 200px;""></button>","0","purple","blue","[""purple"",""blue"",""high nameability""]","left-right","[""purple"",""blue"",""high nameability""]","3","high nameability","21","left","response","1"
"html-audio-button-response","115","255373","0.0-86.0-1.0","CKN_113","113","","","","","","null","stimuli/bleep.m4a","null","purple","blue","[""purple"",""blue"",""high nameability""]","left-right","[""purple"",""blue"",""high nameability""]","3","high nameability","21","left","audio_feedback","1"
"html-button-response","116","255886","0.0-87.0","CKN_113","113","","","","","","null","<button class=""jspsych-btn""><img src=""stimuli/white_square.png"" style=""width: 200px;height: 200px;""></button>","null","purple","blue","[""purple"",""blue"",""high nameability""]","left-right","[""purple"",""blue"",""high nameability""]","3","high nameability","21","left","iti",""
"html-button-response","117","256660","0.0-88.0","CKN_113","113","","","","","","764","","0","darkgreenblue","mustard","[""darkgreenblue"",""mustard"",""low nameability""]","left-right","[""darkgreenblue"",""mustard"",""low nameability""]","3","low nameability","22","left","trigger",""
"html-button-response","118","258156","0.0-89.0-0.0","CKN_113","113","","","","","","1487","<button class=""jspsych-btn""><img src=""stimuli/darkgreenblue.png"" style=""width: 200px;height: 200px;""></button>","0","darkgreenblue","mustard","[""darkgreenblue"",""mustard"",""low nameability""]","left-right","[""darkgreenblue"",""mustard"",""low nameability""]","3","low nameability","22","left","response","1"
"html-audio-button-response","119","258360","0.0-89.0-1.0","CKN_113","113","","","","","","null","stimuli/bleep.m4a","null","darkgreenblue","mustard","[""darkgreenblue"",""mustard"",""low nameability""]","left-right","[""darkgreenblue"",""mustard"",""low nameability""]","3","low nameability","22","left","audio_feedback","1"
"html-button-response","120","258875","0.0-90.0","CKN_113","113","","","","","","null","<button class=""jspsych-btn""><img src=""stimuli/white_square.png"" style=""width: 200px;height: 200px;""></button>","null","darkgreenblue","mustard","[""darkgreenblue"",""mustard"",""low nameability""]","left-right","[""darkgreenblue"",""mustard"",""low nameability""]","3","low nameability","22","left","iti",""
"html-button-response","121","259777","0.0-91.0","CKN_113","113","","","","","","890","","0","blue","red","[""blue"",""red"",""high nameability""]","left-right","[""blue"",""red"",""high nameability""]","3","high nameability","23","left","trigger",""
"html-button-response","122","262312","0.0-92.0-0.0","CKN_113","113","","","","","","2527","<button class=""jspsych-btn""><img src=""stimuli/blue.png"" style=""width: 200px;height: 200px;""></button>","0","blue","red","[""blue"",""red"",""high nameability""]","left-right","[""blue"",""red"",""high nameability""]","3","high nameability","23","left","response","1"
"html-audio-button-response","123","262513","0.0-92.0-1.0","CKN_113","113","","","","","","null","stimuli/bleep.m4a","null","blue","red","[""blue"",""red"",""high nameability""]","left-right","[""blue"",""red"",""high nameability""]","3","high nameability","23","left","audio_feedback","1"
"html-button-response","124","263026","0.0-93.0","CKN_113","113","","","","","","null","<button class=""jspsych-btn""><img src=""stimuli/white_square.png"" style=""width: 200px;height: 200px;""></button>","null","blue","red","[""blue"",""red"",""high nameability""]","left-right","[""blue"",""red"",""high nameability""]","3","high nameability","23","left","iti",""
"html-button-response","125","264049","0.0-94.0","CKN_113","113","","","","","","1008","","0","red","purple","[""red"",""purple"",""high nameability""]","right-left","[""purple"",""red""]","3","high nameability","24","right","trigger",""
"html-button-response","126","265790","0.0-95.0-0.0","CKN_113","113","","","","","","1732","<button class=""jspsych-btn""><img src=""stimuli/red.png"" style=""width: 200px;height: 200px;""></button>","1","red","purple","[""red"",""purple"",""high nameability""]","right-left","[""purple"",""red""]","3","high nameability","24","right","response","1"
"html-audio-button-response","127","265993","0.0-95.0-1.0","CKN_113","113","","","","","","null","stimuli/bleep.m4a","null","red","purple","[""red"",""purple"",""high nameability""]","right-left","[""purple"",""red""]","3","high nameability","24","right","audio_feedback","1"
"html-button-response","128","266509","0.0-96.0","CKN_113","113","","","","","","null","<button class=""jspsych-btn""><img src=""stimuli/white_square.png"" style=""width: 200px;height: 200px;""></button>","null","red","purple","[""red"",""purple"",""high nameability""]","right-left","[""purple"",""red""]","3","high nameability","24","right","iti",""
"html-button-response","129","267160","0.0-97.0","CKN_113","113","","","","","","639","","0","pink","turquoise","[""pink"",""turquoise"",""low nameability""]","left-right","[""pink"",""turquoise"",""low nameability""]","3","low nameability","25","left","trigger",""
"html-button-response","130","268907","0.0-98.0-0.0","CKN_113","113","","","","","","1741","<button class=""jspsych-btn""><img src=""stimuli/pink.png"" style=""width: 200px;height: 200px;""></button>","0","pink","turquoise","[""pink"",""turquoise"",""low nameability""]","left-right","[""pink"",""turquoise"",""low nameability""]","3","low nameability","25","left","response","1"
"html-audio-button-response","131","269109","0.0-98.0-1.0","CKN_113","113","","","","","","null","stimuli/bleep.m4a","null","pink","turquoise","[""pink"",""turquoise"",""low nameability""]","left-right","[""pink"",""turquoise"",""low nameability""]","3","low nameability","25","left","audio_feedback","1"
"html-button-response","132","269624","0.0-99.0","CKN_113","113","","","","","","null","<button class=""jspsych-btn""><img src=""stimuli/white_square.png"" style=""width: 200px;height: 200px;""></button>","null","pink","turquoise","[""pink"",""turquoise"",""low nameability""]","left-right","[""pink"",""turquoise"",""low nameability""]","3","low nameability","25","left","iti",""
"html-button-response","133","270621","0.0-100.0","CKN_113","113","","","","","","980","","0","mustard","lightred","[""mustard"",""lightred"",""low nameability""]","left-right","[""mustard"",""lightred"",""low nameability""]","3","low nameability","26","left","trigger",""
"html-button-response","134","271988","0.0-101.0-0.0","CKN_113","113","","","","","","1358","<button class=""jspsych-btn""><img src=""stimuli/mustard.png"" style=""width: 200px;height: 200px;""></button>","0","mustard","lightred","[""mustard"",""lightred"",""low nameability""]","left-right","[""mustard"",""lightred"",""low nameability""]","3","low nameability","26","left","response","1"
"html-audio-button-response","135","272191","0.0-101.0-1.0","CKN_113","113","","","","","","null","stimuli/bleep.m4a","null","mustard","lightred","[""mustard"",""lightred"",""low nameability""]","left-right","[""mustard"",""lightred"",""low nameability""]","3","low nameability","26","left","audio_feedback","1"
"html-button-response","136","272709","0.0-102.0","CKN_113","113","","","","","","null","<button class=""jspsych-btn""><img src=""stimuli/white_square.png"" style=""width: 200px;height: 200px;""></button>","null","mustard","lightred","[""mustard"",""lightred"",""low nameability""]","left-right","[""mustard"",""lightred"",""low nameability""]","3","low nameability","26","left","iti",""
"html-button-response","137","273799","0.0-103.0","CKN_113","113","","","","","","1074","","0","lightred","darkgreenblue","[""lightred"",""darkgreenblue"",""low nameability""]","left-right","[""lightred"",""darkgreenblue"",""low nameability""]","3","low nameability","27","left","trigger",""
"html-button-response","138","274892","0.0-104.0-0.0","CKN_113","113","","","","","","1084","<button class=""jspsych-btn""><img src=""stimuli/lightred.png"" style=""width: 200px;height: 200px;""></button>","0","lightred","darkgreenblue","[""lightred"",""darkgreenblue"",""low nameability""]","left-right","[""lightred"",""darkgreenblue"",""low nameability""]","3","low nameability","27","left","response","1"
"html-audio-button-response","139","275093","0.0-104.0-1.0","CKN_113","113","","","","","","null","stimuli/bleep.m4a","null","lightred","darkgreenblue","[""lightred"",""darkgreenblue"",""low nameability""]","left-right","[""lightred"",""darkgreenblue"",""low nameability""]","3","low nameability","27","left","audio_feedback","1"
"html-button-response","140","275607","0.0-105.0","CKN_113","113","","","","","","null","<button class=""jspsych-btn""><img src=""stimuli/white_square.png"" style=""width: 200px;height: 200px;""></button>","null","lightred","darkgreenblue","[""lightred"",""darkgreenblue"",""low nameability""]","left-right","[""lightred"",""darkgreenblue"",""low nameability""]","3","low nameability","27","left","iti",""
"html-button-response","141","276661","0.0-106.0","CKN_113","113","","","","","","1040","","0","mustard","turquoise","[""mustard"",""turquoise"",""low nameability""]","right-left","[""turquoise"",""mustard""]","3","low nameability","28","right","trigger",""
"html-button-response","142","278192","0.0-107.0-0.0","CKN_113","113","","","","","","1524","<button class=""jspsych-btn""><img src=""stimuli/mustard.png"" style=""width: 200px;height: 200px;""></button>","1","mustard","turquoise","[""mustard"",""turquoise"",""low nameability""]","right-left","[""turquoise"",""mustard""]","3","low nameability","28","right","response","1"
"html-audio-button-response","143","278395","0.0-107.0-1.0","CKN_113","113","","","","","","null","stimuli/bleep.m4a","null","mustard","turquoise","[""mustard"",""turquoise"",""low nameability""]","right-left","[""turquoise"",""mustard""]","3","low nameability","28","right","audio_feedback","1"
"html-button-response","144","278907","0.0-108.0","CKN_113","113","","","","","","null","<button class=""jspsych-btn""><img src=""stimuli/white_square.png"" style=""width: 200px;height: 200px;""></button>","null","mustard","turquoise","[""mustard"",""turquoise"",""low nameability""]","right-left","[""turquoise"",""mustard""]","3","low nameability","28","right","iti",""
"html-button-response","145","279947","0.0-109.0","CKN_113","113","","","","","","1025","","0","brown","purple","[""brown"",""purple"",""high nameability""]","right-left","[""purple"",""brown""]","3","high nameability","29","right","trigger",""
"html-button-response","146","280821","0.0-110.0-0.0","CKN_113","113","","","","","","867","<button class=""jspsych-btn""><img src=""stimuli/brown.png"" style=""width: 200px;height: 200px;""></button>","1","brown","purple","[""brown"",""purple"",""high nameability""]","right-left","[""purple"",""brown""]","3","high nameability","29","right","response","1"
"html-audio-button-response","147","281023","0.0-110.0-1.0","CKN_113","113","","","","","","null","stimuli/bleep.m4a","null","brown","purple","[""brown"",""purple"",""high nameability""]","right-left","[""purple"",""brown""]","3","high nameability","29","right","audio_feedback","1"
"html-button-response","148","281539","0.0-111.0","CKN_113","113","","","","","","null","<button class=""jspsych-btn""><img src=""stimuli/white_square.png"" style=""width: 200px;height: 200px;""></button>","null","brown","purple","[""brown"",""purple"",""high nameability""]","right-left","[""purple"",""brown""]","3","high nameability","29","right","iti",""
"html-button-response","149","282630","0.0-112.0","CKN_113","113","","","","","","1081","","0","brown","yellow","[""brown"",""yellow"",""high nameability""]","right-left","[""yellow"",""brown""]","3","high nameability","30","right","trigger",""
"html-button-response","150","283381","0.0-113.0-0.0","CKN_113","113","","","","","","743","<button class=""jspsych-btn""><img src=""stimuli/brown.png"" style=""width: 200px;height: 200px;""></button>","1","brown","yellow","[""brown"",""yellow"",""high nameability""]","right-left","[""yellow"",""brown""]","3","high nameability","30","right","response","1"
"html-audio-button-response","151","283584","0.0-113.0-1.0","CKN_113","113","","","","","","null","stimuli/bleep.m4a","null","brown","yellow","[""brown"",""yellow"",""high nameability""]","right-left","[""yellow"",""brown""]","3","high nameability","30","right","audio_feedback","1"
"html-button-response","152","284097","0.0-114.0","CKN_113","113","","","","","","null","<button class=""jspsych-btn""><img src=""stimuli/white_square.png"" style=""width: 200px;height: 200px;""></button>","null","brown","yellow","[""brown"",""yellow"",""high nameability""]","right-left","[""yellow"",""brown""]","3","high nameability","30","right","iti",""
"pavlovia","153","284161","0.0-115.0","CKN_113","113","","","","","","","","","","","","","","","","","","",""
"pavlovia","154","284171","0.0-116.0","CKN_113","113","","","","","","","","","","","","","","","","","","",""
"html-audio-button-response","155","286883","0.0-117.0","CKN_113","113","","","","","","2763","stimuli/tada.m4a","0","","","","","","","","","","",""
"html-button-response","156","287814","0.0-118.0","CKN_113","113","","","","","","924","","0","","","","","","","","","","",""
"html-button-response","157","289113","0.0-119.0","CKN_113","113","","","","","","1292","","0","turquoise","mustard","[""turquoise"",""mustard"",""low nameability""]","right-left","[""mustard"",""turquoise""]","4","low nameability","31","right","trigger",""
"html-button-response","158","290041","0.0-120.0-0.0","CKN_113","113","","","","","","921","<button class=""jspsych-btn""><img src=""stimuli/turquoise.png"" style=""width: 200px;height: 200px;""></button>","1","turquoise","mustard","[""turquoise"",""mustard"",""low nameability""]","right-left","[""mustard"",""turquoise""]","4","low nameability","31","right","response","1"
"html-audio-button-response","159","290241","0.0-120.0-1.0","CKN_113","113","","","","","","null","stimuli/bleep.m4a","null","turquoise","mustard","[""turquoise"",""mustard"",""low nameability""]","right-left","[""mustard"",""turquoise""]","4","low nameability","31","right","audio_feedback","1"
"html-button-response","160","290754","0.0-121.0","CKN_113","113","","","","","","null","<button class=""jspsych-btn""><img src=""stimuli/white_square.png"" style=""width: 200px;height: 200px;""></button>","null","turquoise","mustard","[""turquoise"",""mustard"",""low nameability""]","right-left","[""mustard"",""turquoise""]","4","low nameability","31","right","iti",""
"html-button-response","161","292023","0.0-122.0","CKN_113","113","","","","","","1255","","0","red","brown","[""red"",""brown"",""high nameability""]","right-left","[""brown"",""red""]","4","high nameability","32","right","trigger",""
"html-button-response","162","293189","0.0-123.0-0.0","CKN_113","113","","","","","","1158","<button class=""jspsych-btn""><img src=""stimuli/red.png"" style=""width: 200px;height: 200px;""></button>","1","red","brown","[""red"",""brown"",""high nameability""]","right-left","[""brown"",""red""]","4","high nameability","32","right","response","1"
"html-audio-button-response","163","293398","0.0-123.0-1.0","CKN_113","113","","","","","","null","stimuli/bleep.m4a","null","red","brown","[""red"",""brown"",""high nameability""]","right-left","[""brown"",""red""]","4","high nameability","32","right","audio_feedback","1"
"html-button-response","164","293908","0.0-124.0","CKN_113","113","","","","","","null","<button class=""jspsych-btn""><img src=""stimuli/white_square.png"" style=""width: 200px;height: 200px;""></button>","null","red","brown","[""red"",""brown"",""high nameability""]","right-left","[""brown"",""red""]","4","high nameability","32","right","iti",""
"html-button-response","165","295073","0.0-125.0","CKN_113","113","","","","","","1155","","0","blue","purple","[""blue"",""purple"",""high nameability""]","left-right","[""blue"",""purple"",""high nameability""]","4","high nameability","33","left","trigger",""
"html-button-response","166","296531","0.0-126.0-0.0","CKN_113","113","","","","","","1452","<button class=""jspsych-btn""><img src=""stimuli/blue.png"" style=""width: 200px;height: 200px;""></button>","0","blue","purple","[""blue"",""purple"",""high nameability""]","left-right","[""blue"",""purple"",""high nameability""]","4","high nameability","33","left","response","1"
"html-audio-button-response","167","296734","0.0-126.0-1.0","CKN_113","113","","","","","","null","stimuli/bleep.m4a","null","blue","purple","[""blue"",""purple"",""high nameability""]","left-right","[""blue"",""purple"",""high nameability""]","4","high nameability","33","left","audio_feedback","1"
"html-button-response","168","297246","0.0-127.0","CKN_113","113","","","","","","null","<button class=""jspsych-btn""><img src=""stimuli/white_square.png"" style=""width: 200px;height: 200px;""></button>","null","blue","purple","[""blue"",""purple"",""high nameability""]","left-right","[""blue"",""purple"",""high nameability""]","4","high nameability","33","left","iti",""
"html-button-response","169","300108","0.0-128.0","CKN_113","113","","","","","","2848","","0","darkgreenblue","pink","[""darkgreenblue"",""pink"",""low nameability""]","right-left","[""pink"",""darkgreenblue""]","4","low nameability","34","right","trigger",""
"html-button-response","170","301260","0.0-129.0-0.0","CKN_113","113","","","","","","1145","<button class=""jspsych-btn""><img src=""stimuli/darkgreenblue.png"" style=""width: 200px;height: 200px;""></button>","1","darkgreenblue","pink","[""darkgreenblue"",""pink"",""low nameability""]","right-left","[""pink"",""darkgreenblue""]","4","low nameability","34","right","response","1"
"html-audio-button-response","171","301463","0.0-129.0-1.0","CKN_113","113","","","","","","null","stimuli/bleep.m4a","null","darkgreenblue","pink","[""darkgreenblue"",""pink"",""low nameability""]","right-left","[""pink"",""darkgreenblue""]","4","low nameability","34","right","audio_feedback","1"
"html-button-response","172","301973","0.0-130.0","CKN_113","113","","","","","","null","<button class=""jspsych-btn""><img src=""stimuli/white_square.png"" style=""width: 200px;height: 200px;""></button>","null","darkgreenblue","pink","[""darkgreenblue"",""pink"",""low nameability""]","right-left","[""pink"",""darkgreenblue""]","4","low nameability","34","right","iti",""
"html-button-response","173","303182","0.0-131.0","CKN_113","113","","","","","","1202","","0","turquoise","lightred","[""turquoise"",""lightred"",""low nameability""]","left-right","[""turquoise"",""lightred"",""low nameability""]","4","low nameability","35","left","trigger",""
"html-button-response","174","304423","0.0-132.0-0.0","CKN_113","113","","","","","","1234","<button class=""jspsych-btn""><img src=""stimuli/turquoise.png"" style=""width: 200px;height: 200px;""></button>","0","turquoise","lightred","[""turquoise"",""lightred"",""low nameability""]","left-right","[""turquoise"",""lightred"",""low nameability""]","4","low nameability","35","left","response","1"
"html-audio-button-response","175","304627","0.0-132.0-1.0","CKN_113","113","","","","","","null","stimuli/bleep.m4a","null","turquoise","lightred","[""turquoise"",""lightred"",""low nameability""]","left-right","[""turquoise"",""lightred"",""low nameability""]","4","low nameability","35","left","audio_feedback","1"
"html-button-response","176","305142","0.0-133.0","CKN_113","113","","","","","","null","<button class=""jspsych-btn""><img src=""stimuli/white_square.png"" style=""width: 200px;height: 200px;""></button>","null","turquoise","lightred","[""turquoise"",""lightred"",""low nameability""]","left-right","[""turquoise"",""lightred"",""low nameability""]","4","low nameability","35","left","iti",""
"html-button-response","177","306105","0.0-134.0","CKN_113","113","","","","","","950","","0","purple","yellow","[""purple"",""yellow"",""high nameability""]","left-right","[""purple"",""yellow"",""high nameability""]","4","high nameability","36","left","trigger",""
"html-button-response","178","307163","0.0-135.0-0.0","CKN_113","113","","","","","","1050","<button class=""jspsych-btn""><img src=""stimuli/purple.png"" style=""width: 200px;height: 200px;""></button>","0","purple","yellow","[""purple"",""yellow"",""high nameability""]","left-right","[""purple"",""yellow"",""high nameability""]","4","high nameability","36","left","response","1"
"html-audio-button-response","179","307368","0.0-135.0-1.0","CKN_113","113","","","","","","null","stimuli/bleep.m4a","null","purple","yellow","[""purple"",""yellow"",""high nameability""]","left-right","[""purple"",""yellow"",""high nameability""]","4","high nameability","36","left","audio_feedback","1"
"html-button-response","180","307881","0.0-136.0","CKN_113","113","","","","","","null","<button class=""jspsych-btn""><img src=""stimuli/white_square.png"" style=""width: 200px;height: 200px;""></button>","null","purple","yellow","[""purple"",""yellow"",""high nameability""]","left-right","[""purple"",""yellow"",""high nameability""]","4","high nameability","36","left","iti",""
"html-button-response","181","308885","0.0-137.0","CKN_113","113","","","","","","998","","0","mustard","darkgreenblue","[""mustard"",""darkgreenblue"",""low nameability""]","left-right","[""mustard"",""darkgreenblue"",""low nameability""]","4","low nameability","37","left","trigger",""
"html-button-response","182","309661","0.0-138.0-0.0","CKN_113","113","","","","","","770","<button class=""jspsych-btn""><img src=""stimuli/mustard.png"" style=""width: 200px;height: 200px;""></button>","0","mustard","darkgreenblue","[""mustard"",""darkgreenblue"",""low nameability""]","left-right","[""mustard"",""darkgreenblue"",""low nameability""]","4","low nameability","37","left","response","1"
"html-audio-button-response","183","309861","0.0-138.0-1.0","CKN_113","113","","","","","","null","stimuli/bleep.m4a","null","mustard","darkgreenblue","[""mustard"",""darkgreenblue"",""low nameability""]","left-right","[""mustard"",""darkgreenblue"",""low nameability""]","4","low nameability","37","left","audio_feedback","1"
"html-button-response","184","310378","0.0-139.0","CKN_113","113","","","","","","null","<button class=""jspsych-btn""><img src=""stimuli/white_square.png"" style=""width: 200px;height: 200px;""></button>","null","mustard","darkgreenblue","[""mustard"",""darkgreenblue"",""low nameability""]","left-right","[""mustard"",""darkgreenblue"",""low nameability""]","4","low nameability","37","left","iti",""
"html-button-response","185","311301","0.0-140.0","CKN_113","113","","","","","","910","","0","turquoise","darkgreenblue","[""turquoise"",""darkgreenblue"",""low nameability""]","left-right","[""turquoise"",""darkgreenblue"",""low nameability""]","4","low nameability","38","left","trigger",""
"html-button-response","186","311892","0.0-141.0-0.0","CKN_113","113","","","","","","584","<button class=""jspsych-btn""><img src=""stimuli/turquoise.png"" style=""width: 200px;height: 200px;""></button>","0","turquoise","darkgreenblue","[""turquoise"",""darkgreenblue"",""low nameability""]","left-right","[""turquoise"",""darkgreenblue"",""low nameability""]","4","low nameability","38","left","response","1"
"html-audio-button-response","187","312100","0.0-141.0-1.0","CKN_113","113","","","","","","null","stimuli/bleep.m4a","null","turquoise","darkgreenblue","[""turquoise"",""darkgreenblue"",""low nameability""]","left-right","[""turquoise"",""darkgreenblue"",""low nameability""]","4","low nameability","38","left","audio_feedback","1"
"html-button-response","188","312613","0.0-142.0","CKN_113","113","","","","","","null","<button class=""jspsych-btn""><img src=""stimuli/white_square.png"" style=""width: 200px;height: 200px;""></button>","null","turquoise","darkgreenblue","[""turquoise"",""darkgreenblue"",""low nameability""]","left-right","[""turquoise"",""darkgreenblue"",""low nameability""]","4","low nameability","38","left","iti",""
"html-button-response","189","313542","0.0-143.0","CKN_113","113","","","","","","913","","0","blue","orange","[""blue"",""orange"",""high nameability""]","left-right","[""blue"",""orange"",""high nameability""]","4","high nameability","39","left","trigger",""
"html-button-response","190","314218","0.0-144.0-0.0","CKN_113","113","","","","","","665","<button class=""jspsych-btn""><img src=""stimuli/blue.png"" style=""width: 200px;height: 200px;""></button>","0","blue","orange","[""blue"",""orange"",""high nameability""]","left-right","[""blue"",""orange"",""high nameability""]","4","high nameability","39","left","response","1"
"html-audio-button-response","191","314421","0.0-144.0-1.0","CKN_113","113","","","","","","null","stimuli/bleep.m4a","null","blue","orange","[""blue"",""orange"",""high nameability""]","left-right","[""blue"",""orange"",""high nameability""]","4","high nameability","39","left","audio_feedback","1"
"html-button-response","192","314936","0.0-145.0","CKN_113","113","","","","","","null","<button class=""jspsych-btn""><img src=""stimuli/white_square.png"" style=""width: 200px;height: 200px;""></button>","null","blue","orange","[""blue"",""orange"",""high nameability""]","left-right","[""blue"",""orange"",""high nameability""]","4","high nameability","39","left","iti",""
"html-button-response","193","315796","0.0-146.0","CKN_113","113","","","","","","850","","0","blue","yellow","[""blue"",""yellow"",""high nameability""]","left-right","[""blue"",""yellow"",""high nameability""]","4","high nameability","40","left","trigger",""
"html-button-response","194","316298","0.0-147.0-0.0","CKN_113","113","","","","","","495","<button class=""jspsych-btn""><img src=""stimuli/blue.png"" style=""width: 200px;height: 200px;""></button>","0","blue","yellow","[""blue"",""yellow"",""high nameability""]","left-right","[""blue"",""yellow"",""high nameability""]","4","high nameability","40","left","response","1"
"html-audio-button-response","195","316502","0.0-147.0-1.0","CKN_113","113","","","","","","null","stimuli/bleep.m4a","null","blue","yellow","[""blue"",""yellow"",""high nameability""]","left-right","[""blue"",""yellow"",""high nameability""]","4","high nameability","40","left","audio_feedback","1"
"html-button-response","196","317013","0.0-148.0","CKN_113","113","","","","","","null","<button class=""jspsych-btn""><img src=""stimuli/white_square.png"" style=""width: 200px;height: 200px;""></button>","null","blue","yellow","[""blue"",""yellow"",""high nameability""]","left-right","[""blue"",""yellow"",""high nameability""]","4","high nameability","40","left","iti",""
"pavlovia","197","317076","0.0-149.0","CKN_113","113","","","","","","","","","","","","","","","","","","",""
"pavlovia","198","317082","0.0-150.0","CKN_113","113","","","","","","","","","","","","","","","","","","",""
"html-audio-button-response","199","319172","0.0-151.0","CKN_113","113","","","","","","2144","stimuli/tada.m4a","0","","","","","","","","","","",""
"html-button-response","200","319940","0.0-152.0","CKN_113","113","","","","","","762","","0","","","","","","","","","","",""
"html-button-response","201","321907","0.0-153.0","CKN_113","113","","","","","","1959","","0","pink","neonyellow","[""pink"",""neonyellow"",""low nameability""]","right-left","[""neonyellow"",""pink""]","5","low nameability","41","right","trigger",""
"html-button-response","202","323285","0.0-154.0-0.0","CKN_113","113","","","","","","1371","<button class=""jspsych-btn""><img src=""stimuli/pink.png"" style=""width: 200px;height: 200px;""></button>","1","pink","neonyellow","[""pink"",""neonyellow"",""low nameability""]","right-left","[""neonyellow"",""pink""]","5","low nameability","41","right","response","1"
"html-audio-button-response","203","323492","0.0-154.0-1.0","CKN_113","113","","","","","","null","stimuli/bleep.m4a","null","pink","neonyellow","[""pink"",""neonyellow"",""low nameability""]","right-left","[""neonyellow"",""pink""]","5","low nameability","41","right","audio_feedback","1"
"html-button-response","204","324003","0.0-155.0","CKN_113","113","","","","","","null","<button class=""jspsych-btn""><img src=""stimuli/white_square.png"" style=""width: 200px;height: 200px;""></button>","null","pink","neonyellow","[""pink"",""neonyellow"",""low nameability""]","right-left","[""neonyellow"",""pink""]","5","low nameability","41","right","iti",""
"html-button-response","205","324744","0.0-156.0","CKN_113","113","","","","","","725","","0","orange","red","[""orange"",""red"",""high nameability""]","left-right","[""orange"",""red"",""high nameability""]","5","high nameability","42","left","trigger",""
"html-button-response","206","326325","0.0-157.0-0.0","CKN_113","113","","","","","","1574","<button class=""jspsych-btn""><img src=""stimuli/orange.png"" style=""width: 200px;height: 200px;""></button>","0","orange","red","[""orange"",""red"",""high nameability""]","left-right","[""orange"",""red"",""high nameability""]","5","high nameability","42","left","response","1"
"html-audio-button-response","207","326521","0.0-157.0-1.0","CKN_113","113","","","","","","null","stimuli/bleep.m4a","null","orange","red","[""orange"",""red"",""high nameability""]","left-right","[""orange"",""red"",""high nameability""]","5","high nameability","42","left","audio_feedback","1"
"html-button-response","208","327037","0.0-158.0","CKN_113","113","","","","","","null","<button class=""jspsych-btn""><img src=""stimuli/white_square.png"" style=""width: 200px;height: 200px;""></button>","null","orange","red","[""orange"",""red"",""high nameability""]","left-right","[""orange"",""red"",""high nameability""]","5","high nameability","42","left","iti",""
"html-button-response","209","327863","0.0-159.0","CKN_113","113","","","","","","813","","0","pink","lightred","[""pink"",""lightred"",""low nameability""]","right-left","[""lightred"",""pink""]","5","low nameability","43","right","trigger",""
"html-button-response","210","329973","0.0-160.0-0.0","CKN_113","113","","","","","","2104","<button class=""jspsych-btn""><img src=""stimuli/pink.png"" style=""width: 200px;height: 200px;""></button>","1","pink","lightred","[""pink"",""lightred"",""low nameability""]","right-left","[""lightred"",""pink""]","5","low nameability","43","right","response","1"
"html-audio-button-response","211","330173","0.0-160.0-1.0","CKN_113","113","","","","","","null","stimuli/bleep.m4a","null","pink","lightred","[""pink"",""lightred"",""low nameability""]","right-left","[""lightred"",""pink""]","5","low nameability","43","right","audio_feedback","1"
"html-button-response","212","330689","0.0-161.0","CKN_113","113","","","","","","null","<button class=""jspsych-btn""><img src=""stimuli/white_square.png"" style=""width: 200px;height: 200px;""></button>","null","pink","lightred","[""pink"",""lightred"",""low nameability""]","right-left","[""lightred"",""pink""]","5","low nameability","43","right","iti",""
"html-button-response","213","331749","0.0-162.0","CKN_113","113","","","","","","1048","","0","darkgreenblue","turquoise","[""darkgreenblue"",""turquoise"",""low nameability""]","right-left","[""turquoise"",""darkgreenblue""]","5","low nameability","44","right","trigger",""
"html-button-response","214","332866","0.0-163.0-0.0","CKN_113","113","","","","","","1110","<button class=""jspsych-btn""><img src=""stimuli/darkgreenblue.png"" style=""width: 200px;height: 200px;""></button>","1","darkgreenblue","turquoise","[""darkgreenblue"",""turquoise"",""low nameability""]","right-left","[""turquoise"",""darkgreenblue""]","5","low nameability","44","right","response","1"
"html-audio-button-response","215","333066","0.0-163.0-1.0","CKN_113","113","","","","","","null","stimuli/bleep.m4a","null","darkgreenblue","turquoise","[""darkgreenblue"",""turquoise"",""low nameability""]","right-left","[""turquoise"",""darkgreenblue""]","5","low nameability","44","right","audio_feedback","1"
"html-button-response","216","333581","0.0-164.0","CKN_113","113","","","","","","null","<button class=""jspsych-btn""><img src=""stimuli/white_square.png"" style=""width: 200px;height: 200px;""></button>","null","darkgreenblue","turquoise","[""darkgreenblue"",""turquoise"",""low nameability""]","right-left","[""turquoise"",""darkgreenblue""]","5","low nameability","44","right","iti",""
"html-button-response","217","334366","0.0-165.0","CKN_113","113","","","","","","772","","0","yellow","purple","[""yellow"",""purple"",""high nameability""]","left-right","[""yellow"",""purple"",""high nameability""]","5","high nameability","45","left","trigger",""
"html-button-response","218","335741","0.0-166.0-0.0","CKN_113","113","","","","","","1367","<button class=""jspsych-btn""><img src=""stimuli/yellow.png"" style=""width: 200px;height: 200px;""></button>","0","yellow","purple","[""yellow"",""purple"",""high nameability""]","left-right","[""yellow"",""purple"",""high nameability""]","5","high nameability","45","left","response","1"
"html-audio-button-response","219","335943","0.0-166.0-1.0","CKN_113","113","","","","","","null","stimuli/bleep.m4a","null","yellow","purple","[""yellow"",""purple"",""high nameability""]","left-right","[""yellow"",""purple"",""high nameability""]","5","high nameability","45","left","audio_feedback","1"
"html-button-response","220","336455","0.0-167.0","CKN_113","113","","","","","","null","<button class=""jspsych-btn""><img src=""stimuli/white_square.png"" style=""width: 200px;height: 200px;""></button>","null","yellow","purple","[""yellow"",""purple"",""high nameability""]","left-right","[""yellow"",""purple"",""high nameability""]","5","high nameability","45","left","iti",""
"html-button-response","221","337302","0.0-168.0","CKN_113","113","","","","","","836","","0","neonyellow","pink","[""neonyellow"",""pink"",""low nameability""]","left-right","[""neonyellow"",""pink"",""low nameability""]","5","low nameability","46","left","trigger",""
"html-button-response","222","338393","0.0-169.0-0.0","CKN_113","113","","","","","","1084","<button class=""jspsych-btn""><img src=""stimuli/neonyellow.png"" style=""width: 200px;height: 200px;""></button>","0","neonyellow","pink","[""neonyellow"",""pink"",""low nameability""]","left-right","[""neonyellow"",""pink"",""low nameability""]","5","low nameability","46","left","response","1"
"html-audio-button-response","223","338593","0.0-169.0-1.0","CKN_113","113","","","","","","null","stimuli/bleep.m4a","null","neonyellow","pink","[""neonyellow"",""pink"",""low nameability""]","left-right","[""neonyellow"",""pink"",""low nameability""]","5","low nameability","46","left","audio_feedback","1"
"html-button-response","224","339107","0.0-170.0","CKN_113","113","","","","","","null","<button class=""jspsych-btn""><img src=""stimuli/white_square.png"" style=""width: 200px;height: 200px;""></button>","null","neonyellow","pink","[""neonyellow"",""pink"",""low nameability""]","left-right","[""neonyellow"",""pink"",""low nameability""]","5","low nameability","46","left","iti",""
"html-button-response","225","340601","0.0-171.0","CKN_113","113","","","","","","1476","","0","darkgreenblue","lightred","[""darkgreenblue"",""lightred"",""low nameability""]","left-right","[""darkgreenblue"",""lightred"",""low nameability""]","5","low nameability","47","left","trigger",""
"html-button-response","226","341357","0.0-172.0-0.0","CKN_113","113","","","","","","746","<button class=""jspsych-btn""><img src=""stimuli/darkgreenblue.png"" style=""width: 200px;height: 200px;""></button>","0","darkgreenblue","lightred","[""darkgreenblue"",""lightred"",""low nameability""]","left-right","[""darkgreenblue"",""lightred"",""low nameability""]","5","low nameability","47","left","response","1"
"html-audio-button-response","227","341557","0.0-172.0-1.0","CKN_113","113","","","","","","null","stimuli/bleep.m4a","null","darkgreenblue","lightred","[""darkgreenblue"",""lightred"",""low nameability""]","left-right","[""darkgreenblue"",""lightred"",""low nameability""]","5","low nameability","47","left","audio_feedback","1"
"html-button-response","228","342071","0.0-173.0","CKN_113","113","","","","","","null","<button class=""jspsych-btn""><img src=""stimuli/white_square.png"" style=""width: 200px;height: 200px;""></button>","null","darkgreenblue","lightred","[""darkgreenblue"",""lightred"",""low nameability""]","left-right","[""darkgreenblue"",""lightred"",""low nameability""]","5","low nameability","47","left","iti",""
"html-button-response","229","343097","0.0-174.0","CKN_113","113","","","","","","1014","","0","lightred","turquoise","[""lightred"",""turquoise"",""low nameability""]","right-left","[""turquoise"",""lightred""]","5","low nameability","48","right","trigger",""
"html-button-response","230","343790","0.0-175.0-0.0","CKN_113","113","","","","","","685","<button class=""jspsych-btn""><img src=""stimuli/lightred.png"" style=""width: 200px;height: 200px;""></button>","0","lightred","turquoise","[""lightred"",""turquoise"",""low nameability""]","right-left","[""turquoise"",""lightred""]","5","low nameability","48","right","response","0"
"html-audio-button-response","231","344420","0.0-175.0-1.0","CKN_113","113","","","","","","null","stimuli/boing.m4a","null","lightred","turquoise","[""lightred"",""turquoise"",""low nameability""]","right-left","[""turquoise"",""lightred""]","5","low nameability","48","right","audio_feedback","0"
"html-button-response","232","350344","0.0-175.1-0.1","CKN_113","113","","","","","","5899","<button class=""jspsych-btn""><img src=""stimuli/lightred.png"" style=""width: 200px;height: 200px;""></button>","1","lightred","turquoise","[""lightred"",""turquoise"",""low nameability""]","right-left","[""turquoise"",""lightred""]","5","low nameability","48","right","response","1"
"html-audio-button-response","233","350549","0.0-175.1-1.1","CKN_113","113","","","","","","null","stimuli/bleep.m4a","null","lightred","turquoise","[""lightred"",""turquoise"",""low nameability""]","right-left","[""turquoise"",""lightred""]","5","low nameability","48","right","audio_feedback","1"
"html-button-response","234","351073","0.0-176.0","CKN_113","113","","","","","","null","<button class=""jspsych-btn""><img src=""stimuli/white_square.png"" style=""width: 200px;height: 200px;""></button>","null","lightred","turquoise","[""lightred"",""turquoise"",""low nameability""]","right-left","[""turquoise"",""lightred""]","5","low nameability","48","right","iti",""
"html-button-response","235","352171","0.0-177.0","CKN_113","113","","","","","","1090","","0","yellow","orange","[""yellow"",""orange"",""high nameability""]","left-right","[""yellow"",""orange"",""high nameability""]","5","high nameability","49","left","trigger",""
"html-button-response","236","353687","0.0-178.0-0.0","CKN_113","113","","","","","","1508","<button class=""jspsych-btn""><img src=""stimuli/yellow.png"" style=""width: 200px;height: 200px;""></button>","0","yellow","orange","[""yellow"",""orange"",""high nameability""]","left-right","[""yellow"",""orange"",""high nameability""]","5","high nameability","49","left","response","1"
"html-audio-button-response","237","353893","0.0-178.0-1.0","CKN_113","113","","","","","","null","stimuli/bleep.m4a","null","yellow","orange","[""yellow"",""orange"",""high nameability""]","left-right","[""yellow"",""orange"",""high nameability""]","5","high nameability","49","left","audio_feedback","1"
"html-button-response","238","354406","0.0-179.0","CKN_113","113","","","","","","null","<button class=""jspsych-btn""><img src=""stimuli/white_square.png"" style=""width: 200px;height: 200px;""></button>","null","yellow","orange","[""yellow"",""orange"",""high nameability""]","left-right","[""yellow"",""orange"",""high nameability""]","5","high nameability","49","left","iti",""
"html-button-response","239","355304","0.0-180.0","CKN_113","113","","","","","","885","","0","brown","blue","[""brown"",""blue"",""high nameability""]","right-left","[""blue"",""brown""]","5","high nameability","50","right","trigger",""
"html-button-response","240","356644","0.0-181.0-0.0","CKN_113","113","","","","","","1330","<button class=""jspsych-btn""><img src=""stimuli/brown.png"" style=""width: 200px;height: 200px;""></button>","1","brown","blue","[""brown"",""blue"",""high nameability""]","right-left","[""blue"",""brown""]","5","high nameability","50","right","response","1"
"html-audio-button-response","241","356849","0.0-181.0-1.0","CKN_113","113","","","","","","null","stimuli/bleep.m4a","null","brown","blue","[""brown"",""blue"",""high nameability""]","right-left","[""blue"",""brown""]","5","high nameability","50","right","audio_feedback","1"
"html-button-response","242","357364","0.0-182.0","CKN_113","113","","","","","","null","<button class=""jspsych-btn""><img src=""stimuli/white_square.png"" style=""width: 200px;height: 200px;""></button>","null","brown","blue","[""brown"",""blue"",""high nameability""]","right-left","[""blue"",""brown""]","5","high nameability","50","right","iti",""
"pavlovia","243","357435","0.0-183.0","CKN_113","113","","","","","","","","","","","","","","","","","","",""
"pavlovia","244","357440","0.0-184.0","CKN_113","113","","","","","","","","","","","","","","","","","","",""
"html-audio-button-response","245","360265","0.0-185.0","CKN_113","113","","","","","","2883","stimuli/tada.m4a","0","","","","","","","","","","",""
"html-button-response","246","360987","0.0-186.0","CKN_113","113","","","","","","715","","0","","","","","","","","","","",""
"html-button-response","247","361838","0.0-187.0","CKN_113","113","","","","","","845","","0","purple","orange","[""purple"",""orange"",""high nameability""]","right-left","[""orange"",""purple""]","6","high nameability","51","right","trigger",""
"html-button-response","248","362761","0.0-188.0-0.0","CKN_113","113","","","","","","917","<button class=""jspsych-btn""><img src=""stimuli/purple.png"" style=""width: 200px;height: 200px;""></button>","1","purple","orange","[""purple"",""orange"",""high nameability""]","right-left","[""orange"",""purple""]","6","high nameability","51","right","response","1"
"html-audio-button-response","249","362964","0.0-188.0-1.0","CKN_113","113","","","","","","null","stimuli/bleep.m4a","null","purple","orange","[""purple"",""orange"",""high nameability""]","right-left","[""orange"",""purple""]","6","high nameability","51","right","audio_feedback","1"
"html-button-response","250","363479","0.0-189.0","CKN_113","113","","","","","","null","<button class=""jspsych-btn""><img src=""stimuli/white_square.png"" style=""width: 200px;height: 200px;""></button>","null","purple","orange","[""purple"",""orange"",""high nameability""]","right-left","[""orange"",""purple""]","6","high nameability","51","right","iti",""
"html-button-response","251","364135","0.0-190.0","CKN_113","113","","","","","","646","","0","purple","brown","[""purple"",""brown"",""high nameability""]","left-right","[""purple"",""brown"",""high nameability""]","6","high nameability","52","left","trigger",""
"html-button-response","252","365165","0.0-191.0-0.0","CKN_113","113","","","","","","1025","<button class=""jspsych-btn""><img src=""stimuli/purple.png"" style=""width: 200px;height: 200px;""></button>","0","purple","brown","[""purple"",""brown"",""high nameability""]","left-right","[""purple"",""brown"",""high nameability""]","6","high nameability","52","left","response","1"
"html-audio-button-response","253","365370","0.0-191.0-1.0","CKN_113","113","","","","","","null","stimuli/bleep.m4a","null","purple","brown","[""purple"",""brown"",""high nameability""]","left-right","[""purple"",""brown"",""high nameability""]","6","high nameability","52","left","audio_feedback","1"
"html-button-response","254","365880","0.0-192.0","CKN_113","113","","","","","","null","<button class=""jspsych-btn""><img src=""stimuli/white_square.png"" style=""width: 200px;height: 200px;""></button>","null","purple","brown","[""purple"",""brown"",""high nameability""]","left-right","[""purple"",""brown"",""high nameability""]","6","high nameability","52","left","iti",""
"html-button-response","255","366921","0.0-193.0","CKN_113","113","","","","","","1026","","0","red","yellow","[""red"",""yellow"",""high nameability""]","left-right","[""red"",""yellow"",""high nameability""]","6","high nameability","53","left","trigger",""
"html-button-response","256","367851","0.0-194.0-0.0","CKN_113","113","","","","","","922","<button class=""jspsych-btn""><img src=""stimuli/red.png"" style=""width: 200px;height: 200px;""></button>","0","red","yellow","[""red"",""yellow"",""high nameability""]","left-right","[""red"",""yellow"",""high nameability""]","6","high nameability","53","left","response","1"
"html-audio-button-response","257","368052","0.0-194.0-1.0","CKN_113","113","","","","","","null","stimuli/bleep.m4a","null","red","yellow","[""red"",""yellow"",""high nameability""]","left-right","[""red"",""yellow"",""high nameability""]","6","high nameability","53","left","audio_feedback","1"
"html-button-response","258","368571","0.0-195.0","CKN_113","113","","","","","","null","<button class=""jspsych-btn""><img src=""stimuli/white_square.png"" style=""width: 200px;height: 200px;""></button>","null","red","yellow","[""red"",""yellow"",""high nameability""]","left-right","[""red"",""yellow"",""high nameability""]","6","high nameability","53","left","iti",""
"html-button-response","259","369415","0.0-196.0","CKN_113","113","","","","","","832","","0","orange","yellow","[""orange"",""yellow"",""high nameability""]","right-left","[""yellow"",""orange""]","6","high nameability","54","right","trigger",""
"html-button-response","260","370668","0.0-197.0-0.0","CKN_113","113","","","","","","1244","<button class=""jspsych-btn""><img src=""stimuli/orange.png"" style=""width: 200px;height: 200px;""></button>","1","orange","yellow","[""orange"",""yellow"",""high nameability""]","right-left","[""yellow"",""orange""]","6","high nameability","54","right","response","1"
"html-audio-button-response","261","370872","0.0-197.0-1.0","CKN_113","113","","","","","","null","stimuli/bleep.m4a","null","orange","yellow","[""orange"",""yellow"",""high nameability""]","right-left","[""yellow"",""orange""]","6","high nameability","54","right","audio_feedback","1"
"html-button-response","262","371387","0.0-198.0","CKN_113","113","","","","","","null","<button class=""jspsych-btn""><img src=""stimuli/white_square.png"" style=""width: 200px;height: 200px;""></button>","null","orange","yellow","[""orange"",""yellow"",""high nameability""]","right-left","[""yellow"",""orange""]","6","high nameability","54","right","iti",""
"html-button-response","263","372272","0.0-199.0","CKN_113","113","","","","","","871","","0","neonyellow","lightred","[""neonyellow"",""lightred"",""low nameability""]","right-left","[""lightred"",""neonyellow""]","6","low nameability","55","right","trigger",""
"html-button-response","264","373322","0.0-200.0-0.0","CKN_113","113","","","","","","1043","<button class=""jspsych-btn""><img src=""stimuli/neonyellow.png"" style=""width: 200px;height: 200px;""></button>","1","neonyellow","lightred","[""neonyellow"",""lightred"",""low nameability""]","right-left","[""lightred"",""neonyellow""]","6","low nameability","55","right","response","1"
"html-audio-button-response","265","373522","0.0-200.0-1.0","CKN_113","113","","","","","","null","stimuli/bleep.m4a","null","neonyellow","lightred","[""neonyellow"",""lightred"",""low nameability""]","right-left","[""lightred"",""neonyellow""]","6","low nameability","55","right","audio_feedback","1"
"html-button-response","266","374036","0.0-201.0","CKN_113","113","","","","","","null","<button class=""jspsych-btn""><img src=""stimuli/white_square.png"" style=""width: 200px;height: 200px;""></button>","null","neonyellow","lightred","[""neonyellow"",""lightred"",""low nameability""]","right-left","[""lightred"",""neonyellow""]","6","low nameability","55","right","iti",""
"html-button-response","267","375228","0.0-202.0","CKN_113","113","","","","","","1179","","0","neonyellow","turquoise","[""neonyellow"",""turquoise"",""low nameability""]","left-right","[""neonyellow"",""turquoise"",""low nameability""]","6","low nameability","56","left","trigger",""
"html-button-response","268","376565","0.0-203.0-0.0","CKN_113","113","","","","","","1329","<button class=""jspsych-btn""><img src=""stimuli/neonyellow.png"" style=""width: 200px;height: 200px;""></button>","0","neonyellow","turquoise","[""neonyellow"",""turquoise"",""low nameability""]","left-right","[""neonyellow"",""turquoise"",""low nameability""]","6","low nameability","56","left","response","1"
"html-audio-button-response","269","376765","0.0-203.0-1.0","CKN_113","113","","","","","","null","stimuli/bleep.m4a","null","neonyellow","turquoise","[""neonyellow"",""turquoise"",""low nameability""]","left-right","[""neonyellow"",""turquoise"",""low nameability""]","6","low nameability","56","left","audio_feedback","1"
"html-button-response","270","377284","0.0-204.0","CKN_113","113","","","","","","null","<button class=""jspsych-btn""><img src=""stimuli/white_square.png"" style=""width: 200px;height: 200px;""></button>","null","neonyellow","turquoise","[""neonyellow"",""turquoise"",""low nameability""]","left-right","[""neonyellow"",""turquoise"",""low nameability""]","6","low nameability","56","left","iti",""
"html-button-response","271","378541","0.0-205.0","CKN_113","113","","","","","","1246","","0","orange","purple","[""orange"",""purple"",""high nameability""]","left-right","[""orange"",""purple"",""high nameability""]","6","high nameability","57","left","trigger",""
"html-button-response","272","379505","0.0-206.0-0.0","CKN_113","113","","","","","","956","<button class=""jspsych-btn""><img src=""stimuli/orange.png"" style=""width: 200px;height: 200px;""></button>","0","orange","purple","[""orange"",""purple"",""high nameability""]","left-right","[""orange"",""purple"",""high nameability""]","6","high nameability","57","left","response","1"
"html-audio-button-response","273","379708","0.0-206.0-1.0","CKN_113","113","","","","","","null","stimuli/bleep.m4a","null","orange","purple","[""orange"",""purple"",""high nameability""]","left-right","[""orange"",""purple"",""high nameability""]","6","high nameability","57","left","audio_feedback","1"
"html-button-response","274","380224","0.0-207.0","CKN_113","113","","","","","","null","<button class=""jspsych-btn""><img src=""stimuli/white_square.png"" style=""width: 200px;height: 200px;""></button>","null","orange","purple","[""orange"",""purple"",""high nameability""]","left-right","[""orange"",""purple"",""high nameability""]","6","high nameability","57","left","iti",""
"html-button-response","275","381104","0.0-208.0","CKN_113","113","","","","","","871","","0","brown","red","[""brown"",""red"",""high nameability""]","right-left","[""red"",""brown""]","6","high nameability","58","right","trigger",""
"html-button-response","276","382560","0.0-209.0-0.0","CKN_113","113","","","","","","1448","<button class=""jspsych-btn""><img src=""stimuli/brown.png"" style=""width: 200px;height: 200px;""></button>","1","brown","red","[""brown"",""red"",""high nameability""]","right-left","[""red"",""brown""]","6","high nameability","58","right","response","1"
"html-audio-button-response","277","382767","0.0-209.0-1.0","CKN_113","113","","","","","","null","stimuli/bleep.m4a","null","brown","red","[""brown"",""red"",""high nameability""]","right-left","[""red"",""brown""]","6","high nameability","58","right","audio_feedback","1"
"html-button-response","278","383286","0.0-210.0","CKN_113","113","","","","","","null","<button class=""jspsych-btn""><img src=""stimuli/white_square.png"" style=""width: 200px;height: 200px;""></button>","null","brown","red","[""brown"",""red"",""high nameability""]","right-left","[""red"",""brown""]","6","high nameability","58","right","iti",""
"html-button-response","279","384309","0.0-211.0","CKN_113","113","","","","","","1006","","0","lightred","neonyellow","[""lightred"",""neonyellow"",""low nameability""]","left-right","[""lightred"",""neonyellow"",""low nameability""]","6","low nameability","59","left","trigger",""
"html-button-response","280","385490","0.0-212.0-0.0","CKN_113","113","","","","","","1169","<button class=""jspsych-btn""><img src=""stimuli/lightred.png"" style=""width: 200px;height: 200px;""></button>","0","lightred","neonyellow","[""lightred"",""neonyellow"",""low nameability""]","left-right","[""lightred"",""neonyellow"",""low nameability""]","6","low nameability","59","left","response","1"
"html-audio-button-response","281","385695","0.0-212.0-1.0","CKN_113","113","","","","","","null","stimuli/bleep.m4a","null","lightred","neonyellow","[""lightred"",""neonyellow"",""low nameability""]","left-right","[""lightred"",""neonyellow"",""low nameability""]","6","low nameability","59","left","audio_feedback","1"
"html-button-response","282","386208","0.0-213.0","CKN_113","113","","","","","","null","<button class=""jspsych-btn""><img src=""stimuli/white_square.png"" style=""width: 200px;height: 200px;""></button>","null","lightred","neonyellow","[""lightred"",""neonyellow"",""low nameability""]","left-right","[""lightred"",""neonyellow"",""low nameability""]","6","low nameability","59","left","iti",""
"html-button-response","283","387141","0.0-214.0","CKN_113","113","","","","","","925","","0","pink","darkgreenblue","[""pink"",""darkgreenblue"",""low nameability""]","left-right","[""pink"",""darkgreenblue"",""low nameability""]","6","low nameability","60","left","trigger",""
"html-button-response","284","388187","0.0-215.0-0.0","CKN_113","113","","","","","","1038","<button class=""jspsych-btn""><img src=""stimuli/pink.png"" style=""width: 200px;height: 200px;""></button>","0","pink","darkgreenblue","[""pink"",""darkgreenblue"",""low nameability""]","left-right","[""pink"",""darkgreenblue"",""low nameability""]","6","low nameability","60","left","response","1"
"html-audio-button-response","285","388391","0.0-215.0-1.0","CKN_113","113","","","","","","null","stimuli/bleep.m4a","null","pink","darkgreenblue","[""pink"",""darkgreenblue"",""low nameability""]","left-right","[""pink"",""darkgreenblue"",""low nameability""]","6","low nameability","60","left","audio_feedback","1"
"html-button-response","286","388901","0.0-216.0","CKN_113","113","","","","","","null","<button class=""jspsych-btn""><img src=""stimuli/white_square.png"" style=""width: 200px;height: 200px;""></button>","null","pink","darkgreenblue","[""pink"",""darkgreenblue"",""low nameability""]","left-right","[""pink"",""darkgreenblue"",""low nameability""]","6","low nameability","60","left","iti",""
