"trial_type","trial_index","time_elapsed","internal_node_id","subject_id","seed","success","timeout","failed_images","failed_audio","failed_video","rt","stimulus","response","target","foil","choices","combination_order","choices_in_order","round","condition","trial_counter","target_location","trial_kind","correct"
"pavlovia","0","19","0.0-0.0","CKN_134","134","","","","","","","","","","","","","","","","","","",""
"preload","1","682","0.0-1.0","CKN_134","134","true","false","[]","[]","[]","","","","","","","","","","","","","",""
"fullscreen","2","2533","0.0-2.0","CKN_134","134","true","","","","","","","","","","","","","","","","","",""
"html-button-response","3","170655","0.0-3.0","CKN_134","134","","","","","","168100","","0","","","","","","","","","","",""
"html-button-response","4","177498","0.0-4.0","CKN_134","134","","","","","","6820","","0","star","square","[""square"",""star""]","left-right","[""square"",""star""]","1","practice","1","right","trigger",""
"html-button-response","5","186377","0.0-5.0-0.0","CKN_134","134","","","","","","8860","<button class=""jspsych-btn""><img src=""stimuli/star.png"" style=""width: 200px;height: 200px;""></button>","0","star","square","[""square"",""star""]","left-right","[""square"",""star""]","1","practice","1","right","response","0"
"html-audio-button-response","6","187025","0.0-5.0-1.0","CKN_134","134","","","","","","null","stimuli/boing.m4a","null","star","square","[""square"",""star""]","left-right","[""square"",""star""]","1","practice","1","right","audio_feedback","0"
"html-button-response","7","197153","0.0-5.1-0.1","CKN_134","134","","","","","","10089","<button class=""jspsych-btn""><img src=""stimuli/star.png"" style=""width: 200px;height: 200px;""></button>","1","star","square","[""square"",""star""]","left-right","[""square"",""star""]","1","practice","1","right","response","1"
"html-audio-button-response","8","197372","0.0-5.1-1.1","CKN_134","134","","","","","","null","stimuli/bleep.m4a","null","star","square","[""square"",""star""]","left-right","[""square"",""star""]","1","practice","1","right","audio_feedback","1"
"html-button-response","9","197903","0.0-6.0","CKN_134","134","","","","","","null","<button class=""jspsych-btn""><img src=""stimuli/white_square.png"" style=""width: 200px;height: 200px;""></button>","null","star","square","[""square"",""star""]","left-right","[""square"",""star""]","1","practice","1","right","iti",""
"html-button-response","10","205082","0.0-7.0","CKN_134","134","","","","","","7165","","0","triangle","pentagram","[""triangle"",""pentagram""]","left-right","[""triangle"",""pentagram""]","1","practice","1","left","trigger",""
"html-button-response","11","209658","0.0-8.0-0.0","CKN_134","134","","","","","","4566","<button class=""jspsych-btn""><img src=""stimuli/triangle.png"" style=""width: 200px;height: 200px;""></button>","0","triangle","pentagram","[""triangle"",""pentagram""]","left-right","[""triangle"",""pentagram""]","1","practice","1","left","response","1"
"html-audio-button-response","12","209866","0.0-8.0-1.0","CKN_134","134","","","","","","null","stimuli/bleep.m4a","null","triangle","pentagram","[""triangle"",""pentagram""]","left-right","[""triangle"",""pentagram""]","1","practice","1","left","audio_feedback","1"
"html-button-response","13","210385","0.0-9.0","CKN_134","134","","","","","","null","<button class=""jspsych-btn""><img src=""stimuli/white_square.png"" style=""width: 200px;height: 200px;""></button>","null","triangle","pentagram","[""triangle"",""pentagram""]","left-right","[""triangle"",""pentagram""]","1","practice","1","left","iti",""
"html-button-response","14","212797","0.0-10.0","CKN_134","134","","","","","","2398","","0","diamond","rectangle","[""rectangle"",""diamond""]","left-right","[""rectangle"",""diamond""]","1","practice","1","right","trigger",""
"html-button-response","15","221248","0.0-11.0-0.0","CKN_134","134","","","","","","8442","<button class=""jspsych-btn""><img src=""stimuli/diamond.png"" style=""width: 200px;height: 200px;""></button>","1","diamond","rectangle","[""rectangle"",""diamond""]","left-right","[""rectangle"",""diamond""]","1","practice","1","right","response","1"
"html-audio-button-response","16","221453","0.0-11.0-1.0","CKN_134","134","","","","","","null","stimuli/bleep.m4a","null","diamond","rectangle","[""rectangle"",""diamond""]","left-right","[""rectangle"",""diamond""]","1","practice","1","right","audio_feedback","1"
"html-button-response","17","221976","0.0-12.0","CKN_134","134","","","","","","null","<button class=""jspsych-btn""><img src=""stimuli/white_square.png"" style=""width: 200px;height: 200px;""></button>","null","diamond","rectangle","[""rectangle"",""diamond""]","left-right","[""rectangle"",""diamond""]","1","practice","1","right","iti",""
"html-button-response","18","223445","0.0-13.0","CKN_134","134","","","","","","1456","","0","pentagram","star","[""pentagram"",""star""]","left-right","[""pentagram"",""star""]","1","practice","1","left","trigger",""
"html-button-response","19","226112","0.0-14.0-0.0","CKN_134","134","","","","","","2656","<button class=""jspsych-btn""><img src=""stimuli/pentagram.png"" style=""width: 200px;height: 200px;""></button>","0","pentagram","star","[""pentagram"",""star""]","left-right","[""pentagram"",""star""]","1","practice","1","left","response","1"
"html-audio-button-response","20","226331","0.0-14.0-1.0","CKN_134","134","","","","","","null","stimuli/bleep.m4a","null","pentagram","star","[""pentagram"",""star""]","left-right","[""pentagram"",""star""]","1","practice","1","left","audio_feedback","1"
"html-button-response","21","226868","0.0-15.0","CKN_134","134","","","","","","null","<button class=""jspsych-btn""><img src=""stimuli/white_square.png"" style=""width: 200px;height: 200px;""></button>","null","pentagram","star","[""pentagram"",""star""]","left-right","[""pentagram"",""star""]","1","practice","1","left","iti",""
"html-button-response","22","230459","0.0-16.0","CKN_134","134","","","","","","3579","","0","","","","","","","","","","",""
"html-button-response","23","232753","0.0-17.0","CKN_134","134","","","","","","2287","","0","orange","blue","[""orange"",""blue"",""high nameability""]","left-right","[""orange"",""blue"",""high nameability""]","1","high nameability","1","left","trigger",""
"html-button-response","24","242058","0.0-18.0-0.0","CKN_134","134","","","","","","9289","<button class=""jspsych-btn""><img src=""stimuli/orange.png"" style=""width: 200px;height: 200px;""></button>","0","orange","blue","[""orange"",""blue"",""high nameability""]","left-right","[""orange"",""blue"",""high nameability""]","1","high nameability","1","left","response","1"
"html-audio-button-response","25","242275","0.0-18.0-1.0","CKN_134","134","","","","","","null","stimuli/bleep.m4a","null","orange","blue","[""orange"",""blue"",""high nameability""]","left-right","[""orange"",""blue"",""high nameability""]","1","high nameability","1","left","audio_feedback","1"
"html-button-response","26","242804","0.0-19.0","CKN_134","134","","","","","","null","<button class=""jspsych-btn""><img src=""stimuli/white_square.png"" style=""width: 200px;height: 200px;""></button>","null","orange","blue","[""orange"",""blue"",""high nameability""]","left-right","[""orange"",""blue"",""high nameability""]","1","high nameability","1","left","iti",""
"html-button-response","27","244552","0.0-20.0","CKN_134","134","","","","","","1728","","0","neonyellow","darkgreenblue","[""neonyellow"",""darkgreenblue"",""low nameability""]","left-right","[""neonyellow"",""darkgreenblue"",""low nameability""]","1","low nameability","2","left","trigger",""
"html-button-response","28","250346","0.0-21.0-0.0","CKN_134","134","","","","","","5780","<button class=""jspsych-btn""><img src=""stimuli/neonyellow.png"" style=""width: 200px;height: 200px;""></button>","0","neonyellow","darkgreenblue","[""neonyellow"",""darkgreenblue"",""low nameability""]","left-right","[""neonyellow"",""darkgreenblue"",""low nameability""]","1","low nameability","2","left","response","1"
"html-audio-button-response","29","250563","0.0-21.0-1.0","CKN_134","134","","","","","","null","stimuli/bleep.m4a","null","neonyellow","darkgreenblue","[""neonyellow"",""darkgreenblue"",""low nameability""]","left-right","[""neonyellow"",""darkgreenblue"",""low nameability""]","1","low nameability","2","left","audio_feedback","1"
"html-button-response","30","251081","0.0-22.0","CKN_134","134","","","","","","null","<button class=""jspsych-btn""><img src=""stimuli/white_square.png"" style=""width: 200px;height: 200px;""></button>","null","neonyellow","darkgreenblue","[""neonyellow"",""darkgreenblue"",""low nameability""]","left-right","[""neonyellow"",""darkgreenblue"",""low nameability""]","1","low nameability","2","left","iti",""
"html-button-response","31","252580","0.0-23.0","CKN_134","134","","","","","","1480","","0","blue","red","[""blue"",""red"",""high nameability""]","right-left","[""red"",""blue""]","1","high nameability","3","right","trigger",""
"html-button-response","32","255838","0.0-24.0-0.0","CKN_134","134","","","","","","3241","<button class=""jspsych-btn""><img src=""stimuli/blue.png"" style=""width: 200px;height: 200px;""></button>","1","blue","red","[""blue"",""red"",""high nameability""]","right-left","[""red"",""blue""]","1","high nameability","3","right","response","1"
"html-audio-button-response","33","256060","0.0-24.0-1.0","CKN_134","134","","","","","","null","stimuli/bleep.m4a","null","blue","red","[""blue"",""red"",""high nameability""]","right-left","[""red"",""blue""]","1","high nameability","3","right","audio_feedback","1"
"html-button-response","34","256589","0.0-25.0","CKN_134","134","","","","","","null","<button class=""jspsych-btn""><img src=""stimuli/white_square.png"" style=""width: 200px;height: 200px;""></button>","null","blue","red","[""blue"",""red"",""high nameability""]","right-left","[""red"",""blue""]","1","high nameability","3","right","iti",""
"html-button-response","35","261532","0.0-26.0","CKN_134","134","","","","","","4922","","0","yellow","orange","[""yellow"",""orange"",""high nameability""]","left-right","[""yellow"",""orange"",""high nameability""]","1","high nameability","4","left","trigger",""
"html-button-response","36","267532","0.0-27.0-0.0","CKN_134","134","","","","","","5994","<button class=""jspsych-btn""><img src=""stimuli/yellow.png"" style=""width: 200px;height: 200px;""></button>","0","yellow","orange","[""yellow"",""orange"",""high nameability""]","left-right","[""yellow"",""orange"",""high nameability""]","1","high nameability","4","left","response","1"
"html-audio-button-response","37","267736","0.0-27.0-1.0","CKN_134","134","","","","","","null","stimuli/bleep.m4a","null","yellow","orange","[""yellow"",""orange"",""high nameability""]","left-right","[""yellow"",""orange"",""high nameability""]","1","high nameability","4","left","audio_feedback","1"
"html-button-response","38","268258","0.0-28.0","CKN_134","134","","","","","","null","<button class=""jspsych-btn""><img src=""stimuli/white_square.png"" style=""width: 200px;height: 200px;""></button>","null","yellow","orange","[""yellow"",""orange"",""high nameability""]","left-right","[""yellow"",""orange"",""high nameability""]","1","high nameability","4","left","iti",""
"html-button-response","39","269684","0.0-29.0","CKN_134","134","","","","","","1411","","0","brown","red","[""brown"",""red"",""high nameability""]","left-right","[""brown"",""red"",""high nameability""]","1","high nameability","5","left","trigger",""
"html-button-response","40","272138","0.0-30.0-0.0","CKN_134","134","","","","","","2443","<button class=""jspsych-btn""><img src=""stimuli/brown.png"" style=""width: 200px;height: 200px;""></button>","0","brown","red","[""brown"",""red"",""high nameability""]","left-right","[""brown"",""red"",""high nameability""]","1","high nameability","5","left","response","1"
"html-audio-button-response","41","272357","0.0-30.0-1.0","CKN_134","134","","","","","","null","stimuli/bleep.m4a","null","brown","red","[""brown"",""red"",""high nameability""]","left-right","[""brown"",""red"",""high nameability""]","1","high nameability","5","left","audio_feedback","1"
"html-button-response","42","272880","0.0-31.0","CKN_134","134","","","","","","null","<button class=""jspsych-btn""><img src=""stimuli/white_square.png"" style=""width: 200px;height: 200px;""></button>","null","brown","red","[""brown"",""red"",""high nameability""]","left-right","[""brown"",""red"",""high nameability""]","1","high nameability","5","left","iti",""
"html-button-response","43","274271","0.0-32.0","CKN_134","134","","","","","","1376","","0","darkgreenblue","mustard","[""darkgreenblue"",""mustard"",""low nameability""]","left-right","[""darkgreenblue"",""mustard"",""low nameability""]","1","low nameability","6","left","trigger",""
"html-button-response","44","277080","0.0-33.0-0.0","CKN_134","134","","","","","","2800","<button class=""jspsych-btn""><img src=""stimuli/darkgreenblue.png"" style=""width: 200px;height: 200px;""></button>","0","darkgreenblue","mustard","[""darkgreenblue"",""mustard"",""low nameability""]","left-right","[""darkgreenblue"",""mustard"",""low nameability""]","1","low nameability","6","left","response","1"
"html-audio-button-response","45","277283","0.0-33.0-1.0","CKN_134","134","","","","","","null","stimuli/bleep.m4a","null","darkgreenblue","mustard","[""darkgreenblue"",""mustard"",""low nameability""]","left-right","[""darkgreenblue"",""mustard"",""low nameability""]","1","low nameability","6","left","audio_feedback","1"
"html-button-response","46","277797","0.0-34.0","CKN_134","134","","","","","","null","<button class=""jspsych-btn""><img src=""stimuli/white_square.png"" style=""width: 200px;height: 200px;""></button>","null","darkgreenblue","mustard","[""darkgreenblue"",""mustard"",""low nameability""]","left-right","[""darkgreenblue"",""mustard"",""low nameability""]","1","low nameability","6","left","iti",""
"html-button-response","47","278938","0.0-35.0","CKN_134","134","","","","","","1125","","0","turquoise","lightred","[""turquoise"",""lightred"",""low nameability""]","left-right","[""turquoise"",""lightred"",""low nameability""]","1","low nameability","7","left","trigger",""
"html-button-response","48","284279","0.0-36.0-0.0","CKN_134","134","","","","","","5329","<button class=""jspsych-btn""><img src=""stimuli/turquoise.png"" style=""width: 200px;height: 200px;""></button>","0","turquoise","lightred","[""turquoise"",""lightred"",""low nameability""]","left-right","[""turquoise"",""lightred"",""low nameability""]","1","low nameability","7","left","response","1"
"html-audio-button-response","49","284484","0.0-36.0-1.0","CKN_134","134","","","","","","null","stimuli/bleep.m4a","null","turquoise","lightred","[""turquoise"",""lightred"",""low nameability""]","left-right","[""turquoise"",""lightred"",""low nameability""]","1","low nameability","7","left","audio_feedback","1"
"html-button-response","50","285010","0.0-37.0","CKN_134","134","","","","","","null","<button class=""jspsych-btn""><img src=""stimuli/white_square.png"" style=""width: 200px;height: 200px;""></button>","null","turquoise","lightred","[""turquoise"",""lightred"",""low nameability""]","left-right","[""turquoise"",""lightred"",""low nameability""]","1","low nameability","7","left","iti",""
"html-button-response","51","287151","0.0-38.0","CKN_134","134","","","","","","2126","","0","mustard","lightred","[""mustard"",""lightred"",""low nameability""]","right-left","[""lightred"",""mustard""]","1","low nameability","8","right","trigger",""
"html-button-response","52","289637","0.0-39.0-0.0","CKN_134","134","","","","","","2480","<button class=""jspsych-btn""><img src=""stimuli/mustard.png"" style=""width: 200px;height: 200px;""></button>","1","mustard","lightred","[""mustard"",""lightred"",""low nameability""]","right-left","[""lightred"",""mustard""]","1","low nameability","8","right","response","1"
"html-audio-button-response","53","289847","0.0-39.0-1.0","CKN_134","134","","","","","","null","stimuli/bleep.m4a","null","mustard","lightred","[""mustard"",""lightred"",""low nameability""]","right-left","[""lightred"",""mustard""]","1","low nameability","8","right","audio_feedback","1"
"html-button-response","54","290370","0.0-40.0","CKN_134","134","","","","","","null","<button class=""jspsych-btn""><img src=""stimuli/white_square.png"" style=""width: 200px;height: 200px;""></button>","null","mustard","lightred","[""mustard"",""lightred"",""low nameability""]","right-left","[""lightred"",""mustard""]","1","low nameability","8","right","iti",""
"html-button-response","55","291922","0.0-41.0","CKN_134","134","","","","","","1533","","0","orange","purple","[""orange"",""purple"",""high nameability""]","right-left","[""purple"",""orange""]","1","high nameability","9","right","trigger",""
"html-button-response","56","302347","0.0-42.0-0.0","CKN_134","134","","","","","","10411","<button class=""jspsych-btn""><img src=""stimuli/orange.png"" style=""width: 200px;height: 200px;""></button>","1","orange","purple","[""orange"",""purple"",""high nameability""]","right-left","[""purple"",""orange""]","1","high nameability","9","right","response","1"
"html-audio-button-response","57","302571","0.0-42.0-1.0","CKN_134","134","","","","","","null","stimuli/bleep.m4a","null","orange","purple","[""orange"",""purple"",""high nameability""]","right-left","[""purple"",""orange""]","1","high nameability","9","right","audio_feedback","1"
"html-button-response","58","303090","0.0-43.0","CKN_134","134","","","","","","null","<button class=""jspsych-btn""><img src=""stimuli/white_square.png"" style=""width: 200px;height: 200px;""></button>","null","orange","purple","[""orange"",""purple"",""high nameability""]","right-left","[""purple"",""orange""]","1","high nameability","9","right","iti",""
"html-button-response","59","304632","0.0-44.0","CKN_134","134","","","","","","1518","","0","blue","orange","[""blue"",""orange"",""high nameability""]","left-right","[""blue"",""orange"",""high nameability""]","1","high nameability","10","left","trigger",""
"html-button-response","60","306430","0.0-45.0-0.0","CKN_134","134","","","","","","1775","<button class=""jspsych-btn""><img src=""stimuli/blue.png"" style=""width: 200px;height: 200px;""></button>","0","blue","orange","[""blue"",""orange"",""high nameability""]","left-right","[""blue"",""orange"",""high nameability""]","1","high nameability","10","left","response","1"
"html-audio-button-response","61","306670","0.0-45.0-1.0","CKN_134","134","","","","","","null","stimuli/bleep.m4a","null","blue","orange","[""blue"",""orange"",""high nameability""]","left-right","[""blue"",""orange"",""high nameability""]","1","high nameability","10","left","audio_feedback","1"
"html-button-response","62","307199","0.0-46.0","CKN_134","134","","","","","","null","<button class=""jspsych-btn""><img src=""stimuli/white_square.png"" style=""width: 200px;height: 200px;""></button>","null","blue","orange","[""blue"",""orange"",""high nameability""]","left-right","[""blue"",""orange"",""high nameability""]","1","high nameability","10","left","iti",""
"pavlovia","63","307270","0.0-47.0","CKN_134","134","","","","","","","","","","","","","","","","","","",""
"pavlovia","64","307285","0.0-48.0","CKN_134","134","","","","","","","","","","","","","","","","","","",""
"html-audio-button-response","65","317062","0.0-49.0","CKN_134","134","","","","","","9872","stimuli/tada.m4a","0","","","","","","","","","","",""
"html-button-response","66","317488","0.0-50.0","CKN_134","134","","","","","","420","","0","","","","","","","","","","",""
"html-button-response","67","319690","0.0-51.0","CKN_134","134","","","","","","2195","","0","pink","darkgreenblue","[""pink"",""darkgreenblue"",""low nameability""]","left-right","[""pink"",""darkgreenblue"",""low nameability""]","2","low nameability","11","left","trigger",""
"html-button-response","68","323872","0.0-52.0-0.0","CKN_134","134","","","","","","4173","<button class=""jspsych-btn""><img src=""stimuli/pink.png"" style=""width: 200px;height: 200px;""></button>","0","pink","darkgreenblue","[""pink"",""darkgreenblue"",""low nameability""]","left-right","[""pink"",""darkgreenblue"",""low nameability""]","2","low nameability","11","left","response","1"
"html-audio-button-response","69","324083","0.0-52.0-1.0","CKN_134","134","","","","","","null","stimuli/bleep.m4a","null","pink","darkgreenblue","[""pink"",""darkgreenblue"",""low nameability""]","left-right","[""pink"",""darkgreenblue"",""low nameability""]","2","low nameability","11","left","audio_feedback","1"
"html-button-response","70","324600","0.0-53.0","CKN_134","134","","","","","","null","<button class=""jspsych-btn""><img src=""stimuli/white_square.png"" style=""width: 200px;height: 200px;""></button>","null","pink","darkgreenblue","[""pink"",""darkgreenblue"",""low nameability""]","left-right","[""pink"",""darkgreenblue"",""low nameability""]","2","low nameability","11","left","iti",""
"html-button-response","71","325943","0.0-54.0","CKN_134","134","","","","","","1327","","0","purple","brown","[""purple"",""brown"",""high nameability""]","right-left","[""brown"",""purple""]","2","high nameability","12","right","trigger",""
"html-button-response","72","327402","0.0-55.0-0.0","CKN_134","134","","","","","","1450","<button class=""jspsych-btn""><img src=""stimuli/purple.png"" style=""width: 200px;height: 200px;""></button>","1","purple","brown","[""purple"",""brown"",""high nameability""]","right-left","[""brown"",""purple""]","2","high nameability","12","right","response","1"
"html-audio-button-response","73","327626","0.0-55.0-1.0","CKN_134","134","","","","","","null","stimuli/bleep.m4a","null","purple","brown","[""purple"",""brown"",""high nameability""]","right-left","[""brown"",""purple""]","2","high nameability","12","right","audio_feedback","1"
"html-button-response","74","328148","0.0-56.0","CKN_134","134","","","","","","null","<button class=""jspsych-btn""><img src=""stimuli/white_square.png"" style=""width: 200px;height: 200px;""></button>","null","purple","brown","[""purple"",""brown"",""high nameability""]","right-left","[""brown"",""purple""]","2","high nameability","12","right","iti",""
"html-button-response","75","329384","0.0-57.0","CKN_134","134","","","","","","1223","","0","darkgreenblue","turquoise","[""darkgreenblue"",""turquoise"",""low nameability""]","left-right","[""darkgreenblue"",""turquoise"",""low nameability""]","2","low nameability","13","left","trigger",""
"html-button-response","76","330911","0.0-58.0-0.0","CKN_134","134","","","","","","1515","<button class=""jspsych-btn""><img src=""stimuli/darkgreenblue.png"" style=""width: 200px;height: 200px;""></button>","0","darkgreenblue","turquoise","[""darkgreenblue"",""turquoise"",""low nameability""]","left-right","[""darkgreenblue"",""turquoise"",""low nameability""]","2","low nameability","13","left","response","1"
"html-audio-button-response","77","331124","0.0-58.0-1.0","CKN_134","134","","","","","","null","stimuli/bleep.m4a","null","darkgreenblue","turquoise","[""darkgreenblue"",""turquoise"",""low nameability""]","left-right","[""darkgreenblue"",""turquoise"",""low nameability""]","2","low nameability","13","left","audio_feedback","1"
"html-button-response","78","331662","0.0-59.0","CKN_134","134","","","","","","null","<button class=""jspsych-btn""><img src=""stimuli/white_square.png"" style=""width: 200px;height: 200px;""></button>","null","darkgreenblue","turquoise","[""darkgreenblue"",""turquoise"",""low nameability""]","left-right","[""darkgreenblue"",""turquoise"",""low nameability""]","2","low nameability","13","left","iti",""
"html-button-response","79","334868","0.0-60.0","CKN_134","134","","","","","","3189","","0","neonyellow","lightred","[""neonyellow"",""lightred"",""low nameability""]","right-left","[""lightred"",""neonyellow""]","2","low nameability","14","right","trigger",""
"html-button-response","80","336357","0.0-61.0-0.0","CKN_134","134","","","","","","1481","<button class=""jspsych-btn""><img src=""stimuli/neonyellow.png"" style=""width: 200px;height: 200px;""></button>","1","neonyellow","lightred","[""neonyellow"",""lightred"",""low nameability""]","right-left","[""lightred"",""neonyellow""]","2","low nameability","14","right","response","1"
"html-audio-button-response","81","336579","0.0-61.0-1.0","CKN_134","134","","","","","","null","stimuli/bleep.m4a","null","neonyellow","lightred","[""neonyellow"",""lightred"",""low nameability""]","right-left","[""lightred"",""neonyellow""]","2","low nameability","14","right","audio_feedback","1"
"html-button-response","82","337099","0.0-62.0","CKN_134","134","","","","","","null","<button class=""jspsych-btn""><img src=""stimuli/white_square.png"" style=""width: 200px;height: 200px;""></button>","null","neonyellow","lightred","[""neonyellow"",""lightred"",""low nameability""]","right-left","[""lightred"",""neonyellow""]","2","low nameability","14","right","iti",""
"html-button-response","83","338477","0.0-63.0","CKN_134","134","","","","","","1361","","0","turquoise","pink","[""turquoise"",""pink"",""low nameability""]","left-right","[""turquoise"",""pink"",""low nameability""]","2","low nameability","15","left","trigger",""
"html-button-response","84","339831","0.0-64.0-0.0","CKN_134","134","","","","","","1342","<button class=""jspsych-btn""><img src=""stimuli/turquoise.png"" style=""width: 200px;height: 200px;""></button>","0","turquoise","pink","[""turquoise"",""pink"",""low nameability""]","left-right","[""turquoise"",""pink"",""low nameability""]","2","low nameability","15","left","response","1"
"html-audio-button-response","85","340042","0.0-64.0-1.0","CKN_134","134","","","","","","null","stimuli/bleep.m4a","null","turquoise","pink","[""turquoise"",""pink"",""low nameability""]","left-right","[""turquoise"",""pink"",""low nameability""]","2","low nameability","15","left","audio_feedback","1"
"html-button-response","86","340565","0.0-65.0","CKN_134","134","","","","","","null","<button class=""jspsych-btn""><img src=""stimuli/white_square.png"" style=""width: 200px;height: 200px;""></button>","null","turquoise","pink","[""turquoise"",""pink"",""low nameability""]","left-right","[""turquoise"",""pink"",""low nameability""]","2","low nameability","15","left","iti",""
"html-button-response","87","342226","0.0-66.0","CKN_134","134","","","","","","1632","","0","brown","orange","[""brown"",""orange"",""high nameability""]","left-right","[""brown"",""orange"",""high nameability""]","2","high nameability","16","left","trigger",""
"html-button-response","88","344607","0.0-67.0-0.0","CKN_134","134","","","","","","2362","<button class=""jspsych-btn""><img src=""stimuli/brown.png"" style=""width: 200px;height: 200px;""></button>","0","brown","orange","[""brown"",""orange"",""high nameability""]","left-right","[""brown"",""orange"",""high nameability""]","2","high nameability","16","left","response","1"
"html-audio-button-response","89","344822","0.0-67.0-1.0","CKN_134","134","","","","","","null","stimuli/bleep.m4a","null","brown","orange","[""brown"",""orange"",""high nameability""]","left-right","[""brown"",""orange"",""high nameability""]","2","high nameability","16","left","audio_feedback","1"
"html-button-response","90","345347","0.0-68.0","CKN_134","134","","","","","","null","<button class=""jspsych-btn""><img src=""stimuli/white_square.png"" style=""width: 200px;height: 200px;""></button>","null","brown","orange","[""brown"",""orange"",""high nameability""]","left-right","[""brown"",""orange"",""high nameability""]","2","high nameability","16","left","iti",""
"html-button-response","91","347267","0.0-69.0","CKN_134","134","","","","","","1908","","0","orange","brown","[""orange"",""brown"",""high nameability""]","left-right","[""orange"",""brown"",""high nameability""]","2","high nameability","17","left","trigger",""
"html-button-response","92","349375","0.0-70.0-0.0","CKN_134","134","","","","","","2095","<button class=""jspsych-btn""><img src=""stimuli/orange.png"" style=""width: 200px;height: 200px;""></button>","0","orange","brown","[""orange"",""brown"",""high nameability""]","left-right","[""orange"",""brown"",""high nameability""]","2","high nameability","17","left","response","1"
"html-audio-button-response","93","349587","0.0-70.0-1.0","CKN_134","134","","","","","","null","stimuli/bleep.m4a","null","orange","brown","[""orange"",""brown"",""high nameability""]","left-right","[""orange"",""brown"",""high nameability""]","2","high nameability","17","left","audio_feedback","1"
"html-button-response","94","350102","0.0-71.0","CKN_134","134","","","","","","null","<button class=""jspsych-btn""><img src=""stimuli/white_square.png"" style=""width: 200px;height: 200px;""></button>","null","orange","brown","[""orange"",""brown"",""high nameability""]","left-right","[""orange"",""brown"",""high nameability""]","2","high nameability","17","left","iti",""
"html-button-response","95","353171","0.0-72.0","CKN_134","134","","","","","","3054","","0","blue","purple","[""blue"",""purple"",""high nameability""]","left-right","[""blue"",""purple"",""high nameability""]","2","high nameability","18","left","trigger",""
"html-button-response","96","355314","0.0-73.0-0.0","CKN_134","134","","","","","","2133","<button class=""jspsych-btn""><img src=""stimuli/blue.png"" style=""width: 200px;height: 200px;""></button>","0","blue","purple","[""blue"",""purple"",""high nameability""]","left-right","[""blue"",""purple"",""high nameability""]","2","high nameability","18","left","response","1"
"html-audio-button-response","97","355523","0.0-73.0-1.0","CKN_134","134","","","","","","null","stimuli/bleep.m4a","null","blue","purple","[""blue"",""purple"",""high nameability""]","left-right","[""blue"",""purple"",""high nameability""]","2","high nameability","18","left","audio_feedback","1"
"html-button-response","98","356036","0.0-74.0","CKN_134","134","","","","","","null","<button class=""jspsych-btn""><img src=""stimuli/white_square.png"" style=""width: 200px;height: 200px;""></button>","null","blue","purple","[""blue"",""purple"",""high nameability""]","left-right","[""blue"",""purple"",""high nameability""]","2","high nameability","18","left","iti",""
"html-button-response","99","360123","0.0-75.0","CKN_134","134","","","","","","4070","","0","pink","lightred","[""pink"",""lightred"",""low nameability""]","left-right","[""pink"",""lightred"",""low nameability""]","2","low nameability","19","left","trigger",""
"html-button-response","100","362782","0.0-76.0-0.0","CKN_134","134","","","","","","2649","<button class=""jspsych-btn""><img src=""stimuli/pink.png"" style=""width: 200px;height: 200px;""></button>","0","pink","lightred","[""pink"",""lightred"",""low nameability""]","left-right","[""pink"",""lightred"",""low nameability""]","2","low nameability","19","left","response","1"
"html-audio-button-response","101","362996","0.0-76.0-1.0","CKN_134","134","","","","","","null","stimuli/bleep.m4a","null","pink","lightred","[""pink"",""lightred"",""low nameability""]","left-right","[""pink"",""lightred"",""low nameability""]","2","low nameability","19","left","audio_feedback","1"
"html-button-response","102","363517","0.0-77.0","CKN_134","134","","","","","","null","<button class=""jspsych-btn""><img src=""stimuli/white_square.png"" style=""width: 200px;height: 200px;""></button>","null","pink","lightred","[""pink"",""lightred"",""low nameability""]","left-right","[""pink"",""lightred"",""low nameability""]","2","low nameability","19","left","iti",""
"html-button-response","103","366378","0.0-78.0","CKN_134","134","","","","","","2852","","0","red","orange","[""red"",""orange"",""high nameability""]","right-left","[""orange"",""red""]","2","high nameability","20","right","trigger",""
"html-button-response","104","368713","0.0-79.0-0.0","CKN_134","134","","","","","","2326","<button class=""jspsych-btn""><img src=""stimuli/red.png"" style=""width: 200px;height: 200px;""></button>","1","red","orange","[""red"",""orange"",""high nameability""]","right-left","[""orange"",""red""]","2","high nameability","20","right","response","1"
"html-audio-button-response","105","368916","0.0-79.0-1.0","CKN_134","134","","","","","","null","stimuli/bleep.m4a","null","red","orange","[""red"",""orange"",""high nameability""]","right-left","[""orange"",""red""]","2","high nameability","20","right","audio_feedback","1"
"html-button-response","106","369435","0.0-80.0","CKN_134","134","","","","","","null","<button class=""jspsych-btn""><img src=""stimuli/white_square.png"" style=""width: 200px;height: 200px;""></button>","null","red","orange","[""red"",""orange"",""high nameability""]","right-left","[""orange"",""red""]","2","high nameability","20","right","iti",""
"pavlovia","107","369507","0.0-81.0","CKN_134","134","","","","","","","","","","","","","","","","","","",""
"pavlovia","108","369516","0.0-82.0","CKN_134","134","","","","","","","","","","","","","","","","","","",""
"html-audio-button-response","109","373377","0.0-83.0","CKN_134","134","","","","","","3931","stimuli/tada.m4a","0","","","","","","","","","","",""
"html-button-response","110","374289","0.0-84.0","CKN_134","134","","","","","","903","","0","","","","","","","","","","",""
"html-button-response","111","376278","0.0-85.0","CKN_134","134","","","","","","1981","","0","brown","blue","[""brown"",""blue"",""high nameability""]","left-right","[""brown"",""blue"",""high nameability""]","3","high nameability","21","left","trigger",""
"html-button-response","112","378783","0.0-86.0-0.0","CKN_134","134","","","","","","2495","<button class=""jspsych-btn""><img src=""stimuli/brown.png"" style=""width: 200px;height: 200px;""></button>","0","brown","blue","[""brown"",""blue"",""high nameability""]","left-right","[""brown"",""blue"",""high nameability""]","3","high nameability","21","left","response","1"
"html-audio-button-response","113","378997","0.0-86.0-1.0","CKN_134","134","","","","","","null","stimuli/bleep.m4a","null","brown","blue","[""brown"",""blue"",""high nameability""]","left-right","[""brown"",""blue"",""high nameability""]","3","high nameability","21","left","audio_feedback","1"
"html-button-response","114","379524","0.0-87.0","CKN_134","134","","","","","","null","<button class=""jspsych-btn""><img src=""stimuli/white_square.png"" style=""width: 200px;height: 200px;""></button>","null","brown","blue","[""brown"",""blue"",""high nameability""]","left-right","[""brown"",""blue"",""high nameability""]","3","high nameability","21","left","iti",""
"html-button-response","115","382306","0.0-88.0","CKN_134","134","","","","","","2771","","0","lightred","pink","[""lightred"",""pink"",""low nameability""]","left-right","[""lightred"",""pink"",""low nameability""]","3","low nameability","22","left","trigger",""
"html-button-response","116","384163","0.0-89.0-0.0","CKN_134","134","","","","","","1850","<button class=""jspsych-btn""><img src=""stimuli/lightred.png"" style=""width: 200px;height: 200px;""></button>","0","lightred","pink","[""lightred"",""pink"",""low nameability""]","left-right","[""lightred"",""pink"",""low nameability""]","3","low nameability","22","left","response","1"
"html-audio-button-response","117","384372","0.0-89.0-1.0","CKN_134","134","","","","","","null","stimuli/bleep.m4a","null","lightred","pink","[""lightred"",""pink"",""low nameability""]","left-right","[""lightred"",""pink"",""low nameability""]","3","low nameability","22","left","audio_feedback","1"
"html-button-response","118","384894","0.0-90.0","CKN_134","134","","","","","","null","<button class=""jspsych-btn""><img src=""stimuli/white_square.png"" style=""width: 200px;height: 200px;""></button>","null","lightred","pink","[""lightred"",""pink"",""low nameability""]","left-right","[""lightred"",""pink"",""low nameability""]","3","low nameability","22","left","iti",""
"html-button-response","119","386840","0.0-91.0","CKN_134","134","","","","","","1922","","0","yellow","brown","[""yellow"",""brown"",""high nameability""]","right-left","[""brown"",""yellow""]","3","high nameability","23","right","trigger",""
"html-button-response","120","388344","0.0-92.0-0.0","CKN_134","134","","","","","","1489","<button class=""jspsych-btn""><img src=""stimuli/yellow.png"" style=""width: 200px;height: 200px;""></button>","1","yellow","brown","[""yellow"",""brown"",""high nameability""]","right-left","[""brown"",""yellow""]","3","high nameability","23","right","response","1"
"html-audio-button-response","121","388554","0.0-92.0-1.0","CKN_134","134","","","","","","null","stimuli/bleep.m4a","null","yellow","brown","[""yellow"",""brown"",""high nameability""]","right-left","[""brown"",""yellow""]","3","high nameability","23","right","audio_feedback","1"
"html-button-response","122","389066","0.0-93.0","CKN_134","134","","","","","","null","<button class=""jspsych-btn""><img src=""stimuli/white_square.png"" style=""width: 200px;height: 200px;""></button>","null","yellow","brown","[""yellow"",""brown"",""high nameability""]","right-left","[""brown"",""yellow""]","3","high nameability","23","right","iti",""
"html-button-response","123","391169","0.0-94.0","CKN_134","134","","","","","","2096","","0","darkgreenblue","lightred","[""darkgreenblue"",""lightred"",""low nameability""]","right-left","[""lightred"",""darkgreenblue""]","3","low nameability","24","right","trigger",""
"html-button-response","124","392629","0.0-95.0-0.0","CKN_134","134","","","","","","1454","<button class=""jspsych-btn""><img src=""stimuli/darkgreenblue.png"" style=""width: 200px;height: 200px;""></button>","1","darkgreenblue","lightred","[""darkgreenblue"",""lightred"",""low nameability""]","right-left","[""lightred"",""darkgreenblue""]","3","low nameability","24","right","response","1"
"html-audio-button-response","125","392835","0.0-95.0-1.0","CKN_134","134","","","","","","null","stimuli/bleep.m4a","null","darkgreenblue","lightred","[""darkgreenblue"",""lightred"",""low nameability""]","right-left","[""lightred"",""darkgreenblue""]","3","low nameability","24","right","audio_feedback","1"
"html-button-response","126","393347","0.0-96.0","CKN_134","134","","","","","","null","<button class=""jspsych-btn""><img src=""stimuli/white_square.png"" style=""width: 200px;height: 200px;""></button>","null","darkgreenblue","lightred","[""darkgreenblue"",""lightred"",""low nameability""]","right-left","[""lightred"",""darkgreenblue""]","3","low nameability","24","right","iti",""
"html-button-response","127","398193","0.0-97.0","CKN_134","134","","","","","","4834","","0","brown","purple","[""brown"",""purple"",""high nameability""]","right-left","[""purple"",""brown""]","3","high nameability","25","right","trigger",""
"html-button-response","128","400734","0.0-98.0-0.0","CKN_134","134","","","","","","2532","<button class=""jspsych-btn""><img src=""stimuli/brown.png"" style=""width: 200px;height: 200px;""></button>","1","brown","purple","[""brown"",""purple"",""high nameability""]","right-left","[""purple"",""brown""]","3","high nameability","25","right","response","1"
"html-audio-button-response","129","400948","0.0-98.0-1.0","CKN_134","134","","","","","","null","stimuli/bleep.m4a","null","brown","purple","[""brown"",""purple"",""high nameability""]","right-left","[""purple"",""brown""]","3","high nameability","25","right","audio_feedback","1"
"html-button-response","130","401473","0.0-99.0","CKN_134","134","","","","","","null","<button class=""jspsych-btn""><img src=""stimuli/white_square.png"" style=""width: 200px;height: 200px;""></button>","null","brown","purple","[""brown"",""purple"",""high nameability""]","right-left","[""purple"",""brown""]","3","high nameability","25","right","iti",""
"html-button-response","131","403508","0.0-100.0","CKN_134","134","","","","","","2020","","0","pink","neonyellow","[""pink"",""neonyellow"",""low nameability""]","right-left","[""neonyellow"",""pink""]","3","low nameability","26","right","trigger",""
"html-button-response","132","405025","0.0-101.0-0.0","CKN_134","134","","","","","","1509","<button class=""jspsych-btn""><img src=""stimuli/pink.png"" style=""width: 200px;height: 200px;""></button>","1","pink","neonyellow","[""pink"",""neonyellow"",""low nameability""]","right-left","[""neonyellow"",""pink""]","3","low nameability","26","right","response","1"
"html-audio-button-response","133","405253","0.0-101.0-1.0","CKN_134","134","","","","","","null","stimuli/bleep.m4a","null","pink","neonyellow","[""pink"",""neonyellow"",""low nameability""]","right-left","[""neonyellow"",""pink""]","3","low nameability","26","right","audio_feedback","1"
"html-button-response","134","405763","0.0-102.0","CKN_134","134","","","","","","null","<button class=""jspsych-btn""><img src=""stimuli/white_square.png"" style=""width: 200px;height: 200px;""></button>","null","pink","neonyellow","[""pink"",""neonyellow"",""low nameability""]","right-left","[""neonyellow"",""pink""]","3","low nameability","26","right","iti",""
"html-button-response","135","407603","0.0-103.0","CKN_134","134","","","","","","1833","","0","purple","red","[""purple"",""red"",""high nameability""]","right-left","[""red"",""purple""]","3","high nameability","27","right","trigger",""
"html-button-response","136","408664","0.0-104.0-0.0","CKN_134","134","","","","","","1053","<button class=""jspsych-btn""><img src=""stimuli/purple.png"" style=""width: 200px;height: 200px;""></button>","1","purple","red","[""purple"",""red"",""high nameability""]","right-left","[""red"",""purple""]","3","high nameability","27","right","response","1"
"html-audio-button-response","137","408874","0.0-104.0-1.0","CKN_134","134","","","","","","null","stimuli/bleep.m4a","null","purple","red","[""purple"",""red"",""high nameability""]","right-left","[""red"",""purple""]","3","high nameability","27","right","audio_feedback","1"
"html-button-response","138","409389","0.0-105.0","CKN_134","134","","","","","","null","<button class=""jspsych-btn""><img src=""stimuli/white_square.png"" style=""width: 200px;height: 200px;""></button>","null","purple","red","[""purple"",""red"",""high nameability""]","right-left","[""red"",""purple""]","3","high nameability","27","right","iti",""
"html-button-response","139","410627","0.0-106.0","CKN_134","134","","","","","","1224","","0","neonyellow","pink","[""neonyellow"",""pink"",""low nameability""]","right-left","[""pink"",""neonyellow""]","3","low nameability","28","right","trigger",""
"html-button-response","140","411560","0.0-107.0-0.0","CKN_134","134","","","","","","927","<button class=""jspsych-btn""><img src=""stimuli/neonyellow.png"" style=""width: 200px;height: 200px;""></button>","1","neonyellow","pink","[""neonyellow"",""pink"",""low nameability""]","right-left","[""pink"",""neonyellow""]","3","low nameability","28","right","response","1"
"html-audio-button-response","141","411763","0.0-107.0-1.0","CKN_134","134","","","","","","null","stimuli/bleep.m4a","null","neonyellow","pink","[""neonyellow"",""pink"",""low nameability""]","right-left","[""pink"",""neonyellow""]","3","low nameability","28","right","audio_feedback","1"
"html-button-response","142","412276","0.0-108.0","CKN_134","134","","","","","","null","<button class=""jspsych-btn""><img src=""stimuli/white_square.png"" style=""width: 200px;height: 200px;""></button>","null","neonyellow","pink","[""neonyellow"",""pink"",""low nameability""]","right-left","[""pink"",""neonyellow""]","3","low nameability","28","right","iti",""
"html-button-response","143","413107","0.0-109.0","CKN_134","134","","","","","","816","","0","neonyellow","mustard","[""neonyellow"",""mustard"",""low nameability""]","left-right","[""neonyellow"",""mustard"",""low nameability""]","3","low nameability","29","left","trigger",""
"html-button-response","144","413969","0.0-110.0-0.0","CKN_134","134","","","","","","854","<button class=""jspsych-btn""><img src=""stimuli/neonyellow.png"" style=""width: 200px;height: 200px;""></button>","1","neonyellow","mustard","[""neonyellow"",""mustard"",""low nameability""]","left-right","[""neonyellow"",""mustard"",""low nameability""]","3","low nameability","29","left","response","0"
"html-audio-button-response","145","414611","0.0-110.0-1.0","CKN_134","134","","","","","","null","stimuli/boing.m4a","null","neonyellow","mustard","[""neonyellow"",""mustard"",""low nameability""]","left-right","[""neonyellow"",""mustard"",""low nameability""]","3","low nameability","29","left","audio_feedback","0"
"html-button-response","146","417347","0.0-110.1-0.1","CKN_134","134","","","","","","2690","<button class=""jspsych-btn""><img src=""stimuli/neonyellow.png"" style=""width: 200px;height: 200px;""></button>","0","neonyellow","mustard","[""neonyellow"",""mustard"",""low nameability""]","left-right","[""neonyellow"",""mustard"",""low nameability""]","3","low nameability","29","left","response","1"
"html-audio-button-response","147","417559","0.0-110.1-1.1","CKN_134","134","","","","","","null","stimuli/bleep.m4a","null","neonyellow","mustard","[""neonyellow"",""mustard"",""low nameability""]","left-right","[""neonyellow"",""mustard"",""low nameability""]","3","low nameability","29","left","audio_feedback","1"
"html-button-response","148","418080","0.0-111.0","CKN_134","134","","","","","","null","<button class=""jspsych-btn""><img src=""stimuli/white_square.png"" style=""width: 200px;height: 200px;""></button>","null","neonyellow","mustard","[""neonyellow"",""mustard"",""low nameability""]","left-right","[""neonyellow"",""mustard"",""low nameability""]","3","low nameability","29","left","iti",""
"html-button-response","149","420987","0.0-112.0","CKN_134","134","","","","","","2892","","0","orange","yellow","[""orange"",""yellow"",""high nameability""]","right-left","[""yellow"",""orange""]","3","high nameability","30","right","trigger",""
"html-button-response","150","422239","0.0-113.0-0.0","CKN_134","134","","","","","","1243","<button class=""jspsych-btn""><img src=""stimuli/orange.png"" style=""width: 200px;height: 200px;""></button>","1","orange","yellow","[""orange"",""yellow"",""high nameability""]","right-left","[""yellow"",""orange""]","3","high nameability","30","right","response","1"
"html-audio-button-response","151","422442","0.0-113.0-1.0","CKN_134","134","","","","","","null","stimuli/bleep.m4a","null","orange","yellow","[""orange"",""yellow"",""high nameability""]","right-left","[""yellow"",""orange""]","3","high nameability","30","right","audio_feedback","1"
"html-button-response","152","422957","0.0-114.0","CKN_134","134","","","","","","null","<button class=""jspsych-btn""><img src=""stimuli/white_square.png"" style=""width: 200px;height: 200px;""></button>","null","orange","yellow","[""orange"",""yellow"",""high nameability""]","right-left","[""yellow"",""orange""]","3","high nameability","30","right","iti",""
"pavlovia","153","423011","0.0-115.0","CKN_134","134","","","","","","","","","","","","","","","","","","",""
"pavlovia","154","423020","0.0-116.0","CKN_134","134","","","","","","","","","","","","","","","","","","",""
"html-audio-button-response","155","426881","0.0-117.0","CKN_134","134","","","","","","3925","stimuli/tada.m4a","0","","","","","","","","","","",""
"html-button-response","156","427480","0.0-118.0","CKN_134","134","","","","","","593","","0","","","","","","","","","","",""
"html-button-response","157","429201","0.0-119.0","CKN_134","134","","","","","","1716","","0","purple","blue","[""purple"",""blue"",""high nameability""]","right-left","[""blue"",""purple""]","4","high nameability","31","right","trigger",""
"html-button-response","158","430481","0.0-120.0-0.0","CKN_134","134","","","","","","1272","<button class=""jspsych-btn""><img src=""stimuli/purple.png"" style=""width: 200px;height: 200px;""></button>","1","purple","blue","[""purple"",""blue"",""high nameability""]","right-left","[""blue"",""purple""]","4","high nameability","31","right","response","1"
"html-audio-button-response","159","430682","0.0-120.0-1.0","CKN_134","134","","","","","","null","stimuli/bleep.m4a","null","purple","blue","[""purple"",""blue"",""high nameability""]","right-left","[""blue"",""purple""]","4","high nameability","31","right","audio_feedback","1"
"html-button-response","160","431205","0.0-121.0","CKN_134","134","","","","","","null","<button class=""jspsych-btn""><img src=""stimuli/white_square.png"" style=""width: 200px;height: 200px;""></button>","null","purple","blue","[""purple"",""blue"",""high nameability""]","right-left","[""blue"",""purple""]","4","high nameability","31","right","iti",""
"html-button-response","161","432447","0.0-122.0","CKN_134","134","","","","","","1226","","0","neonyellow","turquoise","[""neonyellow"",""turquoise"",""low nameability""]","right-left","[""turquoise"",""neonyellow""]","4","low nameability","32","right","trigger",""
"html-button-response","162","434961","0.0-123.0-0.0","CKN_134","134","","","","","","2509","<button class=""jspsych-btn""><img src=""stimuli/neonyellow.png"" style=""width: 200px;height: 200px;""></button>","1","neonyellow","turquoise","[""neonyellow"",""turquoise"",""low nameability""]","right-left","[""turquoise"",""neonyellow""]","4","low nameability","32","right","response","1"
"html-audio-button-response","163","435163","0.0-123.0-1.0","CKN_134","134","","","","","","null","stimuli/bleep.m4a","null","neonyellow","turquoise","[""neonyellow"",""turquoise"",""low nameability""]","right-left","[""turquoise"",""neonyellow""]","4","low nameability","32","right","audio_feedback","1"
"html-button-response","164","435678","0.0-124.0","CKN_134","134","","","","","","null","<button class=""jspsych-btn""><img src=""stimuli/white_square.png"" style=""width: 200px;height: 200px;""></button>","null","neonyellow","turquoise","[""neonyellow"",""turquoise"",""low nameability""]","right-left","[""turquoise"",""neonyellow""]","4","low nameability","32","right","iti",""
"html-button-response","165","436648","0.0-125.0","CKN_134","134","","","","","","958","","0","lightred","turquoise","[""lightred"",""turquoise"",""low nameability""]","left-right","[""lightred"",""turquoise"",""low nameability""]","4","low nameability","33","left","trigger",""
"html-button-response","166","437706","0.0-126.0-0.0","CKN_134","134","","","","","","1051","<button class=""jspsych-btn""><img src=""stimuli/lightred.png"" style=""width: 200px;height: 200px;""></button>","1","lightred","turquoise","[""lightred"",""turquoise"",""low nameability""]","left-right","[""lightred"",""turquoise"",""low nameability""]","4","low nameability","33","left","response","0"
"html-audio-button-response","167","438335","0.0-126.0-1.0","CKN_134","134","","","","","","null","stimuli/boing.m4a","null","lightred","turquoise","[""lightred"",""turquoise"",""low nameability""]","left-right","[""lightred"",""turquoise"",""low nameability""]","4","low nameability","33","left","audio_feedback","0"
"html-button-response","168","440528","0.0-126.1-0.1","CKN_134","134","","","","","","2172","<button class=""jspsych-btn""><img src=""stimuli/lightred.png"" style=""width: 200px;height: 200px;""></button>","0","lightred","turquoise","[""lightred"",""turquoise"",""low nameability""]","left-right","[""lightred"",""turquoise"",""low nameability""]","4","low nameability","33","left","response","1"
"html-audio-button-response","169","440746","0.0-126.1-1.1","CKN_134","134","","","","","","null","stimuli/bleep.m4a","null","lightred","turquoise","[""lightred"",""turquoise"",""low nameability""]","left-right","[""lightred"",""turquoise"",""low nameability""]","4","low nameability","33","left","audio_feedback","1"
"html-button-response","170","441266","0.0-127.0","CKN_134","134","","","","","","null","<button class=""jspsych-btn""><img src=""stimuli/white_square.png"" style=""width: 200px;height: 200px;""></button>","null","lightred","turquoise","[""lightred"",""turquoise"",""low nameability""]","left-right","[""lightred"",""turquoise"",""low nameability""]","4","low nameability","33","left","iti",""
"html-button-response","171","444764","0.0-128.0","CKN_134","134","","","","","","3479","","0","turquoise","darkgreenblue","[""turquoise"",""darkgreenblue"",""low nameability""]","right-left","[""darkgreenblue"",""turquoise""]","4","low nameability","34","right","trigger",""
"html-button-response","172","446777","0.0-129.0-0.0","CKN_134","134","","","","","","2005","<button class=""jspsych-btn""><img src=""stimuli/turquoise.png"" style=""width: 200px;height: 200px;""></button>","1","turquoise","darkgreenblue","[""turquoise"",""darkgreenblue"",""low nameability""]","right-left","[""darkgreenblue"",""turquoise""]","4","low nameability","34","right","response","1"
"html-audio-button-response","173","446984","0.0-129.0-1.0","CKN_134","134","","","","","","null","stimuli/bleep.m4a","null","turquoise","darkgreenblue","[""turquoise"",""darkgreenblue"",""low nameability""]","right-left","[""darkgreenblue"",""turquoise""]","4","low nameability","34","right","audio_feedback","1"
"html-button-response","174","447501","0.0-130.0","CKN_134","134","","","","","","null","<button class=""jspsych-btn""><img src=""stimuli/white_square.png"" style=""width: 200px;height: 200px;""></button>","null","turquoise","darkgreenblue","[""turquoise"",""darkgreenblue"",""low nameability""]","right-left","[""darkgreenblue"",""turquoise""]","4","low nameability","34","right","iti",""
"html-button-response","175","450019","0.0-131.0","CKN_134","134","","","","","","2505","","0","blue","yellow","[""blue"",""yellow"",""high nameability""]","right-left","[""yellow"",""blue""]","4","high nameability","35","right","trigger",""
"html-button-response","176","456798","0.0-132.0-0.0","CKN_134","134","","","","","","6771","<button class=""jspsych-btn""><img src=""stimuli/blue.png"" style=""width: 200px;height: 200px;""></button>","1","blue","yellow","[""blue"",""yellow"",""high nameability""]","right-left","[""yellow"",""blue""]","4","high nameability","35","right","response","1"
"html-audio-button-response","177","457002","0.0-132.0-1.0","CKN_134","134","","","","","","null","stimuli/bleep.m4a","null","blue","yellow","[""blue"",""yellow"",""high nameability""]","right-left","[""yellow"",""blue""]","4","high nameability","35","right","audio_feedback","1"
"html-button-response","178","457516","0.0-133.0","CKN_134","134","","","","","","null","<button class=""jspsych-btn""><img src=""stimuli/white_square.png"" style=""width: 200px;height: 200px;""></button>","null","blue","yellow","[""blue"",""yellow"",""high nameability""]","right-left","[""yellow"",""blue""]","4","high nameability","35","right","iti",""
"html-button-response","179","461170","0.0-134.0","CKN_134","134","","","","","","3642","","0","darkgreenblue","pink","[""darkgreenblue"",""pink"",""low nameability""]","right-left","[""pink"",""darkgreenblue""]","4","low nameability","36","right","trigger",""
"html-button-response","180","463314","0.0-135.0-0.0","CKN_134","134","","","","","","2135","<button class=""jspsych-btn""><img src=""stimuli/darkgreenblue.png"" style=""width: 200px;height: 200px;""></button>","1","darkgreenblue","pink","[""darkgreenblue"",""pink"",""low nameability""]","right-left","[""pink"",""darkgreenblue""]","4","low nameability","36","right","response","1"
"html-audio-button-response","181","463522","0.0-135.0-1.0","CKN_134","134","","","","","","null","stimuli/bleep.m4a","null","darkgreenblue","pink","[""darkgreenblue"",""pink"",""low nameability""]","right-left","[""pink"",""darkgreenblue""]","4","low nameability","36","right","audio_feedback","1"
"html-button-response","182","464046","0.0-136.0","CKN_134","134","","","","","","null","<button class=""jspsych-btn""><img src=""stimuli/white_square.png"" style=""width: 200px;height: 200px;""></button>","null","darkgreenblue","pink","[""darkgreenblue"",""pink"",""low nameability""]","right-left","[""pink"",""darkgreenblue""]","4","low nameability","36","right","iti",""
"html-button-response","183","465126","0.0-137.0","CKN_134","134","","","","","","1047","","0","yellow","purple","[""yellow"",""purple"",""high nameability""]","left-right","[""yellow"",""purple"",""high nameability""]","4","high nameability","37","left","trigger",""
"html-button-response","184","467331","0.0-138.0-0.0","CKN_134","134","","","","","","2195","<button class=""jspsych-btn""><img src=""stimuli/yellow.png"" style=""width: 200px;height: 200px;""></button>","0","yellow","purple","[""yellow"",""purple"",""high nameability""]","left-right","[""yellow"",""purple"",""high nameability""]","4","high nameability","37","left","response","1"
"html-audio-button-response","185","467537","0.0-138.0-1.0","CKN_134","134","","","","","","null","stimuli/bleep.m4a","null","yellow","purple","[""yellow"",""purple"",""high nameability""]","left-right","[""yellow"",""purple"",""high nameability""]","4","high nameability","37","left","audio_feedback","1"
"html-button-response","186","468061","0.0-139.0","CKN_134","134","","","","","","null","<button class=""jspsych-btn""><img src=""stimuli/white_square.png"" style=""width: 200px;height: 200px;""></button>","null","yellow","purple","[""yellow"",""purple"",""high nameability""]","left-right","[""yellow"",""purple"",""high nameability""]","4","high nameability","37","left","iti",""
"html-button-response","187","468955","0.0-140.0","CKN_134","134","","","","","","881","","0","darkgreenblue","neonyellow","[""darkgreenblue"",""neonyellow"",""low nameability""]","right-left","[""neonyellow"",""darkgreenblue""]","4","low nameability","38","right","trigger",""
"html-button-response","188","473520","0.0-141.0-0.0","CKN_134","134","","","","","","4558","<button class=""jspsych-btn""><img src=""stimuli/darkgreenblue.png"" style=""width: 200px;height: 200px;""></button>","1","darkgreenblue","neonyellow","[""darkgreenblue"",""neonyellow"",""low nameability""]","right-left","[""neonyellow"",""darkgreenblue""]","4","low nameability","38","right","response","1"
"html-audio-button-response","189","473723","0.0-141.0-1.0","CKN_134","134","","","","","","null","stimuli/bleep.m4a","null","darkgreenblue","neonyellow","[""darkgreenblue"",""neonyellow"",""low nameability""]","right-left","[""neonyellow"",""darkgreenblue""]","4","low nameability","38","right","audio_feedback","1"
"html-button-response","190","474239","0.0-142.0","CKN_134","134","","","","","","null","<button class=""jspsych-btn""><img src=""stimuli/white_square.png"" style=""width: 200px;height: 200px;""></button>","null","darkgreenblue","neonyellow","[""darkgreenblue"",""neonyellow"",""low nameability""]","right-left","[""neonyellow"",""darkgreenblue""]","4","low nameability","38","right","iti",""
"html-button-response","191","475955","0.0-143.0","CKN_134","134","","","","","","1702","","0","lightred","neonyellow","[""lightred"",""neonyellow"",""low nameability""]","left-right","[""lightred"",""neonyellow"",""low nameability""]","4","low nameability","39","left","trigger",""
"html-button-response","192","477273","0.0-144.0-0.0","CKN_134","134","","","","","","1313","<button class=""jspsych-btn""><img src=""stimuli/lightred.png"" style=""width: 200px;height: 200px;""></button>","0","lightred","neonyellow","[""lightred"",""neonyellow"",""low nameability""]","left-right","[""lightred"",""neonyellow"",""low nameability""]","4","low nameability","39","left","response","1"
"html-audio-button-response","193","477474","0.0-144.0-1.0","CKN_134","134","","","","","","null","stimuli/bleep.m4a","null","lightred","neonyellow","[""lightred"",""neonyellow"",""low nameability""]","left-right","[""lightred"",""neonyellow"",""low nameability""]","4","low nameability","39","left","audio_feedback","1"
"html-button-response","194","477994","0.0-145.0","CKN_134","134","","","","","","null","<button class=""jspsych-btn""><img src=""stimuli/white_square.png"" style=""width: 200px;height: 200px;""></button>","null","lightred","neonyellow","[""lightred"",""neonyellow"",""low nameability""]","left-right","[""lightred"",""neonyellow"",""low nameability""]","4","low nameability","39","left","iti",""
"html-button-response","195","479523","0.0-146.0","CKN_134","134","","","","","","1521","","0","mustard","turquoise","[""mustard"",""turquoise"",""low nameability""]","right-left","[""turquoise"",""mustard""]","4","low nameability","40","right","trigger",""
"html-button-response","196","481847","0.0-147.0-0.0","CKN_134","134","","","","","","2316","<button class=""jspsych-btn""><img src=""stimuli/mustard.png"" style=""width: 200px;height: 200px;""></button>","1","mustard","turquoise","[""mustard"",""turquoise"",""low nameability""]","right-left","[""turquoise"",""mustard""]","4","low nameability","40","right","response","1"
"html-audio-button-response","197","482051","0.0-147.0-1.0","CKN_134","134","","","","","","null","stimuli/bleep.m4a","null","mustard","turquoise","[""mustard"",""turquoise"",""low nameability""]","right-left","[""turquoise"",""mustard""]","4","low nameability","40","right","audio_feedback","1"
"html-button-response","198","482563","0.0-148.0","CKN_134","134","","","","","","null","<button class=""jspsych-btn""><img src=""stimuli/white_square.png"" style=""width: 200px;height: 200px;""></button>","null","mustard","turquoise","[""mustard"",""turquoise"",""low nameability""]","right-left","[""turquoise"",""mustard""]","4","low nameability","40","right","iti",""
"pavlovia","199","482644","0.0-149.0","CKN_134","134","","","","","","","","","","","","","","","","","","",""
"pavlovia","200","482653","0.0-150.0","CKN_134","134","","","","","","","","","","","","","","","","","","",""
"html-audio-button-response","201","486183","0.0-151.0","CKN_134","134","","","","","","3621","stimuli/tada.m4a","0","","","","","","","","","","",""
"html-button-response","202","488162","0.0-152.0","CKN_134","134","","","","","","1974","","0","","","","","","","","","","",""
"html-button-response","203","489830","0.0-153.0","CKN_134","134","","","","","","1662","","0","lightred","darkgreenblue","[""lightred"",""darkgreenblue"",""low nameability""]","left-right","[""lightred"",""darkgreenblue"",""low nameability""]","5","low nameability","41","left","trigger",""
"html-button-response","204","493030","0.0-154.0-0.0","CKN_134","134","","","","","","3195","<button class=""jspsych-btn""><img src=""stimuli/lightred.png"" style=""width: 200px;height: 200px;""></button>","0","lightred","darkgreenblue","[""lightred"",""darkgreenblue"",""low nameability""]","left-right","[""lightred"",""darkgreenblue"",""low nameability""]","5","low nameability","41","left","response","1"
"html-audio-button-response","205","493243","0.0-154.0-1.0","CKN_134","134","","","","","","null","stimuli/bleep.m4a","null","lightred","darkgreenblue","[""lightred"",""darkgreenblue"",""low nameability""]","left-right","[""lightred"",""darkgreenblue"",""low nameability""]","5","low nameability","41","left","audio_feedback","1"
"html-button-response","206","493756","0.0-155.0","CKN_134","134","","","","","","null","<button class=""jspsych-btn""><img src=""stimuli/white_square.png"" style=""width: 200px;height: 200px;""></button>","null","lightred","darkgreenblue","[""lightred"",""darkgreenblue"",""low nameability""]","left-right","[""lightred"",""darkgreenblue"",""low nameability""]","5","low nameability","41","left","iti",""
"html-button-response","207","495774","0.0-156.0","CKN_134","134","","","","","","2005","","0","mustard","pink","[""mustard"",""pink"",""low nameability""]","left-right","[""mustard"",""pink"",""low nameability""]","5","low nameability","42","left","trigger",""
"html-button-response","208","496871","0.0-157.0-0.0","CKN_134","134","","","","","","1089","<button class=""jspsych-btn""><img src=""stimuli/mustard.png"" style=""width: 200px;height: 200px;""></button>","0","mustard","pink","[""mustard"",""pink"",""low nameability""]","left-right","[""mustard"",""pink"",""low nameability""]","5","low nameability","42","left","response","1"
"html-audio-button-response","209","497076","0.0-157.0-1.0","CKN_134","134","","","","","","null","stimuli/bleep.m4a","null","mustard","pink","[""mustard"",""pink"",""low nameability""]","left-right","[""mustard"",""pink"",""low nameability""]","5","low nameability","42","left","audio_feedback","1"
"html-button-response","210","497596","0.0-158.0","CKN_134","134","","","","","","null","<button class=""jspsych-btn""><img src=""stimuli/white_square.png"" style=""width: 200px;height: 200px;""></button>","null","mustard","pink","[""mustard"",""pink"",""low nameability""]","left-right","[""mustard"",""pink"",""low nameability""]","5","low nameability","42","left","iti",""
"html-button-response","211","500440","0.0-159.0","CKN_134","134","","","","","","2824","","0","blue","brown","[""blue"",""brown"",""high nameability""]","right-left","[""brown"",""blue""]","5","high nameability","43","right","trigger",""
"html-button-response","212","503798","0.0-160.0-0.0","CKN_134","134","","","","","","3353","<button class=""jspsych-btn""><img src=""stimuli/blue.png"" style=""width: 200px;height: 200px;""></button>","1","blue","brown","[""blue"",""brown"",""high nameability""]","right-left","[""brown"",""blue""]","5","high nameability","43","right","response","1"
"html-audio-button-response","213","504013","0.0-160.0-1.0","CKN_134","134","","","","","","null","stimuli/bleep.m4a","null","blue","brown","[""blue"",""brown"",""high nameability""]","right-left","[""brown"",""blue""]","5","high nameability","43","right","audio_feedback","1"
"html-button-response","214","504532","0.0-161.0","CKN_134","134","","","","","","null","<button class=""jspsych-btn""><img src=""stimuli/white_square.png"" style=""width: 200px;height: 200px;""></button>","null","blue","brown","[""blue"",""brown"",""high nameability""]","right-left","[""brown"",""blue""]","5","high nameability","43","right","iti",""
"html-button-response","215","506105","0.0-162.0","CKN_134","134","","","","","","1562","","0","red","blue","[""red"",""blue"",""high nameability""]","right-left","[""blue"",""red""]","5","high nameability","44","right","trigger",""
"html-button-response","216","508206","0.0-163.0-0.0","CKN_134","134","","","","","","2093","<button class=""jspsych-btn""><img src=""stimuli/red.png"" style=""width: 200px;height: 200px;""></button>","1","red","blue","[""red"",""blue"",""high nameability""]","right-left","[""blue"",""red""]","5","high nameability","44","right","response","1"
"html-audio-button-response","217","508409","0.0-163.0-1.0","CKN_134","134","","","","","","null","stimuli/bleep.m4a","null","red","blue","[""red"",""blue"",""high nameability""]","right-left","[""blue"",""red""]","5","high nameability","44","right","audio_feedback","1"
"html-button-response","218","508928","0.0-164.0","CKN_134","134","","","","","","null","<button class=""jspsych-btn""><img src=""stimuli/white_square.png"" style=""width: 200px;height: 200px;""></button>","null","red","blue","[""red"",""blue"",""high nameability""]","right-left","[""blue"",""red""]","5","high nameability","44","right","iti",""
"html-button-response","219","511332","0.0-165.0","CKN_134","134","","","","","","2374","","0","yellow","red","[""yellow"",""red"",""high nameability""]","left-right","[""yellow"",""red"",""high nameability""]","5","high nameability","45","left","trigger",""
"html-button-response","220","517890","0.0-166.0-0.0","CKN_134","134","","","","","","6551","<button class=""jspsych-btn""><img src=""stimuli/yellow.png"" style=""width: 200px;height: 200px;""></button>","0","yellow","red","[""yellow"",""red"",""high nameability""]","left-right","[""yellow"",""red"",""high nameability""]","5","high nameability","45","left","response","1"
"html-audio-button-response","221","518110","0.0-166.0-1.0","CKN_134","134","","","","","","null","stimuli/bleep.m4a","null","yellow","red","[""yellow"",""red"",""high nameability""]","left-right","[""yellow"",""red"",""high nameability""]","5","high nameability","45","left","audio_feedback","1"
"html-button-response","222","518626","0.0-167.0","CKN_134","134","","","","","","null","<button class=""jspsych-btn""><img src=""stimuli/white_square.png"" style=""width: 200px;height: 200px;""></button>","null","yellow","red","[""yellow"",""red"",""high nameability""]","left-right","[""yellow"",""red"",""high nameability""]","5","high nameability","45","left","iti",""
"html-button-response","223","523212","0.0-168.0","CKN_134","134","","","","","","4575","","0","purple","yellow","[""purple"",""yellow"",""high nameability""]","right-left","[""yellow"",""purple""]","5","high nameability","46","right","trigger",""
"html-button-response","224","524652","0.0-169.0-0.0","CKN_134","134","","","","","","1429","<button class=""jspsych-btn""><img src=""stimuli/purple.png"" style=""width: 200px;height: 200px;""></button>","1","purple","yellow","[""purple"",""yellow"",""high nameability""]","right-left","[""yellow"",""purple""]","5","high nameability","46","right","response","1"
"html-audio-button-response","225","524859","0.0-169.0-1.0","CKN_134","134","","","","","","null","stimuli/bleep.m4a","null","purple","yellow","[""purple"",""yellow"",""high nameability""]","right-left","[""yellow"",""purple""]","5","high nameability","46","right","audio_feedback","1"
"html-button-response","226","525372","0.0-170.0","CKN_134","134","","","","","","null","<button class=""jspsych-btn""><img src=""stimuli/white_square.png"" style=""width: 200px;height: 200px;""></button>","null","purple","yellow","[""purple"",""yellow"",""high nameability""]","right-left","[""yellow"",""purple""]","5","high nameability","46","right","iti",""
"html-button-response","227","526581","0.0-171.0","CKN_134","134","","","","","","1194","","0","red","yellow","[""red"",""yellow"",""high nameability""]","right-left","[""yellow"",""red""]","5","high nameability","47","right","trigger",""
"html-button-response","228","528804","0.0-172.0-0.0","CKN_134","134","","","","","","2216","<button class=""jspsych-btn""><img src=""stimuli/red.png"" style=""width: 200px;height: 200px;""></button>","1","red","yellow","[""red"",""yellow"",""high nameability""]","right-left","[""yellow"",""red""]","5","high nameability","47","right","response","1"
"html-audio-button-response","229","529010","0.0-172.0-1.0","CKN_134","134","","","","","","null","stimuli/bleep.m4a","null","red","yellow","[""red"",""yellow"",""high nameability""]","right-left","[""yellow"",""red""]","5","high nameability","47","right","audio_feedback","1"
"html-button-response","230","529525","0.0-173.0","CKN_134","134","","","","","","null","<button class=""jspsych-btn""><img src=""stimuli/white_square.png"" style=""width: 200px;height: 200px;""></button>","null","red","yellow","[""red"",""yellow"",""high nameability""]","right-left","[""yellow"",""red""]","5","high nameability","47","right","iti",""
"html-button-response","231","533149","0.0-174.0","CKN_134","134","","","","","","3611","","0","mustard","neonyellow","[""mustard"",""neonyellow"",""low nameability""]","right-left","[""neonyellow"",""mustard""]","5","low nameability","48","right","trigger",""
"html-button-response","232","536140","0.0-175.0-0.0","CKN_134","134","","","","","","2983","<button class=""jspsych-btn""><img src=""stimuli/mustard.png"" style=""width: 200px;height: 200px;""></button>","1","mustard","neonyellow","[""mustard"",""neonyellow"",""low nameability""]","right-left","[""neonyellow"",""mustard""]","5","low nameability","48","right","response","1"
"html-audio-button-response","233","536347","0.0-175.0-1.0","CKN_134","134","","","","","","null","stimuli/bleep.m4a","null","mustard","neonyellow","[""mustard"",""neonyellow"",""low nameability""]","right-left","[""neonyellow"",""mustard""]","5","low nameability","48","right","audio_feedback","1"
"html-button-response","234","536866","0.0-176.0","CKN_134","134","","","","","","null","<button class=""jspsych-btn""><img src=""stimuli/white_square.png"" style=""width: 200px;height: 200px;""></button>","null","mustard","neonyellow","[""mustard"",""neonyellow"",""low nameability""]","right-left","[""neonyellow"",""mustard""]","5","low nameability","48","right","iti",""
"html-button-response","235","539447","0.0-177.0","CKN_134","134","","","","","","2568","","0","mustard","darkgreenblue","[""mustard"",""darkgreenblue"",""low nameability""]","left-right","[""mustard"",""darkgreenblue"",""low nameability""]","5","low nameability","49","left","trigger",""
"html-button-response","236","542207","0.0-178.0-0.0","CKN_134","134","","","","","","2748","<button class=""jspsych-btn""><img src=""stimuli/mustard.png"" style=""width: 200px;height: 200px;""></button>","0","mustard","darkgreenblue","[""mustard"",""darkgreenblue"",""low nameability""]","left-right","[""mustard"",""darkgreenblue"",""low nameability""]","5","low nameability","49","left","response","1"
"html-audio-button-response","237","542425","0.0-178.0-1.0","CKN_134","134","","","","","","null","stimuli/bleep.m4a","null","mustard","darkgreenblue","[""mustard"",""darkgreenblue"",""low nameability""]","left-right","[""mustard"",""darkgreenblue"",""low nameability""]","5","low nameability","49","left","audio_feedback","1"
"html-button-response","238","542958","0.0-179.0","CKN_134","134","","","","","","null","<button class=""jspsych-btn""><img src=""stimuli/white_square.png"" style=""width: 200px;height: 200px;""></button>","null","mustard","darkgreenblue","[""mustard"",""darkgreenblue"",""low nameability""]","left-right","[""mustard"",""darkgreenblue"",""low nameability""]","5","low nameability","49","left","iti",""
"html-button-response","239","546374","0.0-180.0","CKN_134","134","","","","","","3394","","0","yellow","blue","[""yellow"",""blue"",""high nameability""]","right-left","[""blue"",""yellow""]","5","high nameability","50","right","trigger",""
"html-button-response","240","549355","0.0-181.0-0.0","CKN_134","134","","","","","","2973","<button class=""jspsych-btn""><img src=""stimuli/yellow.png"" style=""width: 200px;height: 200px;""></button>","1","yellow","blue","[""yellow"",""blue"",""high nameability""]","right-left","[""blue"",""yellow""]","5","high nameability","50","right","response","1"
"html-audio-button-response","241","549563","0.0-181.0-1.0","CKN_134","134","","","","","","null","stimuli/bleep.m4a","null","yellow","blue","[""yellow"",""blue"",""high nameability""]","right-left","[""blue"",""yellow""]","5","high nameability","50","right","audio_feedback","1"
"html-button-response","242","550080","0.0-182.0","CKN_134","134","","","","","","null","<button class=""jspsych-btn""><img src=""stimuli/white_square.png"" style=""width: 200px;height: 200px;""></button>","null","yellow","blue","[""yellow"",""blue"",""high nameability""]","right-left","[""blue"",""yellow""]","5","high nameability","50","right","iti",""
"pavlovia","243","550157","0.0-183.0","CKN_134","134","","","","","","","","","","","","","","","","","","",""
"pavlovia","244","550169","0.0-184.0","CKN_134","134","","","","","","","","","","","","","","","","","","",""
"html-audio-button-response","245","554420","0.0-185.0","CKN_134","134","","","","","","4339","stimuli/tada.m4a","0","","","","","","","","","","",""
"html-button-response","246","554958","0.0-186.0","CKN_134","134","","","","","","533","","0","","","","","","","","","","",""
"html-button-response","247","558119","0.0-187.0","CKN_134","134","","","","","","3153","","0","purple","orange","[""purple"",""orange"",""high nameability""]","right-left","[""orange"",""purple""]","6","high nameability","51","right","trigger",""
"html-button-response","248","559353","0.0-188.0-0.0","CKN_134","134","","","","","","1227","<button class=""jspsych-btn""><img src=""stimuli/purple.png"" style=""width: 200px;height: 200px;""></button>","1","purple","orange","[""purple"",""orange"",""high nameability""]","right-left","[""orange"",""purple""]","6","high nameability","51","right","response","1"
"html-audio-button-response","249","559555","0.0-188.0-1.0","CKN_134","134","","","","","","null","stimuli/bleep.m4a","null","purple","orange","[""purple"",""orange"",""high nameability""]","right-left","[""orange"",""purple""]","6","high nameability","51","right","audio_feedback","1"
"html-button-response","250","560070","0.0-189.0","CKN_134","134","","","","","","null","<button class=""jspsych-btn""><img src=""stimuli/white_square.png"" style=""width: 200px;height: 200px;""></button>","null","purple","orange","[""purple"",""orange"",""high nameability""]","right-left","[""orange"",""purple""]","6","high nameability","51","right","iti",""
"html-button-response","251","561181","0.0-190.0","CKN_134","134","","","","","","1100","","0","red","brown","[""red"",""brown"",""high nameability""]","left-right","[""red"",""brown"",""high nameability""]","6","high nameability","52","left","trigger",""
"html-button-response","252","568939","0.0-191.0-0.0","CKN_134","134","","","","","","7748","<button class=""jspsych-btn""><img src=""stimuli/red.png"" style=""width: 200px;height: 200px;""></button>","0","red","brown","[""red"",""brown"",""high nameability""]","left-right","[""red"",""brown"",""high nameability""]","6","high nameability","52","left","response","1"
"html-audio-button-response","253","569153","0.0-191.0-1.0","CKN_134","134","","","","","","null","stimuli/bleep.m4a","null","red","brown","[""red"",""brown"",""high nameability""]","left-right","[""red"",""brown"",""high nameability""]","6","high nameability","52","left","audio_feedback","1"
"html-button-response","254","569665","0.0-192.0","CKN_134","134","","","","","","null","<button class=""jspsych-btn""><img src=""stimuli/white_square.png"" style=""width: 200px;height: 200px;""></button>","null","red","brown","[""red"",""brown"",""high nameability""]","left-right","[""red"",""brown"",""high nameability""]","6","high nameability","52","left","iti",""
"html-button-response","255","571336","0.0-193.0","CKN_134","134","","","","","","1658","","0","orange","red","[""orange"",""red"",""high nameability""]","left-right","[""orange"",""red"",""high nameability""]","6","high nameability","53","left","trigger",""
"html-button-response","256","574225","0.0-194.0-0.0","CKN_134","134","","","","","","2882","<button class=""jspsych-btn""><img src=""stimuli/orange.png"" style=""width: 200px;height: 200px;""></button>","0","orange","red","[""orange"",""red"",""high nameability""]","left-right","[""orange"",""red"",""high nameability""]","6","high nameability","53","left","response","1"
"html-audio-button-response","257","574424","0.0-194.0-1.0","CKN_134","134","","","","","","null","stimuli/bleep.m4a","null","orange","red","[""orange"",""red"",""high nameability""]","left-right","[""orange"",""red"",""high nameability""]","6","high nameability","53","left","audio_feedback","1"
"html-button-response","258","574938","0.0-195.0","CKN_134","134","","","","","","null","<button class=""jspsych-btn""><img src=""stimuli/white_square.png"" style=""width: 200px;height: 200px;""></button>","null","orange","red","[""orange"",""red"",""high nameability""]","left-right","[""orange"",""red"",""high nameability""]","6","high nameability","53","left","iti",""
"html-button-response","259","575835","0.0-196.0","CKN_134","134","","","","","","887","","0","pink","turquoise","[""pink"",""turquoise"",""low nameability""]","left-right","[""pink"",""turquoise"",""low nameability""]","6","low nameability","54","left","trigger",""
"html-button-response","260","577373","0.0-197.0-0.0","CKN_134","134","","","","","","1531","<button class=""jspsych-btn""><img src=""stimuli/pink.png"" style=""width: 200px;height: 200px;""></button>","0","pink","turquoise","[""pink"",""turquoise"",""low nameability""]","left-right","[""pink"",""turquoise"",""low nameability""]","6","low nameability","54","left","response","1"
"html-audio-button-response","261","577578","0.0-197.0-1.0","CKN_134","134","","","","","","null","stimuli/bleep.m4a","null","pink","turquoise","[""pink"",""turquoise"",""low nameability""]","left-right","[""pink"",""turquoise"",""low nameability""]","6","low nameability","54","left","audio_feedback","1"
"html-button-response","262","578094","0.0-198.0","CKN_134","134","","","","","","null","<button class=""jspsych-btn""><img src=""stimuli/white_square.png"" style=""width: 200px;height: 200px;""></button>","null","pink","turquoise","[""pink"",""turquoise"",""low nameability""]","left-right","[""pink"",""turquoise"",""low nameability""]","6","low nameability","54","left","iti",""
"html-button-response","263","579516","0.0-199.0","CKN_134","134","","","","","","1408","","0","turquoise","mustard","[""turquoise"",""mustard"",""low nameability""]","left-right","[""turquoise"",""mustard"",""low nameability""]","6","low nameability","55","left","trigger",""
"html-button-response","264","580640","0.0-200.0-0.0","CKN_134","134","","","","","","1117","<button class=""jspsych-btn""><img src=""stimuli/turquoise.png"" style=""width: 200px;height: 200px;""></button>","0","turquoise","mustard","[""turquoise"",""mustard"",""low nameability""]","left-right","[""turquoise"",""mustard"",""low nameability""]","6","low nameability","55","left","response","1"
"html-audio-button-response","265","580857","0.0-200.0-1.0","CKN_134","134","","","","","","null","stimuli/bleep.m4a","null","turquoise","mustard","[""turquoise"",""mustard"",""low nameability""]","left-right","[""turquoise"",""mustard"",""low nameability""]","6","low nameability","55","left","audio_feedback","1"
"html-button-response","266","581369","0.0-201.0","CKN_134","134","","","","","","null","<button class=""jspsych-btn""><img src=""stimuli/white_square.png"" style=""width: 200px;height: 200px;""></button>","null","turquoise","mustard","[""turquoise"",""mustard"",""low nameability""]","left-right","[""turquoise"",""mustard"",""low nameability""]","6","low nameability","55","left","iti",""
"html-button-response","267","583800","0.0-202.0","CKN_134","134","","","","","","2418","","0","turquoise","neonyellow","[""turquoise"",""neonyellow"",""low nameability""]","right-left","[""neonyellow"",""turquoise""]","6","low nameability","56","right","trigger",""
"html-button-response","268","585224","0.0-203.0-0.0","CKN_134","134","","","","","","1415","<button class=""jspsych-btn""><img src=""stimuli/turquoise.png"" style=""width: 200px;height: 200px;""></button>","1","turquoise","neonyellow","[""turquoise"",""neonyellow"",""low nameability""]","right-left","[""neonyellow"",""turquoise""]","6","low nameability","56","right","response","1"
"html-audio-button-response","269","585436","0.0-203.0-1.0","CKN_134","134","","","","","","null","stimuli/bleep.m4a","null","turquoise","neonyellow","[""turquoise"",""neonyellow"",""low nameability""]","right-left","[""neonyellow"",""turquoise""]","6","low nameability","56","right","audio_feedback","1"
"html-button-response","270","585949","0.0-204.0","CKN_134","134","","","","","","null","<button class=""jspsych-btn""><img src=""stimuli/white_square.png"" style=""width: 200px;height: 200px;""></button>","null","turquoise","neonyellow","[""turquoise"",""neonyellow"",""low nameability""]","right-left","[""neonyellow"",""turquoise""]","6","low nameability","56","right","iti",""
"html-button-response","271","586873","0.0-205.0","CKN_134","134","","","","","","910","","0","pink","mustard","[""pink"",""mustard"",""low nameability""]","left-right","[""pink"",""mustard"",""low nameability""]","6","low nameability","57","left","trigger",""
"html-button-response","272","589279","0.0-206.0-0.0","CKN_134","134","","","","","","2396","<button class=""jspsych-btn""><img src=""stimuli/pink.png"" style=""width: 200px;height: 200px;""></button>","0","pink","mustard","[""pink"",""mustard"",""low nameability""]","left-right","[""pink"",""mustard"",""low nameability""]","6","low nameability","57","left","response","1"
"html-audio-button-response","273","589482","0.0-206.0-1.0","CKN_134","134","","","","","","null","stimuli/bleep.m4a","null","pink","mustard","[""pink"",""mustard"",""low nameability""]","left-right","[""pink"",""mustard"",""low nameability""]","6","low nameability","57","left","audio_feedback","1"
"html-button-response","274","589999","0.0-207.0","CKN_134","134","","","","","","null","<button class=""jspsych-btn""><img src=""stimuli/white_square.png"" style=""width: 200px;height: 200px;""></button>","null","pink","mustard","[""pink"",""mustard"",""low nameability""]","left-right","[""pink"",""mustard"",""low nameability""]","6","low nameability","57","left","iti",""
"html-button-response","275","590965","0.0-208.0","CKN_134","134","","","","","","952","","0","brown","yellow","[""brown"",""yellow"",""high nameability""]","right-left","[""yellow"",""brown""]","6","high nameability","58","right","trigger",""
"html-button-response","276","593429","0.0-209.0-0.0","CKN_134","134","","","","","","2457","<button class=""jspsych-btn""><img src=""stimuli/brown.png"" style=""width: 200px;height: 200px;""></button>","1","brown","yellow","[""brown"",""yellow"",""high nameability""]","right-left","[""yellow"",""brown""]","6","high nameability","58","right","response","1"
"html-audio-button-response","277","593636","0.0-209.0-1.0","CKN_134","134","","","","","","null","stimuli/bleep.m4a","null","brown","yellow","[""brown"",""yellow"",""high nameability""]","right-left","[""yellow"",""brown""]","6","high nameability","58","right","audio_feedback","1"
"html-button-response","278","594153","0.0-210.0","CKN_134","134","","","","","","null","<button class=""jspsych-btn""><img src=""stimuli/white_square.png"" style=""width: 200px;height: 200px;""></button>","null","brown","yellow","[""brown"",""yellow"",""high nameability""]","right-left","[""yellow"",""brown""]","6","high nameability","58","right","iti",""
"html-button-response","279","598391","0.0-211.0","CKN_134","134","","","","","","4220","","0","red","purple","[""red"",""purple"",""high nameability""]","right-left","[""purple"",""red""]","6","high nameability","59","right","trigger",""
"html-button-response","280","600318","0.0-212.0-0.0","CKN_134","134","","","","","","1919","<button class=""jspsych-btn""><img src=""stimuli/red.png"" style=""width: 200px;height: 200px;""></button>","1","red","purple","[""red"",""purple"",""high nameability""]","right-left","[""purple"",""red""]","6","high nameability","59","right","response","1"
"html-audio-button-response","281","600527","0.0-212.0-1.0","CKN_134","134","","","","","","null","stimuli/bleep.m4a","null","red","purple","[""red"",""purple"",""high nameability""]","right-left","[""purple"",""red""]","6","high nameability","59","right","audio_feedback","1"
"html-button-response","282","601047","0.0-213.0","CKN_134","134","","","","","","null","<button class=""jspsych-btn""><img src=""stimuli/white_square.png"" style=""width: 200px;height: 200px;""></button>","null","red","purple","[""red"",""purple"",""high nameability""]","right-left","[""purple"",""red""]","6","high nameability","59","right","iti",""
"html-button-response","283","602142","0.0-214.0","CKN_134","134","","","","","","1079","","0","lightred","mustard","[""lightred"",""mustard"",""low nameability""]","left-right","[""lightred"",""mustard"",""low nameability""]","6","low nameability","60","left","trigger",""
"html-button-response","284","603790","0.0-215.0-0.0","CKN_134","134","","","","","","1643","<button class=""jspsych-btn""><img src=""stimuli/lightred.png"" style=""width: 200px;height: 200px;""></button>","0","lightred","mustard","[""lightred"",""mustard"",""low nameability""]","left-right","[""lightred"",""mustard"",""low nameability""]","6","low nameability","60","left","response","1"
"html-audio-button-response","285","603994","0.0-215.0-1.0","CKN_134","134","","","","","","null","stimuli/bleep.m4a","null","lightred","mustard","[""lightred"",""mustard"",""low nameability""]","left-right","[""lightred"",""mustard"",""low nameability""]","6","low nameability","60","left","audio_feedback","1"
"html-button-response","286","604517","0.0-216.0","CKN_134","134","","","","","","null","<button class=""jspsych-btn""><img src=""stimuli/white_square.png"" style=""width: 200px;height: 200px;""></button>","null","lightred","mustard","[""lightred"",""mustard"",""low nameability""]","left-right","[""lightred"",""mustard"",""low nameability""]","6","low nameability","60","left","iti",""
