"trial_type","trial_index","time_elapsed","internal_node_id","subject_id","seed","success","timeout","failed_images","failed_audio","failed_video","rt","stimulus","response","target","foil","choices","combination_order","choices_in_order","round","condition","trial_counter","target_location","trial_kind","correct"
"pavlovia","0","21","0.0-0.0","CKN_127","127","","","","","","","","","","","","","","","","","","",""
"preload","1","996","0.0-1.0","CKN_127","127","true","false","[]","[]","[]","","","","","","","","","","","","","",""
"fullscreen","2","3233","0.0-2.0","CKN_127","127","true","","","","","","","","","","","","","","","","","",""
"html-button-response","3","12497","0.0-3.0","CKN_127","127","","","","","","9244","","0","","","","","","","","","","",""
"html-button-response","4","15831","0.0-4.0","CKN_127","127","","","","","","3320","","0","star","square","[""square"",""star""]","left-right","[""square"",""star""]","1","practice","1","right","trigger",""
"html-button-response","5","19556","0.0-5.0-0.0","CKN_127","127","","","","","","3715","<button class=""jspsych-btn""><img src=""stimuli/star.png"" style=""width: 200px;height: 200px;""></button>","1","star","square","[""square"",""star""]","left-right","[""square"",""star""]","1","practice","1","right","response","1"
"html-audio-button-response","6","19785","0.0-5.0-1.0","CKN_127","127","","","","","","null","stimuli/bleep.m4a","null","star","square","[""square"",""star""]","left-right","[""square"",""star""]","1","practice","1","right","audio_feedback","1"
"html-button-response","7","20307","0.0-6.0","CKN_127","127","","","","","","null","<button class=""jspsych-btn""><img src=""stimuli/white_square.png"" style=""width: 200px;height: 200px;""></button>","null","star","square","[""square"",""star""]","left-right","[""square"",""star""]","1","practice","1","right","iti",""
"html-button-response","8","24377","0.0-7.0","CKN_127","127","","","","","","4057","","0","triangle","pentagram","[""triangle"",""pentagram""]","left-right","[""triangle"",""pentagram""]","1","practice","1","left","trigger",""
"html-button-response","9","31780","0.0-8.0-0.0","CKN_127","127","","","","","","7394","<button class=""jspsych-btn""><img src=""stimuli/triangle.png"" style=""width: 200px;height: 200px;""></button>","0","triangle","pentagram","[""triangle"",""pentagram""]","left-right","[""triangle"",""pentagram""]","1","practice","1","left","response","1"
"html-audio-button-response","10","31988","0.0-8.0-1.0","CKN_127","127","","","","","","null","stimuli/bleep.m4a","null","triangle","pentagram","[""triangle"",""pentagram""]","left-right","[""triangle"",""pentagram""]","1","practice","1","left","audio_feedback","1"
"html-button-response","11","32500","0.0-9.0","CKN_127","127","","","","","","null","<button class=""jspsych-btn""><img src=""stimuli/white_square.png"" style=""width: 200px;height: 200px;""></button>","null","triangle","pentagram","[""triangle"",""pentagram""]","left-right","[""triangle"",""pentagram""]","1","practice","1","left","iti",""
"html-button-response","12","34602","0.0-10.0","CKN_127","127","","","","","","2090","","0","diamond","rectangle","[""rectangle"",""diamond""]","left-right","[""rectangle"",""diamond""]","1","practice","1","right","trigger",""
"html-button-response","13","36679","0.0-11.0-0.0","CKN_127","127","","","","","","2070","<button class=""jspsych-btn""><img src=""stimuli/diamond.png"" style=""width: 200px;height: 200px;""></button>","1","diamond","rectangle","[""rectangle"",""diamond""]","left-right","[""rectangle"",""diamond""]","1","practice","1","right","response","1"
"html-audio-button-response","14","36882","0.0-11.0-1.0","CKN_127","127","","","","","","null","stimuli/bleep.m4a","null","diamond","rectangle","[""rectangle"",""diamond""]","left-right","[""rectangle"",""diamond""]","1","practice","1","right","audio_feedback","1"
"html-button-response","15","37394","0.0-12.0","CKN_127","127","","","","","","null","<button class=""jspsych-btn""><img src=""stimuli/white_square.png"" style=""width: 200px;height: 200px;""></button>","null","diamond","rectangle","[""rectangle"",""diamond""]","left-right","[""rectangle"",""diamond""]","1","practice","1","right","iti",""
"html-button-response","16","40157","0.0-13.0","CKN_127","127","","","","","","2748","","0","pentagram","star","[""pentagram"",""star""]","left-right","[""pentagram"",""star""]","1","practice","1","left","trigger",""
"html-button-response","17","41671","0.0-14.0-0.0","CKN_127","127","","","","","","1508","<button class=""jspsych-btn""><img src=""stimuli/pentagram.png"" style=""width: 200px;height: 200px;""></button>","0","pentagram","star","[""pentagram"",""star""]","left-right","[""pentagram"",""star""]","1","practice","1","left","response","1"
"html-audio-button-response","18","41881","0.0-14.0-1.0","CKN_127","127","","","","","","null","stimuli/bleep.m4a","null","pentagram","star","[""pentagram"",""star""]","left-right","[""pentagram"",""star""]","1","practice","1","left","audio_feedback","1"
"html-button-response","19","42396","0.0-15.0","CKN_127","127","","","","","","null","<button class=""jspsych-btn""><img src=""stimuli/white_square.png"" style=""width: 200px;height: 200px;""></button>","null","pentagram","star","[""pentagram"",""star""]","left-right","[""pentagram"",""star""]","1","practice","1","left","iti",""
"html-button-response","20","46658","0.0-16.0","CKN_127","127","","","","","","4255","","0","","","","","","","","","","",""
"html-button-response","21","48894","0.0-17.0","CKN_127","127","","","","","","2230","","0","purple","brown","[""purple"",""brown"",""high nameability""]","left-right","[""purple"",""brown"",""high nameability""]","1","high nameability","1","left","trigger",""
"html-button-response","22","51001","0.0-18.0-0.0","CKN_127","127","","","","","","2097","<button class=""jspsych-btn""><img src=""stimuli/purple.png"" style=""width: 200px;height: 200px;""></button>","0","purple","brown","[""purple"",""brown"",""high nameability""]","left-right","[""purple"",""brown"",""high nameability""]","1","high nameability","1","left","response","1"
"html-audio-button-response","23","51203","0.0-18.0-1.0","CKN_127","127","","","","","","null","stimuli/bleep.m4a","null","purple","brown","[""purple"",""brown"",""high nameability""]","left-right","[""purple"",""brown"",""high nameability""]","1","high nameability","1","left","audio_feedback","1"
"html-button-response","24","51716","0.0-19.0","CKN_127","127","","","","","","null","<button class=""jspsych-btn""><img src=""stimuli/white_square.png"" style=""width: 200px;height: 200px;""></button>","null","purple","brown","[""purple"",""brown"",""high nameability""]","left-right","[""purple"",""brown"",""high nameability""]","1","high nameability","1","left","iti",""
"html-button-response","25","58130","0.0-20.0","CKN_127","127","","","","","","6396","","0","yellow","orange","[""yellow"",""orange"",""high nameability""]","right-left","[""orange"",""yellow""]","1","high nameability","2","right","trigger",""
"html-button-response","26","60011","0.0-21.0-0.0","CKN_127","127","","","","","","1861","<button class=""jspsych-btn""><img src=""stimuli/yellow.png"" style=""width: 200px;height: 200px;""></button>","1","yellow","orange","[""yellow"",""orange"",""high nameability""]","right-left","[""orange"",""yellow""]","1","high nameability","2","right","response","1"
"html-audio-button-response","27","60228","0.0-21.0-1.0","CKN_127","127","","","","","","null","stimuli/bleep.m4a","null","yellow","orange","[""yellow"",""orange"",""high nameability""]","right-left","[""orange"",""yellow""]","1","high nameability","2","right","audio_feedback","1"
"html-button-response","28","60774","0.0-22.0","CKN_127","127","","","","","","null","<button class=""jspsych-btn""><img src=""stimuli/white_square.png"" style=""width: 200px;height: 200px;""></button>","null","yellow","orange","[""yellow"",""orange"",""high nameability""]","right-left","[""orange"",""yellow""]","1","high nameability","2","right","iti",""
"html-button-response","29","62844","0.0-23.0","CKN_127","127","","","","","","2052","","0","darkgreenblue","lightred","[""darkgreenblue"",""lightred"",""low nameability""]","right-left","[""lightred"",""darkgreenblue""]","1","low nameability","3","right","trigger",""
"html-button-response","30","64628","0.0-24.0-0.0","CKN_127","127","","","","","","1772","<button class=""jspsych-btn""><img src=""stimuli/darkgreenblue.png"" style=""width: 200px;height: 200px;""></button>","1","darkgreenblue","lightred","[""darkgreenblue"",""lightred"",""low nameability""]","right-left","[""lightred"",""darkgreenblue""]","1","low nameability","3","right","response","1"
"html-audio-button-response","31","64844","0.0-24.0-1.0","CKN_127","127","","","","","","null","stimuli/bleep.m4a","null","darkgreenblue","lightred","[""darkgreenblue"",""lightred"",""low nameability""]","right-left","[""lightred"",""darkgreenblue""]","1","low nameability","3","right","audio_feedback","1"
"html-button-response","32","65371","0.0-25.0","CKN_127","127","","","","","","null","<button class=""jspsych-btn""><img src=""stimuli/white_square.png"" style=""width: 200px;height: 200px;""></button>","null","darkgreenblue","lightred","[""darkgreenblue"",""lightred"",""low nameability""]","right-left","[""lightred"",""darkgreenblue""]","1","low nameability","3","right","iti",""
"html-button-response","33","67022","0.0-26.0","CKN_127","127","","","","","","1636","","0","brown","yellow","[""brown"",""yellow"",""high nameability""]","right-left","[""yellow"",""brown""]","1","high nameability","4","right","trigger",""
"html-button-response","34","68661","0.0-27.0-0.0","CKN_127","127","","","","","","1627","<button class=""jspsych-btn""><img src=""stimuli/brown.png"" style=""width: 200px;height: 200px;""></button>","1","brown","yellow","[""brown"",""yellow"",""high nameability""]","right-left","[""yellow"",""brown""]","1","high nameability","4","right","response","1"
"html-audio-button-response","35","68876","0.0-27.0-1.0","CKN_127","127","","","","","","null","stimuli/bleep.m4a","null","brown","yellow","[""brown"",""yellow"",""high nameability""]","right-left","[""yellow"",""brown""]","1","high nameability","4","right","audio_feedback","1"
"html-button-response","36","69409","0.0-28.0","CKN_127","127","","","","","","null","<button class=""jspsych-btn""><img src=""stimuli/white_square.png"" style=""width: 200px;height: 200px;""></button>","null","brown","yellow","[""brown"",""yellow"",""high nameability""]","right-left","[""yellow"",""brown""]","1","high nameability","4","right","iti",""
"html-button-response","37","70959","0.0-29.0","CKN_127","127","","","","","","1532","","0","orange","brown","[""orange"",""brown"",""high nameability""]","left-right","[""orange"",""brown"",""high nameability""]","1","high nameability","5","left","trigger",""
"html-button-response","38","74545","0.0-30.0-0.0","CKN_127","127","","","","","","3582","<button class=""jspsych-btn""><img src=""stimuli/orange.png"" style=""width: 200px;height: 200px;""></button>","0","orange","brown","[""orange"",""brown"",""high nameability""]","left-right","[""orange"",""brown"",""high nameability""]","1","high nameability","5","left","response","1"
"html-audio-button-response","39","74754","0.0-30.0-1.0","CKN_127","127","","","","","","null","stimuli/bleep.m4a","null","orange","brown","[""orange"",""brown"",""high nameability""]","left-right","[""orange"",""brown"",""high nameability""]","1","high nameability","5","left","audio_feedback","1"
"html-button-response","40","75273","0.0-31.0","CKN_127","127","","","","","","197","<button class=""jspsych-btn""><img src=""stimuli/white_square.png"" style=""width: 200px;height: 200px;""></button>","0","orange","brown","[""orange"",""brown"",""high nameability""]","left-right","[""orange"",""brown"",""high nameability""]","1","high nameability","5","left","iti",""
"html-button-response","41","76548","0.0-32.0","CKN_127","127","","","","","","1262","","0","orange","blue","[""orange"",""blue"",""high nameability""]","left-right","[""orange"",""blue"",""high nameability""]","1","high nameability","6","left","trigger",""
"html-button-response","42","78431","0.0-33.0-0.0","CKN_127","127","","","","","","1874","<button class=""jspsych-btn""><img src=""stimuli/orange.png"" style=""width: 200px;height: 200px;""></button>","0","orange","blue","[""orange"",""blue"",""high nameability""]","left-right","[""orange"",""blue"",""high nameability""]","1","high nameability","6","left","response","1"
"html-audio-button-response","43","78634","0.0-33.0-1.0","CKN_127","127","","","","","","null","stimuli/bleep.m4a","null","orange","blue","[""orange"",""blue"",""high nameability""]","left-right","[""orange"",""blue"",""high nameability""]","1","high nameability","6","left","audio_feedback","1"
"html-button-response","44","79158","0.0-34.0","CKN_127","127","","","","","","null","<button class=""jspsych-btn""><img src=""stimuli/white_square.png"" style=""width: 200px;height: 200px;""></button>","null","orange","blue","[""orange"",""blue"",""high nameability""]","left-right","[""orange"",""blue"",""high nameability""]","1","high nameability","6","left","iti",""
"html-button-response","45","80322","0.0-35.0","CKN_127","127","","","","","","1153","","0","lightred","pink","[""lightred"",""pink"",""low nameability""]","left-right","[""lightred"",""pink"",""low nameability""]","1","low nameability","7","left","trigger",""
"html-button-response","46","81660","0.0-36.0-0.0","CKN_127","127","","","","","","1333","<button class=""jspsych-btn""><img src=""stimuli/lightred.png"" style=""width: 200px;height: 200px;""></button>","0","lightred","pink","[""lightred"",""pink"",""low nameability""]","left-right","[""lightred"",""pink"",""low nameability""]","1","low nameability","7","left","response","1"
"html-audio-button-response","47","81861","0.0-36.0-1.0","CKN_127","127","","","","","","null","stimuli/bleep.m4a","null","lightred","pink","[""lightred"",""pink"",""low nameability""]","left-right","[""lightred"",""pink"",""low nameability""]","1","low nameability","7","left","audio_feedback","1"
"html-button-response","48","82376","0.0-37.0","CKN_127","127","","","","","","null","<button class=""jspsych-btn""><img src=""stimuli/white_square.png"" style=""width: 200px;height: 200px;""></button>","null","lightred","pink","[""lightred"",""pink"",""low nameability""]","left-right","[""lightred"",""pink"",""low nameability""]","1","low nameability","7","left","iti",""
"html-button-response","49","83744","0.0-38.0","CKN_127","127","","","","","","1350","","0","red","orange","[""red"",""orange"",""high nameability""]","right-left","[""orange"",""red""]","1","high nameability","8","right","trigger",""
"html-button-response","50","85106","0.0-39.0-0.0","CKN_127","127","","","","","","1356","<button class=""jspsych-btn""><img src=""stimuli/red.png"" style=""width: 200px;height: 200px;""></button>","1","red","orange","[""red"",""orange"",""high nameability""]","right-left","[""orange"",""red""]","1","high nameability","8","right","response","1"
"html-audio-button-response","51","85307","0.0-39.0-1.0","CKN_127","127","","","","","","null","stimuli/bleep.m4a","null","red","orange","[""red"",""orange"",""high nameability""]","right-left","[""orange"",""red""]","1","high nameability","8","right","audio_feedback","1"
"html-button-response","52","85821","0.0-40.0","CKN_127","127","","","","","","null","<button class=""jspsych-btn""><img src=""stimuli/white_square.png"" style=""width: 200px;height: 200px;""></button>","null","red","orange","[""red"",""orange"",""high nameability""]","right-left","[""orange"",""red""]","1","high nameability","8","right","iti",""
"html-button-response","53","89319","0.0-41.0","CKN_127","127","","","","","","3491","","0","darkgreenblue","turquoise","[""darkgreenblue"",""turquoise"",""low nameability""]","right-left","[""turquoise"",""darkgreenblue""]","1","low nameability","9","right","trigger",""
"html-button-response","54","90785","0.0-42.0-0.0","CKN_127","127","","","","","","1459","<button class=""jspsych-btn""><img src=""stimuli/darkgreenblue.png"" style=""width: 200px;height: 200px;""></button>","1","darkgreenblue","turquoise","[""darkgreenblue"",""turquoise"",""low nameability""]","right-left","[""turquoise"",""darkgreenblue""]","1","low nameability","9","right","response","1"
"html-audio-button-response","55","90995","0.0-42.0-1.0","CKN_127","127","","","","","","null","stimuli/bleep.m4a","null","darkgreenblue","turquoise","[""darkgreenblue"",""turquoise"",""low nameability""]","right-left","[""turquoise"",""darkgreenblue""]","1","low nameability","9","right","audio_feedback","1"
"html-button-response","56","91534","0.0-43.0","CKN_127","127","","","","","","null","<button class=""jspsych-btn""><img src=""stimuli/white_square.png"" style=""width: 200px;height: 200px;""></button>","null","darkgreenblue","turquoise","[""darkgreenblue"",""turquoise"",""low nameability""]","right-left","[""turquoise"",""darkgreenblue""]","1","low nameability","9","right","iti",""
"html-button-response","57","92948","0.0-44.0","CKN_127","127","","","","","","1400","","0","brown","purple","[""brown"",""purple"",""high nameability""]","right-left","[""purple"",""brown""]","1","high nameability","10","right","trigger",""
"html-button-response","58","94317","0.0-45.0-0.0","CKN_127","127","","","","","","1362","<button class=""jspsych-btn""><img src=""stimuli/brown.png"" style=""width: 200px;height: 200px;""></button>","1","brown","purple","[""brown"",""purple"",""high nameability""]","right-left","[""purple"",""brown""]","1","high nameability","10","right","response","1"
"html-audio-button-response","59","94521","0.0-45.0-1.0","CKN_127","127","","","","","","null","stimuli/bleep.m4a","null","brown","purple","[""brown"",""purple"",""high nameability""]","right-left","[""purple"",""brown""]","1","high nameability","10","right","audio_feedback","1"
"html-button-response","60","95054","0.0-46.0","CKN_127","127","","","","","","null","<button class=""jspsych-btn""><img src=""stimuli/white_square.png"" style=""width: 200px;height: 200px;""></button>","null","brown","purple","[""brown"",""purple"",""high nameability""]","right-left","[""purple"",""brown""]","1","high nameability","10","right","iti",""
"pavlovia","61","95136","0.0-47.0","CKN_127","127","","","","","","","","","","","","","","","","","","",""
"pavlovia","62","95154","0.0-48.0","CKN_127","127","","","","","","","","","","","","","","","","","","",""
"html-audio-button-response","63","100666","0.0-49.0","CKN_127","127","","","","","","5611","stimuli/tada.m4a","0","","","","","","","","","","",""
"html-button-response","64","101195","0.0-50.0","CKN_127","127","","","","","","523","","0","","","","","","","","","","",""
"html-button-response","65","102796","0.0-51.0","CKN_127","127","","","","","","1595","","0","brown","blue","[""brown"",""blue"",""high nameability""]","left-right","[""brown"",""blue"",""high nameability""]","2","high nameability","11","left","trigger",""
"html-button-response","66","104208","0.0-52.0-0.0","CKN_127","127","","","","","","1404","<button class=""jspsych-btn""><img src=""stimuli/brown.png"" style=""width: 200px;height: 200px;""></button>","0","brown","blue","[""brown"",""blue"",""high nameability""]","left-right","[""brown"",""blue"",""high nameability""]","2","high nameability","11","left","response","1"
"html-audio-button-response","67","104420","0.0-52.0-1.0","CKN_127","127","","","","","","null","stimuli/bleep.m4a","null","brown","blue","[""brown"",""blue"",""high nameability""]","left-right","[""brown"",""blue"",""high nameability""]","2","high nameability","11","left","audio_feedback","1"
"html-button-response","68","104941","0.0-53.0","CKN_127","127","","","","","","null","<button class=""jspsych-btn""><img src=""stimuli/white_square.png"" style=""width: 200px;height: 200px;""></button>","null","brown","blue","[""brown"",""blue"",""high nameability""]","left-right","[""brown"",""blue"",""high nameability""]","2","high nameability","11","left","iti",""
"html-button-response","69","106947","0.0-54.0","CKN_127","127","","","","","","1996","","0","mustard","turquoise","[""mustard"",""turquoise"",""low nameability""]","right-left","[""turquoise"",""mustard""]","2","low nameability","12","right","trigger",""
"html-button-response","70","108151","0.0-55.0-0.0","CKN_127","127","","","","","","1198","<button class=""jspsych-btn""><img src=""stimuli/mustard.png"" style=""width: 200px;height: 200px;""></button>","1","mustard","turquoise","[""mustard"",""turquoise"",""low nameability""]","right-left","[""turquoise"",""mustard""]","2","low nameability","12","right","response","1"
"html-audio-button-response","71","108355","0.0-55.0-1.0","CKN_127","127","","","","","","null","stimuli/bleep.m4a","null","mustard","turquoise","[""mustard"",""turquoise"",""low nameability""]","right-left","[""turquoise"",""mustard""]","2","low nameability","12","right","audio_feedback","1"
"html-button-response","72","108876","0.0-56.0","CKN_127","127","","","","","","null","<button class=""jspsych-btn""><img src=""stimuli/white_square.png"" style=""width: 200px;height: 200px;""></button>","null","mustard","turquoise","[""mustard"",""turquoise"",""low nameability""]","right-left","[""turquoise"",""mustard""]","2","low nameability","12","right","iti",""
"html-button-response","73","111960","0.0-57.0","CKN_127","127","","","","","","3073","","0","pink","darkgreenblue","[""pink"",""darkgreenblue"",""low nameability""]","right-left","[""darkgreenblue"",""pink""]","2","low nameability","13","right","trigger",""
"html-button-response","74","113009","0.0-58.0-0.0","CKN_127","127","","","","","","1041","<button class=""jspsych-btn""><img src=""stimuli/pink.png"" style=""width: 200px;height: 200px;""></button>","1","pink","darkgreenblue","[""pink"",""darkgreenblue"",""low nameability""]","right-left","[""darkgreenblue"",""pink""]","2","low nameability","13","right","response","1"
"html-audio-button-response","75","113212","0.0-58.0-1.0","CKN_127","127","","","","","","null","stimuli/bleep.m4a","null","pink","darkgreenblue","[""pink"",""darkgreenblue"",""low nameability""]","right-left","[""darkgreenblue"",""pink""]","2","low nameability","13","right","audio_feedback","1"
"html-button-response","76","113726","0.0-59.0","CKN_127","127","","","","","","null","<button class=""jspsych-btn""><img src=""stimuli/white_square.png"" style=""width: 200px;height: 200px;""></button>","null","pink","darkgreenblue","[""pink"",""darkgreenblue"",""low nameability""]","right-left","[""darkgreenblue"",""pink""]","2","low nameability","13","right","iti",""
"html-button-response","77","114764","0.0-60.0","CKN_127","127","","","","","","1026","","0","turquoise","darkgreenblue","[""turquoise"",""darkgreenblue"",""low nameability""]","left-right","[""turquoise"",""darkgreenblue"",""low nameability""]","2","low nameability","14","left","trigger",""
"html-button-response","78","115776","0.0-61.0-0.0","CKN_127","127","","","","","","1007","<button class=""jspsych-btn""><img src=""stimuli/turquoise.png"" style=""width: 200px;height: 200px;""></button>","0","turquoise","darkgreenblue","[""turquoise"",""darkgreenblue"",""low nameability""]","left-right","[""turquoise"",""darkgreenblue"",""low nameability""]","2","low nameability","14","left","response","1"
"html-audio-button-response","79","115978","0.0-61.0-1.0","CKN_127","127","","","","","","null","stimuli/bleep.m4a","null","turquoise","darkgreenblue","[""turquoise"",""darkgreenblue"",""low nameability""]","left-right","[""turquoise"",""darkgreenblue"",""low nameability""]","2","low nameability","14","left","audio_feedback","1"
"html-button-response","80","116489","0.0-62.0","CKN_127","127","","","","","","null","<button class=""jspsych-btn""><img src=""stimuli/white_square.png"" style=""width: 200px;height: 200px;""></button>","null","turquoise","darkgreenblue","[""turquoise"",""darkgreenblue"",""low nameability""]","left-right","[""turquoise"",""darkgreenblue"",""low nameability""]","2","low nameability","14","left","iti",""
"html-button-response","81","117574","0.0-63.0","CKN_127","127","","","","","","1069","","0","pink","turquoise","[""pink"",""turquoise"",""low nameability""]","right-left","[""turquoise"",""pink""]","2","low nameability","15","right","trigger",""
"html-button-response","82","118567","0.0-64.0-0.0","CKN_127","127","","","","","","988","<button class=""jspsych-btn""><img src=""stimuli/pink.png"" style=""width: 200px;height: 200px;""></button>","1","pink","turquoise","[""pink"",""turquoise"",""low nameability""]","right-left","[""turquoise"",""pink""]","2","low nameability","15","right","response","1"
"html-audio-button-response","83","118770","0.0-64.0-1.0","CKN_127","127","","","","","","null","stimuli/bleep.m4a","null","pink","turquoise","[""pink"",""turquoise"",""low nameability""]","right-left","[""turquoise"",""pink""]","2","low nameability","15","right","audio_feedback","1"
"html-button-response","84","119280","0.0-65.0","CKN_127","127","","","","","","null","<button class=""jspsych-btn""><img src=""stimuli/white_square.png"" style=""width: 200px;height: 200px;""></button>","null","pink","turquoise","[""pink"",""turquoise"",""low nameability""]","right-left","[""turquoise"",""pink""]","2","low nameability","15","right","iti",""
"html-button-response","85","120392","0.0-66.0","CKN_127","127","","","","","","1091","","0","blue","brown","[""blue"",""brown"",""high nameability""]","right-left","[""brown"",""blue""]","2","high nameability","16","right","trigger",""
"html-button-response","86","123564","0.0-67.0-0.0","CKN_127","127","","","","","","3159","<button class=""jspsych-btn""><img src=""stimuli/blue.png"" style=""width: 200px;height: 200px;""></button>","1","blue","brown","[""blue"",""brown"",""high nameability""]","right-left","[""brown"",""blue""]","2","high nameability","16","right","response","1"
"html-audio-button-response","87","123779","0.0-67.0-1.0","CKN_127","127","","","","","","null","stimuli/bleep.m4a","null","blue","brown","[""blue"",""brown"",""high nameability""]","right-left","[""brown"",""blue""]","2","high nameability","16","right","audio_feedback","1"
"html-button-response","88","124302","0.0-68.0","CKN_127","127","","","","","","72","<button class=""jspsych-btn""><img src=""stimuli/white_square.png"" style=""width: 200px;height: 200px;""></button>","1","blue","brown","[""blue"",""brown"",""high nameability""]","right-left","[""brown"",""blue""]","2","high nameability","16","right","iti",""
"html-button-response","89","126496","0.0-69.0","CKN_127","127","","","","","","2173","","0","neonyellow","pink","[""neonyellow"",""pink"",""low nameability""]","right-left","[""pink"",""neonyellow""]","2","low nameability","17","right","trigger",""
"html-button-response","90","127469","0.0-70.0-0.0","CKN_127","127","","","","","","959","<button class=""jspsych-btn""><img src=""stimuli/neonyellow.png"" style=""width: 200px;height: 200px;""></button>","1","neonyellow","pink","[""neonyellow"",""pink"",""low nameability""]","right-left","[""pink"",""neonyellow""]","2","low nameability","17","right","response","1"
"html-audio-button-response","91","127684","0.0-70.0-1.0","CKN_127","127","","","","","","null","stimuli/bleep.m4a","null","neonyellow","pink","[""neonyellow"",""pink"",""low nameability""]","right-left","[""pink"",""neonyellow""]","2","low nameability","17","right","audio_feedback","1"
"html-button-response","92","128221","0.0-71.0","CKN_127","127","","","","","","null","<button class=""jspsych-btn""><img src=""stimuli/white_square.png"" style=""width: 200px;height: 200px;""></button>","null","neonyellow","pink","[""neonyellow"",""pink"",""low nameability""]","right-left","[""pink"",""neonyellow""]","2","low nameability","17","right","iti",""
"html-button-response","93","129368","0.0-72.0","CKN_127","127","","","","","","1134","","0","darkgreenblue","mustard","[""darkgreenblue"",""mustard"",""low nameability""]","right-left","[""mustard"",""darkgreenblue""]","2","low nameability","18","right","trigger",""
"html-button-response","94","130374","0.0-73.0-0.0","CKN_127","127","","","","","","1001","<button class=""jspsych-btn""><img src=""stimuli/darkgreenblue.png"" style=""width: 200px;height: 200px;""></button>","1","darkgreenblue","mustard","[""darkgreenblue"",""mustard"",""low nameability""]","right-left","[""mustard"",""darkgreenblue""]","2","low nameability","18","right","response","1"
"html-audio-button-response","95","130579","0.0-73.0-1.0","CKN_127","127","","","","","","null","stimuli/bleep.m4a","null","darkgreenblue","mustard","[""darkgreenblue"",""mustard"",""low nameability""]","right-left","[""mustard"",""darkgreenblue""]","2","low nameability","18","right","audio_feedback","1"
"html-button-response","96","131092","0.0-74.0","CKN_127","127","","","","","","null","<button class=""jspsych-btn""><img src=""stimuli/white_square.png"" style=""width: 200px;height: 200px;""></button>","null","darkgreenblue","mustard","[""darkgreenblue"",""mustard"",""low nameability""]","right-left","[""mustard"",""darkgreenblue""]","2","low nameability","18","right","iti",""
"html-button-response","97","132010","0.0-75.0","CKN_127","127","","","","","","905","","0","mustard","darkgreenblue","[""mustard"",""darkgreenblue"",""low nameability""]","left-right","[""mustard"",""darkgreenblue"",""low nameability""]","2","low nameability","19","left","trigger",""
"html-button-response","98","133044","0.0-76.0-0.0","CKN_127","127","","","","","","1026","<button class=""jspsych-btn""><img src=""stimuli/mustard.png"" style=""width: 200px;height: 200px;""></button>","0","mustard","darkgreenblue","[""mustard"",""darkgreenblue"",""low nameability""]","left-right","[""mustard"",""darkgreenblue"",""low nameability""]","2","low nameability","19","left","response","1"
"html-audio-button-response","99","133255","0.0-76.0-1.0","CKN_127","127","","","","","","null","stimuli/bleep.m4a","null","mustard","darkgreenblue","[""mustard"",""darkgreenblue"",""low nameability""]","left-right","[""mustard"",""darkgreenblue"",""low nameability""]","2","low nameability","19","left","audio_feedback","1"
"html-button-response","100","133790","0.0-77.0","CKN_127","127","","","","","","null","<button class=""jspsych-btn""><img src=""stimuli/white_square.png"" style=""width: 200px;height: 200px;""></button>","null","mustard","darkgreenblue","[""mustard"",""darkgreenblue"",""low nameability""]","left-right","[""mustard"",""darkgreenblue"",""low nameability""]","2","low nameability","19","left","iti",""
"html-button-response","101","134955","0.0-78.0","CKN_127","127","","","","","","1147","","0","darkgreenblue","pink","[""darkgreenblue"",""pink"",""low nameability""]","right-left","[""pink"",""darkgreenblue""]","2","low nameability","20","right","trigger",""
"html-button-response","102","135951","0.0-79.0-0.0","CKN_127","127","","","","","","987","<button class=""jspsych-btn""><img src=""stimuli/darkgreenblue.png"" style=""width: 200px;height: 200px;""></button>","1","darkgreenblue","pink","[""darkgreenblue"",""pink"",""low nameability""]","right-left","[""pink"",""darkgreenblue""]","2","low nameability","20","right","response","1"
"html-audio-button-response","103","136156","0.0-79.0-1.0","CKN_127","127","","","","","","null","stimuli/bleep.m4a","null","darkgreenblue","pink","[""darkgreenblue"",""pink"",""low nameability""]","right-left","[""pink"",""darkgreenblue""]","2","low nameability","20","right","audio_feedback","1"
"html-button-response","104","136680","0.0-80.0","CKN_127","127","","","","","","null","<button class=""jspsych-btn""><img src=""stimuli/white_square.png"" style=""width: 200px;height: 200px;""></button>","null","darkgreenblue","pink","[""darkgreenblue"",""pink"",""low nameability""]","right-left","[""pink"",""darkgreenblue""]","2","low nameability","20","right","iti",""
"pavlovia","105","136740","0.0-81.0","CKN_127","127","","","","","","","","","","","","","","","","","","",""
"pavlovia","106","136755","0.0-82.0","CKN_127","127","","","","","","","","","","","","","","","","","","",""
"html-audio-button-response","107","140175","0.0-83.0","CKN_127","127","","","","","","3496","stimuli/tada.m4a","0","","","","","","","","","","",""
"html-button-response","108","140597","0.0-84.0","CKN_127","127","","","","","","412","","0","","","","","","","","","","",""
"html-button-response","109","142243","0.0-85.0","CKN_127","127","","","","","","1638","","0","lightred","darkgreenblue","[""lightred"",""darkgreenblue"",""low nameability""]","right-left","[""darkgreenblue"",""lightred""]","3","low nameability","21","right","trigger",""
"html-button-response","110","145291","0.0-86.0-0.0","CKN_127","127","","","","","","3042","<button class=""jspsych-btn""><img src=""stimuli/lightred.png"" style=""width: 200px;height: 200px;""></button>","1","lightred","darkgreenblue","[""lightred"",""darkgreenblue"",""low nameability""]","right-left","[""darkgreenblue"",""lightred""]","3","low nameability","21","right","response","1"
"html-audio-button-response","111","145497","0.0-86.0-1.0","CKN_127","127","","","","","","null","stimuli/bleep.m4a","null","lightred","darkgreenblue","[""lightred"",""darkgreenblue"",""low nameability""]","right-left","[""darkgreenblue"",""lightred""]","3","low nameability","21","right","audio_feedback","1"
"html-button-response","112","146009","0.0-87.0","CKN_127","127","","","","","","null","<button class=""jspsych-btn""><img src=""stimuli/white_square.png"" style=""width: 200px;height: 200px;""></button>","null","lightred","darkgreenblue","[""lightred"",""darkgreenblue"",""low nameability""]","right-left","[""darkgreenblue"",""lightred""]","3","low nameability","21","right","iti",""
"html-button-response","113","149347","0.0-88.0","CKN_127","127","","","","","","3327","","0","red","yellow","[""red"",""yellow"",""high nameability""]","left-right","[""red"",""yellow"",""high nameability""]","3","high nameability","22","left","trigger",""
"html-button-response","114","150325","0.0-89.0-0.0","CKN_127","127","","","","","","970","<button class=""jspsych-btn""><img src=""stimuli/red.png"" style=""width: 200px;height: 200px;""></button>","0","red","yellow","[""red"",""yellow"",""high nameability""]","left-right","[""red"",""yellow"",""high nameability""]","3","high nameability","22","left","response","1"
"html-audio-button-response","115","150530","0.0-89.0-1.0","CKN_127","127","","","","","","null","stimuli/bleep.m4a","null","red","yellow","[""red"",""yellow"",""high nameability""]","left-right","[""red"",""yellow"",""high nameability""]","3","high nameability","22","left","audio_feedback","1"
"html-button-response","116","151042","0.0-90.0","CKN_127","127","","","","","","null","<button class=""jspsych-btn""><img src=""stimuli/white_square.png"" style=""width: 200px;height: 200px;""></button>","null","red","yellow","[""red"",""yellow"",""high nameability""]","left-right","[""red"",""yellow"",""high nameability""]","3","high nameability","22","left","iti",""
"html-button-response","117","152135","0.0-91.0","CKN_127","127","","","","","","1083","","0","orange","yellow","[""orange"",""yellow"",""high nameability""]","left-right","[""orange"",""yellow"",""high nameability""]","3","high nameability","23","left","trigger",""
"html-button-response","118","153616","0.0-92.0-0.0","CKN_127","127","","","","","","1476","<button class=""jspsych-btn""><img src=""stimuli/orange.png"" style=""width: 200px;height: 200px;""></button>","0","orange","yellow","[""orange"",""yellow"",""high nameability""]","left-right","[""orange"",""yellow"",""high nameability""]","3","high nameability","23","left","response","1"
"html-audio-button-response","119","153821","0.0-92.0-1.0","CKN_127","127","","","","","","null","stimuli/bleep.m4a","null","orange","yellow","[""orange"",""yellow"",""high nameability""]","left-right","[""orange"",""yellow"",""high nameability""]","3","high nameability","23","left","audio_feedback","1"
"html-button-response","120","154345","0.0-93.0","CKN_127","127","","","","","","null","<button class=""jspsych-btn""><img src=""stimuli/white_square.png"" style=""width: 200px;height: 200px;""></button>","null","orange","yellow","[""orange"",""yellow"",""high nameability""]","left-right","[""orange"",""yellow"",""high nameability""]","3","high nameability","23","left","iti",""
"html-button-response","121","155433","0.0-94.0","CKN_127","127","","","","","","1080","","0","yellow","purple","[""yellow"",""purple"",""high nameability""]","left-right","[""yellow"",""purple"",""high nameability""]","3","high nameability","24","left","trigger",""
"html-button-response","122","156309","0.0-95.0-0.0","CKN_127","127","","","","","","869","<button class=""jspsych-btn""><img src=""stimuli/yellow.png"" style=""width: 200px;height: 200px;""></button>","0","yellow","purple","[""yellow"",""purple"",""high nameability""]","left-right","[""yellow"",""purple"",""high nameability""]","3","high nameability","24","left","response","1"
"html-audio-button-response","123","156514","0.0-95.0-1.0","CKN_127","127","","","","","","null","stimuli/bleep.m4a","null","yellow","purple","[""yellow"",""purple"",""high nameability""]","left-right","[""yellow"",""purple"",""high nameability""]","3","high nameability","24","left","audio_feedback","1"
"html-button-response","124","157032","0.0-96.0","CKN_127","127","","","","","","null","<button class=""jspsych-btn""><img src=""stimuli/white_square.png"" style=""width: 200px;height: 200px;""></button>","null","yellow","purple","[""yellow"",""purple"",""high nameability""]","left-right","[""yellow"",""purple"",""high nameability""]","3","high nameability","24","left","iti",""
"html-button-response","125","160256","0.0-97.0","CKN_127","127","","","","","","3212","","0","orange","purple","[""orange"",""purple"",""high nameability""]","right-left","[""purple"",""orange""]","3","high nameability","25","right","trigger",""
"html-button-response","126","161376","0.0-98.0-0.0","CKN_127","127","","","","","","1114","<button class=""jspsych-btn""><img src=""stimuli/orange.png"" style=""width: 200px;height: 200px;""></button>","1","orange","purple","[""orange"",""purple"",""high nameability""]","right-left","[""purple"",""orange""]","3","high nameability","25","right","response","1"
"html-audio-button-response","127","161590","0.0-98.0-1.0","CKN_127","127","","","","","","null","stimuli/bleep.m4a","null","orange","purple","[""orange"",""purple"",""high nameability""]","right-left","[""purple"",""orange""]","3","high nameability","25","right","audio_feedback","1"
"html-button-response","128","162117","0.0-99.0","CKN_127","127","","","","","","null","<button class=""jspsych-btn""><img src=""stimuli/white_square.png"" style=""width: 200px;height: 200px;""></button>","null","orange","purple","[""orange"",""purple"",""high nameability""]","right-left","[""purple"",""orange""]","3","high nameability","25","right","iti",""
"html-button-response","129","163262","0.0-100.0","CKN_127","127","","","","","","1130","","0","turquoise","lightred","[""turquoise"",""lightred"",""low nameability""]","left-right","[""turquoise"",""lightred"",""low nameability""]","3","low nameability","26","left","trigger",""
"html-button-response","130","164689","0.0-101.0-0.0","CKN_127","127","","","","","","1420","<button class=""jspsych-btn""><img src=""stimuli/turquoise.png"" style=""width: 200px;height: 200px;""></button>","0","turquoise","lightred","[""turquoise"",""lightred"",""low nameability""]","left-right","[""turquoise"",""lightred"",""low nameability""]","3","low nameability","26","left","response","1"
"html-audio-button-response","131","164893","0.0-101.0-1.0","CKN_127","127","","","","","","null","stimuli/bleep.m4a","null","turquoise","lightred","[""turquoise"",""lightred"",""low nameability""]","left-right","[""turquoise"",""lightred"",""low nameability""]","3","low nameability","26","left","audio_feedback","1"
"html-button-response","132","165406","0.0-102.0","CKN_127","127","","","","","","null","<button class=""jspsych-btn""><img src=""stimuli/white_square.png"" style=""width: 200px;height: 200px;""></button>","null","turquoise","lightred","[""turquoise"",""lightred"",""low nameability""]","left-right","[""turquoise"",""lightred"",""low nameability""]","3","low nameability","26","left","iti",""
"html-button-response","133","166530","0.0-103.0","CKN_127","127","","","","","","1109","","0","neonyellow","mustard","[""neonyellow"",""mustard"",""low nameability""]","left-right","[""neonyellow"",""mustard"",""low nameability""]","3","low nameability","27","left","trigger",""
"html-button-response","134","167653","0.0-104.0-0.0","CKN_127","127","","","","","","1116","<button class=""jspsych-btn""><img src=""stimuli/neonyellow.png"" style=""width: 200px;height: 200px;""></button>","0","neonyellow","mustard","[""neonyellow"",""mustard"",""low nameability""]","left-right","[""neonyellow"",""mustard"",""low nameability""]","3","low nameability","27","left","response","1"
"html-audio-button-response","135","167858","0.0-104.0-1.0","CKN_127","127","","","","","","null","stimuli/bleep.m4a","null","neonyellow","mustard","[""neonyellow"",""mustard"",""low nameability""]","left-right","[""neonyellow"",""mustard"",""low nameability""]","3","low nameability","27","left","audio_feedback","1"
"html-button-response","136","168377","0.0-105.0","CKN_127","127","","","","","","null","<button class=""jspsych-btn""><img src=""stimuli/white_square.png"" style=""width: 200px;height: 200px;""></button>","null","neonyellow","mustard","[""neonyellow"",""mustard"",""low nameability""]","left-right","[""neonyellow"",""mustard"",""low nameability""]","3","low nameability","27","left","iti",""
"html-button-response","137","170514","0.0-106.0","CKN_127","127","","","","","","2121","","0","turquoise","mustard","[""turquoise"",""mustard"",""low nameability""]","left-right","[""turquoise"",""mustard"",""low nameability""]","3","low nameability","28","left","trigger",""
"html-button-response","138","171593","0.0-107.0-0.0","CKN_127","127","","","","","","1074","<button class=""jspsych-btn""><img src=""stimuli/turquoise.png"" style=""width: 200px;height: 200px;""></button>","0","turquoise","mustard","[""turquoise"",""mustard"",""low nameability""]","left-right","[""turquoise"",""mustard"",""low nameability""]","3","low nameability","28","left","response","1"
"html-audio-button-response","139","171795","0.0-107.0-1.0","CKN_127","127","","","","","","null","stimuli/bleep.m4a","null","turquoise","mustard","[""turquoise"",""mustard"",""low nameability""]","left-right","[""turquoise"",""mustard"",""low nameability""]","3","low nameability","28","left","audio_feedback","1"
"html-button-response","140","172314","0.0-108.0","CKN_127","127","","","","","","null","<button class=""jspsych-btn""><img src=""stimuli/white_square.png"" style=""width: 200px;height: 200px;""></button>","null","turquoise","mustard","[""turquoise"",""mustard"",""low nameability""]","left-right","[""turquoise"",""mustard"",""low nameability""]","3","low nameability","28","left","iti",""
"html-button-response","141","173293","0.0-109.0","CKN_127","127","","","","","","966","","0","pink","lightred","[""pink"",""lightred"",""low nameability""]","left-right","[""pink"",""lightred"",""low nameability""]","3","low nameability","29","left","trigger",""
"html-button-response","142","174261","0.0-110.0-0.0","CKN_127","127","","","","","","962","<button class=""jspsych-btn""><img src=""stimuli/pink.png"" style=""width: 200px;height: 200px;""></button>","0","pink","lightred","[""pink"",""lightred"",""low nameability""]","left-right","[""pink"",""lightred"",""low nameability""]","3","low nameability","29","left","response","1"
"html-audio-button-response","143","174469","0.0-110.0-1.0","CKN_127","127","","","","","","null","stimuli/bleep.m4a","null","pink","lightred","[""pink"",""lightred"",""low nameability""]","left-right","[""pink"",""lightred"",""low nameability""]","3","low nameability","29","left","audio_feedback","1"
"html-button-response","144","175007","0.0-111.0","CKN_127","127","","","","","","null","<button class=""jspsych-btn""><img src=""stimuli/white_square.png"" style=""width: 200px;height: 200px;""></button>","null","pink","lightred","[""pink"",""lightred"",""low nameability""]","left-right","[""pink"",""lightred"",""low nameability""]","3","low nameability","29","left","iti",""
"html-button-response","145","176255","0.0-112.0","CKN_127","127","","","","","","1243","","0","blue","purple","[""blue"",""purple"",""high nameability""]","right-left","[""purple"",""blue""]","3","high nameability","30","right","trigger",""
"html-button-response","146","177224","0.0-113.0-0.0","CKN_127","127","","","","","","963","<button class=""jspsych-btn""><img src=""stimuli/blue.png"" style=""width: 200px;height: 200px;""></button>","1","blue","purple","[""blue"",""purple"",""high nameability""]","right-left","[""purple"",""blue""]","3","high nameability","30","right","response","1"
"html-audio-button-response","147","177428","0.0-113.0-1.0","CKN_127","127","","","","","","null","stimuli/bleep.m4a","null","blue","purple","[""blue"",""purple"",""high nameability""]","right-left","[""purple"",""blue""]","3","high nameability","30","right","audio_feedback","1"
"html-button-response","148","177941","0.0-114.0","CKN_127","127","","","","","","null","<button class=""jspsych-btn""><img src=""stimuli/white_square.png"" style=""width: 200px;height: 200px;""></button>","null","blue","purple","[""blue"",""purple"",""high nameability""]","right-left","[""purple"",""blue""]","3","high nameability","30","right","iti",""
"pavlovia","149","177999","0.0-115.0","CKN_127","127","","","","","","","","","","","","","","","","","","",""
"pavlovia","150","178011","0.0-116.0","CKN_127","127","","","","","","","","","","","","","","","","","","",""
"html-audio-button-response","151","181089","0.0-117.0","CKN_127","127","","","","","","3139","stimuli/tada.m4a","0","","","","","","","","","","",""
"html-button-response","152","181536","0.0-118.0","CKN_127","127","","","","","","443","","0","","","","","","","","","","",""
"html-button-response","153","182696","0.0-119.0","CKN_127","127","","","","","","1149","","0","pink","mustard","[""pink"",""mustard"",""low nameability""]","left-right","[""pink"",""mustard"",""low nameability""]","4","low nameability","31","left","trigger",""
"html-button-response","154","185955","0.0-120.0-0.0","CKN_127","127","","","","","","3243","<button class=""jspsych-btn""><img src=""stimuli/pink.png"" style=""width: 200px;height: 200px;""></button>","0","pink","mustard","[""pink"",""mustard"",""low nameability""]","left-right","[""pink"",""mustard"",""low nameability""]","4","low nameability","31","left","response","1"
"html-audio-button-response","155","186172","0.0-120.0-1.0","CKN_127","127","","","","","","null","stimuli/bleep.m4a","null","pink","mustard","[""pink"",""mustard"",""low nameability""]","left-right","[""pink"",""mustard"",""low nameability""]","4","low nameability","31","left","audio_feedback","1"
"html-button-response","156","186709","0.0-121.0","CKN_127","127","","","","","","null","<button class=""jspsych-btn""><img src=""stimuli/white_square.png"" style=""width: 200px;height: 200px;""></button>","null","pink","mustard","[""pink"",""mustard"",""low nameability""]","left-right","[""pink"",""mustard"",""low nameability""]","4","low nameability","31","left","iti",""
"html-button-response","157","187731","0.0-122.0","CKN_127","127","","","","","","1003","","0","lightred","turquoise","[""lightred"",""turquoise"",""low nameability""]","right-left","[""turquoise"",""lightred""]","4","low nameability","32","right","trigger",""
"html-button-response","158","189492","0.0-123.0-0.0","CKN_127","127","","","","","","1746","<button class=""jspsych-btn""><img src=""stimuli/lightred.png"" style=""width: 200px;height: 200px;""></button>","1","lightred","turquoise","[""lightred"",""turquoise"",""low nameability""]","right-left","[""turquoise"",""lightred""]","4","low nameability","32","right","response","1"
"html-audio-button-response","159","189708","0.0-123.0-1.0","CKN_127","127","","","","","","null","stimuli/bleep.m4a","null","lightred","turquoise","[""lightred"",""turquoise"",""low nameability""]","right-left","[""turquoise"",""lightred""]","4","low nameability","32","right","audio_feedback","1"
"html-button-response","160","190230","0.0-124.0","CKN_127","127","","","","","","null","<button class=""jspsych-btn""><img src=""stimuli/white_square.png"" style=""width: 200px;height: 200px;""></button>","null","lightred","turquoise","[""lightred"",""turquoise"",""low nameability""]","right-left","[""turquoise"",""lightred""]","4","low nameability","32","right","iti",""
"html-button-response","161","192566","0.0-125.0","CKN_127","127","","","","","","2314","","0","yellow","brown","[""yellow"",""brown"",""high nameability""]","right-left","[""brown"",""yellow""]","4","high nameability","33","right","trigger",""
"html-button-response","162","193567","0.0-126.0-0.0","CKN_127","127","","","","","","989","<button class=""jspsych-btn""><img src=""stimuli/yellow.png"" style=""width: 200px;height: 200px;""></button>","1","yellow","brown","[""yellow"",""brown"",""high nameability""]","right-left","[""brown"",""yellow""]","4","high nameability","33","right","response","1"
"html-audio-button-response","163","193771","0.0-126.0-1.0","CKN_127","127","","","","","","null","stimuli/bleep.m4a","null","yellow","brown","[""yellow"",""brown"",""high nameability""]","right-left","[""brown"",""yellow""]","4","high nameability","33","right","audio_feedback","1"
"html-button-response","164","194290","0.0-127.0","CKN_127","127","","","","","","null","<button class=""jspsych-btn""><img src=""stimuli/white_square.png"" style=""width: 200px;height: 200px;""></button>","null","yellow","brown","[""yellow"",""brown"",""high nameability""]","right-left","[""brown"",""yellow""]","4","high nameability","33","right","iti",""
"html-button-response","165","195261","0.0-128.0","CKN_127","127","","","","","","958","","0","neonyellow","turquoise","[""neonyellow"",""turquoise"",""low nameability""]","left-right","[""neonyellow"",""turquoise"",""low nameability""]","4","low nameability","34","left","trigger",""
"html-button-response","166","196051","0.0-129.0-0.0","CKN_127","127","","","","","","785","<button class=""jspsych-btn""><img src=""stimuli/neonyellow.png"" style=""width: 200px;height: 200px;""></button>","0","neonyellow","turquoise","[""neonyellow"",""turquoise"",""low nameability""]","left-right","[""neonyellow"",""turquoise"",""low nameability""]","4","low nameability","34","left","response","1"
"html-audio-button-response","167","196257","0.0-129.0-1.0","CKN_127","127","","","","","","null","stimuli/bleep.m4a","null","neonyellow","turquoise","[""neonyellow"",""turquoise"",""low nameability""]","left-right","[""neonyellow"",""turquoise"",""low nameability""]","4","low nameability","34","left","audio_feedback","1"
"html-button-response","168","196789","0.0-130.0","CKN_127","127","","","","","","null","<button class=""jspsych-btn""><img src=""stimuli/white_square.png"" style=""width: 200px;height: 200px;""></button>","null","neonyellow","turquoise","[""neonyellow"",""turquoise"",""low nameability""]","left-right","[""neonyellow"",""turquoise"",""low nameability""]","4","low nameability","34","left","iti",""
"html-button-response","169","198362","0.0-131.0","CKN_127","127","","","","","","1541","","0","lightred","neonyellow","[""lightred"",""neonyellow"",""low nameability""]","left-right","[""lightred"",""neonyellow"",""low nameability""]","4","low nameability","35","left","trigger",""
"html-button-response","170","199293","0.0-132.0-0.0","CKN_127","127","","","","","","922","<button class=""jspsych-btn""><img src=""stimuli/lightred.png"" style=""width: 200px;height: 200px;""></button>","0","lightred","neonyellow","[""lightred"",""neonyellow"",""low nameability""]","left-right","[""lightred"",""neonyellow"",""low nameability""]","4","low nameability","35","left","response","1"
"html-audio-button-response","171","199502","0.0-132.0-1.0","CKN_127","127","","","","","","null","stimuli/bleep.m4a","null","lightred","neonyellow","[""lightred"",""neonyellow"",""low nameability""]","left-right","[""lightred"",""neonyellow"",""low nameability""]","4","low nameability","35","left","audio_feedback","1"
"html-button-response","172","200040","0.0-133.0","CKN_127","127","","","","","","null","<button class=""jspsych-btn""><img src=""stimuli/white_square.png"" style=""width: 200px;height: 200px;""></button>","null","lightred","neonyellow","[""lightred"",""neonyellow"",""low nameability""]","left-right","[""lightred"",""neonyellow"",""low nameability""]","4","low nameability","35","left","iti",""
"html-button-response","173","200819","0.0-134.0","CKN_127","127","","","","","","765","","0","yellow","red","[""yellow"",""red"",""high nameability""]","right-left","[""red"",""yellow""]","4","high nameability","36","right","trigger",""
"html-button-response","174","201913","0.0-135.0-0.0","CKN_127","127","","","","","","1088","<button class=""jspsych-btn""><img src=""stimuli/yellow.png"" style=""width: 200px;height: 200px;""></button>","1","yellow","red","[""yellow"",""red"",""high nameability""]","right-left","[""red"",""yellow""]","4","high nameability","36","right","response","1"
"html-audio-button-response","175","202115","0.0-135.0-1.0","CKN_127","127","","","","","","null","stimuli/bleep.m4a","null","yellow","red","[""yellow"",""red"",""high nameability""]","right-left","[""red"",""yellow""]","4","high nameability","36","right","audio_feedback","1"
"html-button-response","176","202633","0.0-136.0","CKN_127","127","","","","","","null","<button class=""jspsych-btn""><img src=""stimuli/white_square.png"" style=""width: 200px;height: 200px;""></button>","null","yellow","red","[""yellow"",""red"",""high nameability""]","right-left","[""red"",""yellow""]","4","high nameability","36","right","iti",""
"html-button-response","177","203421","0.0-137.0","CKN_127","127","","","","","","775","","0","purple","orange","[""purple"",""orange"",""high nameability""]","right-left","[""orange"",""purple""]","4","high nameability","37","right","trigger",""
"html-button-response","178","204487","0.0-138.0-0.0","CKN_127","127","","","","","","1057","<button class=""jspsych-btn""><img src=""stimuli/purple.png"" style=""width: 200px;height: 200px;""></button>","1","purple","orange","[""purple"",""orange"",""high nameability""]","right-left","[""orange"",""purple""]","4","high nameability","37","right","response","1"
"html-audio-button-response","179","204691","0.0-138.0-1.0","CKN_127","127","","","","","","null","stimuli/bleep.m4a","null","purple","orange","[""purple"",""orange"",""high nameability""]","right-left","[""orange"",""purple""]","4","high nameability","37","right","audio_feedback","1"
"html-button-response","180","205214","0.0-139.0","CKN_127","127","","","","","","null","<button class=""jspsych-btn""><img src=""stimuli/white_square.png"" style=""width: 200px;height: 200px;""></button>","null","purple","orange","[""purple"",""orange"",""high nameability""]","right-left","[""orange"",""purple""]","4","high nameability","37","right","iti",""
"html-button-response","181","206489","0.0-140.0","CKN_127","127","","","","","","1260","","0","mustard","lightred","[""mustard"",""lightred"",""low nameability""]","left-right","[""mustard"",""lightred"",""low nameability""]","4","low nameability","38","left","trigger",""
"html-button-response","182","207332","0.0-141.0-0.0","CKN_127","127","","","","","","834","<button class=""jspsych-btn""><img src=""stimuli/mustard.png"" style=""width: 200px;height: 200px;""></button>","0","mustard","lightred","[""mustard"",""lightred"",""low nameability""]","left-right","[""mustard"",""lightred"",""low nameability""]","4","low nameability","38","left","response","1"
"html-audio-button-response","183","207536","0.0-141.0-1.0","CKN_127","127","","","","","","null","stimuli/bleep.m4a","null","mustard","lightred","[""mustard"",""lightred"",""low nameability""]","left-right","[""mustard"",""lightred"",""low nameability""]","4","low nameability","38","left","audio_feedback","1"
"html-button-response","184","208051","0.0-142.0","CKN_127","127","","","","","","null","<button class=""jspsych-btn""><img src=""stimuli/white_square.png"" style=""width: 200px;height: 200px;""></button>","null","mustard","lightred","[""mustard"",""lightred"",""low nameability""]","left-right","[""mustard"",""lightred"",""low nameability""]","4","low nameability","38","left","iti",""
"html-button-response","185","209418","0.0-143.0","CKN_127","127","","","","","","1361","","0","purple","yellow","[""purple"",""yellow"",""high nameability""]","left-right","[""purple"",""yellow"",""high nameability""]","4","high nameability","39","left","trigger",""
"html-button-response","186","211351","0.0-144.0-0.0","CKN_127","127","","","","","","1926","<button class=""jspsych-btn""><img src=""stimuli/purple.png"" style=""width: 200px;height: 200px;""></button>","0","purple","yellow","[""purple"",""yellow"",""high nameability""]","left-right","[""purple"",""yellow"",""high nameability""]","4","high nameability","39","left","response","1"
"html-audio-button-response","187","211562","0.0-144.0-1.0","CKN_127","127","","","","","","null","stimuli/bleep.m4a","null","purple","yellow","[""purple"",""yellow"",""high nameability""]","left-right","[""purple"",""yellow"",""high nameability""]","4","high nameability","39","left","audio_feedback","1"
"html-button-response","188","212081","0.0-145.0","CKN_127","127","","","","","","null","<button class=""jspsych-btn""><img src=""stimuli/white_square.png"" style=""width: 200px;height: 200px;""></button>","null","purple","yellow","[""purple"",""yellow"",""high nameability""]","left-right","[""purple"",""yellow"",""high nameability""]","4","high nameability","39","left","iti",""
"html-button-response","189","213232","0.0-146.0","CKN_127","127","","","","","","1135","","0","orange","red","[""orange"",""red"",""high nameability""]","left-right","[""orange"",""red"",""high nameability""]","4","high nameability","40","left","trigger",""
"html-button-response","190","214235","0.0-147.0-0.0","CKN_127","127","","","","","","998","<button class=""jspsych-btn""><img src=""stimuli/orange.png"" style=""width: 200px;height: 200px;""></button>","0","orange","red","[""orange"",""red"",""high nameability""]","left-right","[""orange"",""red"",""high nameability""]","4","high nameability","40","left","response","1"
"html-audio-button-response","191","214443","0.0-147.0-1.0","CKN_127","127","","","","","","null","stimuli/bleep.m4a","null","orange","red","[""orange"",""red"",""high nameability""]","left-right","[""orange"",""red"",""high nameability""]","4","high nameability","40","left","audio_feedback","1"
"html-button-response","192","214955","0.0-148.0","CKN_127","127","","","","","","null","<button class=""jspsych-btn""><img src=""stimuli/white_square.png"" style=""width: 200px;height: 200px;""></button>","null","orange","red","[""orange"",""red"",""high nameability""]","left-right","[""orange"",""red"",""high nameability""]","4","high nameability","40","left","iti",""
"pavlovia","193","215069","0.0-149.0","CKN_127","127","","","","","","","","","","","","","","","","","","",""
"pavlovia","194","215080","0.0-150.0","CKN_127","127","","","","","","","","","","","","","","","","","","",""
"html-audio-button-response","195","218198","0.0-151.0","CKN_127","127","","","","","","3240","stimuli/tada.m4a","0","","","","","","","","","","",""
"html-button-response","196","218636","0.0-152.0","CKN_127","127","","","","","","431","","0","","","","","","","","","","",""
"html-button-response","197","222016","0.0-153.0","CKN_127","127","","","","","","3374","","0","red","brown","[""red"",""brown"",""high nameability""]","right-left","[""brown"",""red""]","5","high nameability","41","right","trigger",""
"html-button-response","198","224578","0.0-154.0-0.0","CKN_127","127","","","","","","2550","<button class=""jspsych-btn""><img src=""stimuli/red.png"" style=""width: 200px;height: 200px;""></button>","1","red","brown","[""red"",""brown"",""high nameability""]","right-left","[""brown"",""red""]","5","high nameability","41","right","response","1"
"html-audio-button-response","199","224795","0.0-154.0-1.0","CKN_127","127","","","","","","null","stimuli/bleep.m4a","null","red","brown","[""red"",""brown"",""high nameability""]","right-left","[""brown"",""red""]","5","high nameability","41","right","audio_feedback","1"
"html-button-response","200","225306","0.0-155.0","CKN_127","127","","","","","","null","<button class=""jspsych-btn""><img src=""stimuli/white_square.png"" style=""width: 200px;height: 200px;""></button>","null","red","brown","[""red"",""brown"",""high nameability""]","right-left","[""brown"",""red""]","5","high nameability","41","right","iti",""
"html-button-response","201","228534","0.0-156.0","CKN_127","127","","","","","","3215","","0","neonyellow","lightred","[""neonyellow"",""lightred"",""low nameability""]","left-right","[""neonyellow"",""lightred"",""low nameability""]","5","low nameability","42","left","trigger",""
"html-button-response","202","229766","0.0-157.0-0.0","CKN_127","127","","","","","","1226","<button class=""jspsych-btn""><img src=""stimuli/neonyellow.png"" style=""width: 200px;height: 200px;""></button>","0","neonyellow","lightred","[""neonyellow"",""lightred"",""low nameability""]","left-right","[""neonyellow"",""lightred"",""low nameability""]","5","low nameability","42","left","response","1"
"html-audio-button-response","203","229978","0.0-157.0-1.0","CKN_127","127","","","","","","null","stimuli/bleep.m4a","null","neonyellow","lightred","[""neonyellow"",""lightred"",""low nameability""]","left-right","[""neonyellow"",""lightred"",""low nameability""]","5","low nameability","42","left","audio_feedback","1"
"html-button-response","204","230508","0.0-158.0","CKN_127","127","","","","","","null","<button class=""jspsych-btn""><img src=""stimuli/white_square.png"" style=""width: 200px;height: 200px;""></button>","null","neonyellow","lightred","[""neonyellow"",""lightred"",""low nameability""]","left-right","[""neonyellow"",""lightred"",""low nameability""]","5","low nameability","42","left","iti",""
"html-button-response","205","231637","0.0-159.0","CKN_127","127","","","","","","1111","","0","purple","red","[""purple"",""red"",""high nameability""]","left-right","[""purple"",""red"",""high nameability""]","5","high nameability","43","left","trigger",""
"html-button-response","206","233564","0.0-160.0-0.0","CKN_127","127","","","","","","1915","<button class=""jspsych-btn""><img src=""stimuli/purple.png"" style=""width: 200px;height: 200px;""></button>","0","purple","red","[""purple"",""red"",""high nameability""]","left-right","[""purple"",""red"",""high nameability""]","5","high nameability","43","left","response","1"
"html-audio-button-response","207","233771","0.0-160.0-1.0","CKN_127","127","","","","","","null","stimuli/bleep.m4a","null","purple","red","[""purple"",""red"",""high nameability""]","left-right","[""purple"",""red"",""high nameability""]","5","high nameability","43","left","audio_feedback","1"
"html-button-response","208","234291","0.0-161.0","CKN_127","127","","","","","","null","<button class=""jspsych-btn""><img src=""stimuli/white_square.png"" style=""width: 200px;height: 200px;""></button>","null","purple","red","[""purple"",""red"",""high nameability""]","left-right","[""purple"",""red"",""high nameability""]","5","high nameability","43","left","iti",""
"html-button-response","209","238919","0.0-162.0","CKN_127","127","","","","","","4613","","0","red","purple","[""red"",""purple"",""high nameability""]","left-right","[""red"",""purple"",""high nameability""]","5","high nameability","44","left","trigger",""
"html-button-response","210","240169","0.0-163.0-0.0","CKN_127","127","","","","","","1241","<button class=""jspsych-btn""><img src=""stimuli/red.png"" style=""width: 200px;height: 200px;""></button>","0","red","purple","[""red"",""purple"",""high nameability""]","left-right","[""red"",""purple"",""high nameability""]","5","high nameability","44","left","response","1"
"html-audio-button-response","211","240371","0.0-163.0-1.0","CKN_127","127","","","","","","null","stimuli/bleep.m4a","null","red","purple","[""red"",""purple"",""high nameability""]","left-right","[""red"",""purple"",""high nameability""]","5","high nameability","44","left","audio_feedback","1"
"html-button-response","212","240891","0.0-164.0","CKN_127","127","","","","","","null","<button class=""jspsych-btn""><img src=""stimuli/white_square.png"" style=""width: 200px;height: 200px;""></button>","null","red","purple","[""red"",""purple"",""high nameability""]","left-right","[""red"",""purple"",""high nameability""]","5","high nameability","44","left","iti",""
"html-button-response","213","241997","0.0-165.0","CKN_127","127","","","","","","1093","","0","pink","neonyellow","[""pink"",""neonyellow"",""low nameability""]","left-right","[""pink"",""neonyellow"",""low nameability""]","5","low nameability","45","left","trigger",""
"html-button-response","214","242928","0.0-166.0-0.0","CKN_127","127","","","","","","925","<button class=""jspsych-btn""><img src=""stimuli/pink.png"" style=""width: 200px;height: 200px;""></button>","0","pink","neonyellow","[""pink"",""neonyellow"",""low nameability""]","left-right","[""pink"",""neonyellow"",""low nameability""]","5","low nameability","45","left","response","1"
"html-audio-button-response","215","243135","0.0-166.0-1.0","CKN_127","127","","","","","","null","stimuli/bleep.m4a","null","pink","neonyellow","[""pink"",""neonyellow"",""low nameability""]","left-right","[""pink"",""neonyellow"",""low nameability""]","5","low nameability","45","left","audio_feedback","1"
"html-button-response","216","243659","0.0-167.0","CKN_127","127","","","","","","null","<button class=""jspsych-btn""><img src=""stimuli/white_square.png"" style=""width: 200px;height: 200px;""></button>","null","pink","neonyellow","[""pink"",""neonyellow"",""low nameability""]","left-right","[""pink"",""neonyellow"",""low nameability""]","5","low nameability","45","left","iti",""
"html-button-response","217","244304","0.0-168.0","CKN_127","127","","","","","","632","","0","turquoise","neonyellow","[""turquoise"",""neonyellow"",""low nameability""]","left-right","[""turquoise"",""neonyellow"",""low nameability""]","5","low nameability","46","left","trigger",""
"html-button-response","218","245323","0.0-169.0-0.0","CKN_127","127","","","","","","1012","<button class=""jspsych-btn""><img src=""stimuli/turquoise.png"" style=""width: 200px;height: 200px;""></button>","0","turquoise","neonyellow","[""turquoise"",""neonyellow"",""low nameability""]","left-right","[""turquoise"",""neonyellow"",""low nameability""]","5","low nameability","46","left","response","1"
"html-audio-button-response","219","245537","0.0-169.0-1.0","CKN_127","127","","","","","","null","stimuli/bleep.m4a","null","turquoise","neonyellow","[""turquoise"",""neonyellow"",""low nameability""]","left-right","[""turquoise"",""neonyellow"",""low nameability""]","5","low nameability","46","left","audio_feedback","1"
"html-button-response","220","246059","0.0-170.0","CKN_127","127","","","","","","null","<button class=""jspsych-btn""><img src=""stimuli/white_square.png"" style=""width: 200px;height: 200px;""></button>","null","turquoise","neonyellow","[""turquoise"",""neonyellow"",""low nameability""]","left-right","[""turquoise"",""neonyellow"",""low nameability""]","5","low nameability","46","left","iti",""
"html-button-response","221","247092","0.0-171.0","CKN_127","127","","","","","","1020","","0","lightred","mustard","[""lightred"",""mustard"",""low nameability""]","right-left","[""mustard"",""lightred""]","5","low nameability","47","right","trigger",""
"html-button-response","222","248180","0.0-172.0-0.0","CKN_127","127","","","","","","1083","<button class=""jspsych-btn""><img src=""stimuli/lightred.png"" style=""width: 200px;height: 200px;""></button>","1","lightred","mustard","[""lightred"",""mustard"",""low nameability""]","right-left","[""mustard"",""lightred""]","5","low nameability","47","right","response","1"
"html-audio-button-response","223","248378","0.0-172.0-1.0","CKN_127","127","","","","","","null","stimuli/bleep.m4a","null","lightred","mustard","[""lightred"",""mustard"",""low nameability""]","right-left","[""mustard"",""lightred""]","5","low nameability","47","right","audio_feedback","1"
"html-button-response","224","248889","0.0-173.0","CKN_127","127","","","","","","null","<button class=""jspsych-btn""><img src=""stimuli/white_square.png"" style=""width: 200px;height: 200px;""></button>","null","lightred","mustard","[""lightred"",""mustard"",""low nameability""]","right-left","[""mustard"",""lightred""]","5","low nameability","47","right","iti",""
"html-button-response","225","250070","0.0-174.0","CKN_127","127","","","","","","1164","","0","mustard","pink","[""mustard"",""pink"",""low nameability""]","left-right","[""mustard"",""pink"",""low nameability""]","5","low nameability","48","left","trigger",""
"html-button-response","226","252046","0.0-175.0-0.0","CKN_127","127","","","","","","1960","<button class=""jspsych-btn""><img src=""stimuli/mustard.png"" style=""width: 200px;height: 200px;""></button>","0","mustard","pink","[""mustard"",""pink"",""low nameability""]","left-right","[""mustard"",""pink"",""low nameability""]","5","low nameability","48","left","response","1"
"html-audio-button-response","227","252259","0.0-175.0-1.0","CKN_127","127","","","","","","null","stimuli/bleep.m4a","null","mustard","pink","[""mustard"",""pink"",""low nameability""]","left-right","[""mustard"",""pink"",""low nameability""]","5","low nameability","48","left","audio_feedback","1"
"html-button-response","228","252777","0.0-176.0","CKN_127","127","","","","","","null","<button class=""jspsych-btn""><img src=""stimuli/white_square.png"" style=""width: 200px;height: 200px;""></button>","null","mustard","pink","[""mustard"",""pink"",""low nameability""]","left-right","[""mustard"",""pink"",""low nameability""]","5","low nameability","48","left","iti",""
"html-button-response","229","253680","0.0-177.0","CKN_127","127","","","","","","875","","0","blue","red","[""blue"",""red"",""high nameability""]","right-left","[""red"",""blue""]","5","high nameability","49","right","trigger",""
"html-button-response","230","254557","0.0-178.0-0.0","CKN_127","127","","","","","","861","<button class=""jspsych-btn""><img src=""stimuli/blue.png"" style=""width: 200px;height: 200px;""></button>","1","blue","red","[""blue"",""red"",""high nameability""]","right-left","[""red"",""blue""]","5","high nameability","49","right","response","1"
"html-audio-button-response","231","254770","0.0-178.0-1.0","CKN_127","127","","","","","","null","stimuli/bleep.m4a","null","blue","red","[""blue"",""red"",""high nameability""]","right-left","[""red"",""blue""]","5","high nameability","49","right","audio_feedback","1"
"html-button-response","232","255290","0.0-179.0","CKN_127","127","","","","","","null","<button class=""jspsych-btn""><img src=""stimuli/white_square.png"" style=""width: 200px;height: 200px;""></button>","null","blue","red","[""blue"",""red"",""high nameability""]","right-left","[""red"",""blue""]","5","high nameability","49","right","iti",""
"html-button-response","233","256269","0.0-180.0","CKN_127","127","","","","","","972","","0","darkgreenblue","neonyellow","[""darkgreenblue"",""neonyellow"",""low nameability""]","right-left","[""neonyellow"",""darkgreenblue""]","5","low nameability","50","right","trigger",""
"html-button-response","234","257328","0.0-181.0-0.0","CKN_127","127","","","","","","1047","<button class=""jspsych-btn""><img src=""stimuli/darkgreenblue.png"" style=""width: 200px;height: 200px;""></button>","1","darkgreenblue","neonyellow","[""darkgreenblue"",""neonyellow"",""low nameability""]","right-left","[""neonyellow"",""darkgreenblue""]","5","low nameability","50","right","response","1"
"html-audio-button-response","235","257532","0.0-181.0-1.0","CKN_127","127","","","","","","null","stimuli/bleep.m4a","null","darkgreenblue","neonyellow","[""darkgreenblue"",""neonyellow"",""low nameability""]","right-left","[""neonyellow"",""darkgreenblue""]","5","low nameability","50","right","audio_feedback","1"
"html-button-response","236","258044","0.0-182.0","CKN_127","127","","","","","","null","<button class=""jspsych-btn""><img src=""stimuli/white_square.png"" style=""width: 200px;height: 200px;""></button>","null","darkgreenblue","neonyellow","[""darkgreenblue"",""neonyellow"",""low nameability""]","right-left","[""neonyellow"",""darkgreenblue""]","5","low nameability","50","right","iti",""
"pavlovia","237","258114","0.0-183.0","CKN_127","127","","","","","","","","","","","","","","","","","","",""
"pavlovia","238","258127","0.0-184.0","CKN_127","127","","","","","","","","","","","","","","","","","","",""
"html-audio-button-response","239","261245","0.0-185.0","CKN_127","127","","","","","","3184","stimuli/tada.m4a","0","","","","","","","","","","",""
"html-button-response","240","261713","0.0-186.0","CKN_127","127","","","","","","454","","0","","","","","","","","","","",""
"html-button-response","241","262716","0.0-187.0","CKN_127","127","","","","","","999","","0","red","blue","[""red"",""blue"",""high nameability""]","right-left","[""blue"",""red""]","6","high nameability","51","right","trigger",""
"html-button-response","242","264036","0.0-188.0-0.0","CKN_127","127","","","","","","1314","<button class=""jspsych-btn""><img src=""stimuli/red.png"" style=""width: 200px;height: 200px;""></button>","1","red","blue","[""red"",""blue"",""high nameability""]","right-left","[""blue"",""red""]","6","high nameability","51","right","response","1"
"html-audio-button-response","243","264263","0.0-188.0-1.0","CKN_127","127","","","","","","null","stimuli/bleep.m4a","null","red","blue","[""red"",""blue"",""high nameability""]","right-left","[""blue"",""red""]","6","high nameability","51","right","audio_feedback","1"
"html-button-response","244","264784","0.0-189.0","CKN_127","127","","","","","","null","<button class=""jspsych-btn""><img src=""stimuli/white_square.png"" style=""width: 200px;height: 200px;""></button>","null","red","blue","[""red"",""blue"",""high nameability""]","right-left","[""blue"",""red""]","6","high nameability","51","right","iti",""
"html-button-response","245","265720","0.0-190.0","CKN_127","127","","","","","","919","","0","mustard","neonyellow","[""mustard"",""neonyellow"",""low nameability""]","left-right","[""mustard"",""neonyellow"",""low nameability""]","6","low nameability","52","left","trigger",""
"html-button-response","246","266667","0.0-191.0-0.0","CKN_127","127","","","","","","942","<button class=""jspsych-btn""><img src=""stimuli/mustard.png"" style=""width: 200px;height: 200px;""></button>","0","mustard","neonyellow","[""mustard"",""neonyellow"",""low nameability""]","left-right","[""mustard"",""neonyellow"",""low nameability""]","6","low nameability","52","left","response","1"
"html-audio-button-response","247","266880","0.0-191.0-1.0","CKN_127","127","","","","","","null","stimuli/bleep.m4a","null","mustard","neonyellow","[""mustard"",""neonyellow"",""low nameability""]","left-right","[""mustard"",""neonyellow"",""low nameability""]","6","low nameability","52","left","audio_feedback","1"
"html-button-response","248","267400","0.0-192.0","CKN_127","127","","","","","","null","<button class=""jspsych-btn""><img src=""stimuli/white_square.png"" style=""width: 200px;height: 200px;""></button>","null","mustard","neonyellow","[""mustard"",""neonyellow"",""low nameability""]","left-right","[""mustard"",""neonyellow"",""low nameability""]","6","low nameability","52","left","iti",""
"html-button-response","249","268679","0.0-193.0","CKN_127","127","","","","","","1249","","0","blue","yellow","[""blue"",""yellow"",""high nameability""]","left-right","[""blue"",""yellow"",""high nameability""]","6","high nameability","53","left","trigger",""
"html-button-response","250","269529","0.0-194.0-0.0","CKN_127","127","","","","","","841","<button class=""jspsych-btn""><img src=""stimuli/blue.png"" style=""width: 200px;height: 200px;""></button>","0","blue","yellow","[""blue"",""yellow"",""high nameability""]","left-right","[""blue"",""yellow"",""high nameability""]","6","high nameability","53","left","response","1"
"html-audio-button-response","251","269731","0.0-194.0-1.0","CKN_127","127","","","","","","null","stimuli/bleep.m4a","null","blue","yellow","[""blue"",""yellow"",""high nameability""]","left-right","[""blue"",""yellow"",""high nameability""]","6","high nameability","53","left","audio_feedback","1"
"html-button-response","252","270251","0.0-195.0","CKN_127","127","","","","","","null","<button class=""jspsych-btn""><img src=""stimuli/white_square.png"" style=""width: 200px;height: 200px;""></button>","null","blue","yellow","[""blue"",""yellow"",""high nameability""]","left-right","[""blue"",""yellow"",""high nameability""]","6","high nameability","53","left","iti",""
"html-button-response","253","271693","0.0-196.0","CKN_127","127","","","","","","1428","","0","brown","orange","[""brown"",""orange"",""high nameability""]","left-right","[""brown"",""orange"",""high nameability""]","6","high nameability","54","left","trigger",""
"html-button-response","254","272793","0.0-197.0-0.0","CKN_127","127","","","","","","1094","<button class=""jspsych-btn""><img src=""stimuli/brown.png"" style=""width: 200px;height: 200px;""></button>","0","brown","orange","[""brown"",""orange"",""high nameability""]","left-right","[""brown"",""orange"",""high nameability""]","6","high nameability","54","left","response","1"
"html-audio-button-response","255","273007","0.0-197.0-1.0","CKN_127","127","","","","","","null","stimuli/bleep.m4a","null","brown","orange","[""brown"",""orange"",""high nameability""]","left-right","[""brown"",""orange"",""high nameability""]","6","high nameability","54","left","audio_feedback","1"
"html-button-response","256","273536","0.0-198.0","CKN_127","127","","","","","","null","<button class=""jspsych-btn""><img src=""stimuli/white_square.png"" style=""width: 200px;height: 200px;""></button>","null","brown","orange","[""brown"",""orange"",""high nameability""]","left-right","[""brown"",""orange"",""high nameability""]","6","high nameability","54","left","iti",""
"html-button-response","257","274418","0.0-199.0","CKN_127","127","","","","","","869","","0","yellow","blue","[""yellow"",""blue"",""high nameability""]","right-left","[""blue"",""yellow""]","6","high nameability","55","right","trigger",""
"html-button-response","258","275475","0.0-200.0-0.0","CKN_127","127","","","","","","1051","<button class=""jspsych-btn""><img src=""stimuli/yellow.png"" style=""width: 200px;height: 200px;""></button>","1","yellow","blue","[""yellow"",""blue"",""high nameability""]","right-left","[""blue"",""yellow""]","6","high nameability","55","right","response","1"
"html-audio-button-response","259","275683","0.0-200.0-1.0","CKN_127","127","","","","","","null","stimuli/bleep.m4a","null","yellow","blue","[""yellow"",""blue"",""high nameability""]","right-left","[""blue"",""yellow""]","6","high nameability","55","right","audio_feedback","1"
"html-button-response","260","276211","0.0-201.0","CKN_127","127","","","","","","null","<button class=""jspsych-btn""><img src=""stimuli/white_square.png"" style=""width: 200px;height: 200px;""></button>","null","yellow","blue","[""yellow"",""blue"",""high nameability""]","right-left","[""blue"",""yellow""]","6","high nameability","55","right","iti",""
"html-button-response","261","277041","0.0-202.0","CKN_127","127","","","","","","813","","0","turquoise","pink","[""turquoise"",""pink"",""low nameability""]","left-right","[""turquoise"",""pink"",""low nameability""]","6","low nameability","56","left","trigger",""
"html-button-response","262","278000","0.0-203.0-0.0","CKN_127","127","","","","","","951","<button class=""jspsych-btn""><img src=""stimuli/turquoise.png"" style=""width: 200px;height: 200px;""></button>","0","turquoise","pink","[""turquoise"",""pink"",""low nameability""]","left-right","[""turquoise"",""pink"",""low nameability""]","6","low nameability","56","left","response","1"
"html-audio-button-response","263","278205","0.0-203.0-1.0","CKN_127","127","","","","","","null","stimuli/bleep.m4a","null","turquoise","pink","[""turquoise"",""pink"",""low nameability""]","left-right","[""turquoise"",""pink"",""low nameability""]","6","low nameability","56","left","audio_feedback","1"
"html-button-response","264","278724","0.0-204.0","CKN_127","127","","","","","","null","<button class=""jspsych-btn""><img src=""stimuli/white_square.png"" style=""width: 200px;height: 200px;""></button>","null","turquoise","pink","[""turquoise"",""pink"",""low nameability""]","left-right","[""turquoise"",""pink"",""low nameability""]","6","low nameability","56","left","iti",""
"html-button-response","265","281059","0.0-205.0","CKN_127","127","","","","","","2317","","0","neonyellow","darkgreenblue","[""neonyellow"",""darkgreenblue"",""low nameability""]","right-left","[""darkgreenblue"",""neonyellow""]","6","low nameability","57","right","trigger",""
"html-button-response","266","283309","0.0-206.0-0.0","CKN_127","127","","","","","","2243","<button class=""jspsych-btn""><img src=""stimuli/neonyellow.png"" style=""width: 200px;height: 200px;""></button>","1","neonyellow","darkgreenblue","[""neonyellow"",""darkgreenblue"",""low nameability""]","right-left","[""darkgreenblue"",""neonyellow""]","6","low nameability","57","right","response","1"
"html-audio-button-response","267","283519","0.0-206.0-1.0","CKN_127","127","","","","","","null","stimuli/bleep.m4a","null","neonyellow","darkgreenblue","[""neonyellow"",""darkgreenblue"",""low nameability""]","right-left","[""darkgreenblue"",""neonyellow""]","6","low nameability","57","right","audio_feedback","1"
"html-button-response","268","284046","0.0-207.0","CKN_127","127","","","","","","null","<button class=""jspsych-btn""><img src=""stimuli/white_square.png"" style=""width: 200px;height: 200px;""></button>","null","neonyellow","darkgreenblue","[""neonyellow"",""darkgreenblue"",""low nameability""]","right-left","[""darkgreenblue"",""neonyellow""]","6","low nameability","57","right","iti",""
"html-button-response","269","286412","0.0-208.0","CKN_127","127","","","","","","2353","","0","brown","red","[""brown"",""red"",""high nameability""]","right-left","[""red"",""brown""]","6","high nameability","58","right","trigger",""
"html-button-response","270","287295","0.0-209.0-0.0","CKN_127","127","","","","","","877","<button class=""jspsych-btn""><img src=""stimuli/brown.png"" style=""width: 200px;height: 200px;""></button>","1","brown","red","[""brown"",""red"",""high nameability""]","right-left","[""red"",""brown""]","6","high nameability","58","right","response","1"
"html-audio-button-response","271","287500","0.0-209.0-1.0","CKN_127","127","","","","","","null","stimuli/bleep.m4a","null","brown","red","[""brown"",""red"",""high nameability""]","right-left","[""red"",""brown""]","6","high nameability","58","right","audio_feedback","1"
"html-button-response","272","288021","0.0-210.0","CKN_127","127","","","","","","null","<button class=""jspsych-btn""><img src=""stimuli/white_square.png"" style=""width: 200px;height: 200px;""></button>","null","brown","red","[""brown"",""red"",""high nameability""]","right-left","[""red"",""brown""]","6","high nameability","58","right","iti",""
"html-button-response","273","289803","0.0-211.0","CKN_127","127","","","","","","1767","","0","blue","orange","[""blue"",""orange"",""high nameability""]","right-left","[""orange"",""blue""]","6","high nameability","59","right","trigger",""
"html-button-response","274","292869","0.0-212.0-0.0","CKN_127","127","","","","","","3057","<button class=""jspsych-btn""><img src=""stimuli/blue.png"" style=""width: 200px;height: 200px;""></button>","1","blue","orange","[""blue"",""orange"",""high nameability""]","right-left","[""orange"",""blue""]","6","high nameability","59","right","response","1"
"html-audio-button-response","275","293074","0.0-212.0-1.0","CKN_127","127","","","","","","null","stimuli/bleep.m4a","null","blue","orange","[""blue"",""orange"",""high nameability""]","right-left","[""orange"",""blue""]","6","high nameability","59","right","audio_feedback","1"
"html-button-response","276","293587","0.0-213.0","CKN_127","127","","","","","","null","<button class=""jspsych-btn""><img src=""stimuli/white_square.png"" style=""width: 200px;height: 200px;""></button>","null","blue","orange","[""blue"",""orange"",""high nameability""]","right-left","[""orange"",""blue""]","6","high nameability","59","right","iti",""
"html-button-response","277","294306","0.0-214.0","CKN_127","127","","","","","","694","","0","purple","blue","[""purple"",""blue"",""high nameability""]","right-left","[""blue"",""purple""]","6","high nameability","60","right","trigger",""
"html-button-response","278","295400","0.0-215.0-0.0","CKN_127","127","","","","","","1085","<button class=""jspsych-btn""><img src=""stimuli/purple.png"" style=""width: 200px;height: 200px;""></button>","1","purple","blue","[""purple"",""blue"",""high nameability""]","right-left","[""blue"",""purple""]","6","high nameability","60","right","response","1"
"html-audio-button-response","279","295603","0.0-215.0-1.0","CKN_127","127","","","","","","null","stimuli/bleep.m4a","null","purple","blue","[""purple"",""blue"",""high nameability""]","right-left","[""blue"",""purple""]","6","high nameability","60","right","audio_feedback","1"
"html-button-response","280","296118","0.0-216.0","CKN_127","127","","","","","","null","<button class=""jspsych-btn""><img src=""stimuli/white_square.png"" style=""width: 200px;height: 200px;""></button>","null","purple","blue","[""purple"",""blue"",""high nameability""]","right-left","[""blue"",""purple""]","6","high nameability","60","right","iti",""
