"trial_type","trial_index","time_elapsed","internal_node_id","subject_id","seed","success","timeout","failed_images","failed_audio","failed_video","rt","stimulus","response","target","foil","choices","combination_order","choices_in_order","round","condition","trial_counter","target_location","trial_kind","correct"
"pavlovia","0","19","0.0-0.0","CKN_106","106","","","","","","","","","","","","","","","","","","",""
"preload","1","1406","0.0-1.0","CKN_106","106","true","false","[]","[]","[]","","","","","","","","","","","","","",""
"fullscreen","2","4889","0.0-2.0","CKN_106","106","true","","","","","","","","","","","","","","","","","",""
"html-button-response","3","263749","0.0-3.0","CKN_106","106","","","","","","258837","","0","","","","","","","","","","",""
"html-button-response","4","268232","0.0-4.0","CKN_106","106","","","","","","4470","","0","star","square","[""square"",""star""]","left-right","[""square"",""star""]","1","practice","1","right","trigger",""
"html-button-response","5","275838","0.0-5.0-0.0","CKN_106","106","","","","","","7589","<button class=""jspsych-btn""><img src=""stimuli/star.png"" style=""width: 200px;height: 200px;""></button>","1","star","square","[""square"",""star""]","left-right","[""square"",""star""]","1","practice","1","right","response","1"
"html-audio-button-response","6","276052","0.0-5.0-1.0","CKN_106","106","","","","","","null","stimuli/bleep.m4a","null","star","square","[""square"",""star""]","left-right","[""square"",""star""]","1","practice","1","right","audio_feedback","1"
"html-button-response","7","276582","0.0-6.0","CKN_106","106","","","","","","null","<button class=""jspsych-btn""><img src=""stimuli/white_square.png"" style=""width: 200px;height: 200px;""></button>","null","star","square","[""square"",""star""]","left-right","[""square"",""star""]","1","practice","1","right","iti",""
"html-button-response","8","281900","0.0-7.0","CKN_106","106","","","","","","5308","","0","triangle","pentagram","[""triangle"",""pentagram""]","left-right","[""triangle"",""pentagram""]","1","practice","1","left","trigger",""
"html-button-response","9","286389","0.0-8.0-0.0","CKN_106","106","","","","","","4480","<button class=""jspsych-btn""><img src=""stimuli/triangle.png"" style=""width: 200px;height: 200px;""></button>","0","triangle","pentagram","[""triangle"",""pentagram""]","left-right","[""triangle"",""pentagram""]","1","practice","1","left","response","1"
"html-audio-button-response","10","286597","0.0-8.0-1.0","CKN_106","106","","","","","","null","stimuli/bleep.m4a","null","triangle","pentagram","[""triangle"",""pentagram""]","left-right","[""triangle"",""pentagram""]","1","practice","1","left","audio_feedback","1"
"html-button-response","11","287118","0.0-9.0","CKN_106","106","","","","","","null","<button class=""jspsych-btn""><img src=""stimuli/white_square.png"" style=""width: 200px;height: 200px;""></button>","null","triangle","pentagram","[""triangle"",""pentagram""]","left-right","[""triangle"",""pentagram""]","1","practice","1","left","iti",""
"html-button-response","12","290895","0.0-10.0","CKN_106","106","","","","","","3765","","0","diamond","rectangle","[""rectangle"",""diamond""]","left-right","[""rectangle"",""diamond""]","1","practice","1","right","trigger",""
"html-button-response","13","292774","0.0-11.0-0.0","CKN_106","106","","","","","","1869","<button class=""jspsych-btn""><img src=""stimuli/diamond.png"" style=""width: 200px;height: 200px;""></button>","1","diamond","rectangle","[""rectangle"",""diamond""]","left-right","[""rectangle"",""diamond""]","1","practice","1","right","response","1"
"html-audio-button-response","14","292972","0.0-11.0-1.0","CKN_106","106","","","","","","null","stimuli/bleep.m4a","null","diamond","rectangle","[""rectangle"",""diamond""]","left-right","[""rectangle"",""diamond""]","1","practice","1","right","audio_feedback","1"
"html-button-response","15","293491","0.0-12.0","CKN_106","106","","","","","","null","<button class=""jspsych-btn""><img src=""stimuli/white_square.png"" style=""width: 200px;height: 200px;""></button>","null","diamond","rectangle","[""rectangle"",""diamond""]","left-right","[""rectangle"",""diamond""]","1","practice","1","right","iti",""
"html-button-response","16","296213","0.0-13.0","CKN_106","106","","","","","","2708","","0","pentagram","star","[""pentagram"",""star""]","left-right","[""pentagram"",""star""]","1","practice","1","left","trigger",""
"html-button-response","17","297821","0.0-14.0-0.0","CKN_106","106","","","","","","1601","<button class=""jspsych-btn""><img src=""stimuli/pentagram.png"" style=""width: 200px;height: 200px;""></button>","0","pentagram","star","[""pentagram"",""star""]","left-right","[""pentagram"",""star""]","1","practice","1","left","response","1"
"html-audio-button-response","18","298032","0.0-14.0-1.0","CKN_106","106","","","","","","null","stimuli/bleep.m4a","null","pentagram","star","[""pentagram"",""star""]","left-right","[""pentagram"",""star""]","1","practice","1","left","audio_feedback","1"
"html-button-response","19","298546","0.0-15.0","CKN_106","106","","","","","","null","<button class=""jspsych-btn""><img src=""stimuli/white_square.png"" style=""width: 200px;height: 200px;""></button>","null","pentagram","star","[""pentagram"",""star""]","left-right","[""pentagram"",""star""]","1","practice","1","left","iti",""
"html-button-response","20","305439","0.0-16.0","CKN_106","106","","","","","","6884","","0","","","","","","","","","","",""
"html-button-response","21","309675","0.0-17.0","CKN_106","106","","","","","","4229","","0","pink","neonyellow","[""pink"",""neonyellow"",""low nameability""]","right-left","[""neonyellow"",""pink""]","1","low nameability","1","right","trigger",""
"html-button-response","22","319539","0.0-18.0-0.0","CKN_106","106","","","","","","9856","<button class=""jspsych-btn""><img src=""stimuli/pink.png"" style=""width: 200px;height: 200px;""></button>","1","pink","neonyellow","[""pink"",""neonyellow"",""low nameability""]","right-left","[""neonyellow"",""pink""]","1","low nameability","1","right","response","1"
"html-audio-button-response","23","319748","0.0-18.0-1.0","CKN_106","106","","","","","","null","stimuli/bleep.m4a","null","pink","neonyellow","[""pink"",""neonyellow"",""low nameability""]","right-left","[""neonyellow"",""pink""]","1","low nameability","1","right","audio_feedback","1"
"html-button-response","24","320262","0.0-19.0","CKN_106","106","","","","","","null","<button class=""jspsych-btn""><img src=""stimuli/white_square.png"" style=""width: 200px;height: 200px;""></button>","null","pink","neonyellow","[""pink"",""neonyellow"",""low nameability""]","right-left","[""neonyellow"",""pink""]","1","low nameability","1","right","iti",""
"html-button-response","25","322679","0.0-20.0","CKN_106","106","","","","","","2402","","0","blue","purple","[""blue"",""purple"",""high nameability""]","right-left","[""purple"",""blue""]","1","high nameability","2","right","trigger",""
"html-button-response","26","325441","0.0-21.0-0.0","CKN_106","106","","","","","","2753","<button class=""jspsych-btn""><img src=""stimuli/blue.png"" style=""width: 200px;height: 200px;""></button>","1","blue","purple","[""blue"",""purple"",""high nameability""]","right-left","[""purple"",""blue""]","1","high nameability","2","right","response","1"
"html-audio-button-response","27","325647","0.0-21.0-1.0","CKN_106","106","","","","","","null","stimuli/bleep.m4a","null","blue","purple","[""blue"",""purple"",""high nameability""]","right-left","[""purple"",""blue""]","1","high nameability","2","right","audio_feedback","1"
"html-button-response","28","326163","0.0-22.0","CKN_106","106","","","","","","null","<button class=""jspsych-btn""><img src=""stimuli/white_square.png"" style=""width: 200px;height: 200px;""></button>","null","blue","purple","[""blue"",""purple"",""high nameability""]","right-left","[""purple"",""blue""]","1","high nameability","2","right","iti",""
"html-button-response","29","327193","0.0-23.0","CKN_106","106","","","","","","1017","","0","turquoise","pink","[""turquoise"",""pink"",""low nameability""]","left-right","[""turquoise"",""pink"",""low nameability""]","1","low nameability","3","left","trigger",""
"html-button-response","30","329224","0.0-24.0-0.0","CKN_106","106","","","","","","2023","<button class=""jspsych-btn""><img src=""stimuli/turquoise.png"" style=""width: 200px;height: 200px;""></button>","0","turquoise","pink","[""turquoise"",""pink"",""low nameability""]","left-right","[""turquoise"",""pink"",""low nameability""]","1","low nameability","3","left","response","1"
"html-audio-button-response","31","329424","0.0-24.0-1.0","CKN_106","106","","","","","","null","stimuli/bleep.m4a","null","turquoise","pink","[""turquoise"",""pink"",""low nameability""]","left-right","[""turquoise"",""pink"",""low nameability""]","1","low nameability","3","left","audio_feedback","1"
"html-button-response","32","329934","0.0-25.0","CKN_106","106","","","","","","null","<button class=""jspsych-btn""><img src=""stimuli/white_square.png"" style=""width: 200px;height: 200px;""></button>","null","turquoise","pink","[""turquoise"",""pink"",""low nameability""]","left-right","[""turquoise"",""pink"",""low nameability""]","1","low nameability","3","left","iti",""
"html-button-response","33","330926","0.0-26.0","CKN_106","106","","","","","","978","","0","turquoise","mustard","[""turquoise"",""mustard"",""low nameability""]","left-right","[""turquoise"",""mustard"",""low nameability""]","1","low nameability","4","left","trigger",""
"html-button-response","34","333138","0.0-27.0-0.0","CKN_106","106","","","","","","2204","<button class=""jspsych-btn""><img src=""stimuli/turquoise.png"" style=""width: 200px;height: 200px;""></button>","0","turquoise","mustard","[""turquoise"",""mustard"",""low nameability""]","left-right","[""turquoise"",""mustard"",""low nameability""]","1","low nameability","4","left","response","1"
"html-audio-button-response","35","333346","0.0-27.0-1.0","CKN_106","106","","","","","","null","stimuli/bleep.m4a","null","turquoise","mustard","[""turquoise"",""mustard"",""low nameability""]","left-right","[""turquoise"",""mustard"",""low nameability""]","1","low nameability","4","left","audio_feedback","1"
"html-button-response","36","333860","0.0-28.0","CKN_106","106","","","","","","null","<button class=""jspsych-btn""><img src=""stimuli/white_square.png"" style=""width: 200px;height: 200px;""></button>","null","turquoise","mustard","[""turquoise"",""mustard"",""low nameability""]","left-right","[""turquoise"",""mustard"",""low nameability""]","1","low nameability","4","left","iti",""
"html-button-response","37","337559","0.0-29.0","CKN_106","106","","","","","","3678","","0","orange","blue","[""orange"",""blue"",""high nameability""]","right-left","[""blue"",""orange""]","1","high nameability","5","right","trigger",""
"html-button-response","38","339312","0.0-30.0-0.0","CKN_106","106","","","","","","1746","<button class=""jspsych-btn""><img src=""stimuli/orange.png"" style=""width: 200px;height: 200px;""></button>","1","orange","blue","[""orange"",""blue"",""high nameability""]","right-left","[""blue"",""orange""]","1","high nameability","5","right","response","1"
"html-audio-button-response","39","339516","0.0-30.0-1.0","CKN_106","106","","","","","","null","stimuli/bleep.m4a","null","orange","blue","[""orange"",""blue"",""high nameability""]","right-left","[""blue"",""orange""]","1","high nameability","5","right","audio_feedback","1"
"html-button-response","40","340028","0.0-31.0","CKN_106","106","","","","","","null","<button class=""jspsych-btn""><img src=""stimuli/white_square.png"" style=""width: 200px;height: 200px;""></button>","null","orange","blue","[""orange"",""blue"",""high nameability""]","right-left","[""blue"",""orange""]","1","high nameability","5","right","iti",""
"html-button-response","41","342722","0.0-32.0","CKN_106","106","","","","","","2677","","0","pink","mustard","[""pink"",""mustard"",""low nameability""]","right-left","[""mustard"",""pink""]","1","low nameability","6","right","trigger",""
"html-button-response","42","346316","0.0-33.0-0.0","CKN_106","106","","","","","","3586","<button class=""jspsych-btn""><img src=""stimuli/pink.png"" style=""width: 200px;height: 200px;""></button>","1","pink","mustard","[""pink"",""mustard"",""low nameability""]","right-left","[""mustard"",""pink""]","1","low nameability","6","right","response","1"
"html-audio-button-response","43","346523","0.0-33.0-1.0","CKN_106","106","","","","","","null","stimuli/bleep.m4a","null","pink","mustard","[""pink"",""mustard"",""low nameability""]","right-left","[""mustard"",""pink""]","1","low nameability","6","right","audio_feedback","1"
"html-button-response","44","347043","0.0-34.0","CKN_106","106","","","","","","null","<button class=""jspsych-btn""><img src=""stimuli/white_square.png"" style=""width: 200px;height: 200px;""></button>","null","pink","mustard","[""pink"",""mustard"",""low nameability""]","right-left","[""mustard"",""pink""]","1","low nameability","6","right","iti",""
"html-button-response","45","348298","0.0-35.0","CKN_106","106","","","","","","1245","","0","darkgreenblue","pink","[""darkgreenblue"",""pink"",""low nameability""]","right-left","[""pink"",""darkgreenblue""]","1","low nameability","7","right","trigger",""
"html-button-response","46","352162","0.0-36.0-0.0","CKN_106","106","","","","","","3857","<button class=""jspsych-btn""><img src=""stimuli/darkgreenblue.png"" style=""width: 200px;height: 200px;""></button>","1","darkgreenblue","pink","[""darkgreenblue"",""pink"",""low nameability""]","right-left","[""pink"",""darkgreenblue""]","1","low nameability","7","right","response","1"
"html-audio-button-response","47","352369","0.0-36.0-1.0","CKN_106","106","","","","","","null","stimuli/bleep.m4a","null","darkgreenblue","pink","[""darkgreenblue"",""pink"",""low nameability""]","right-left","[""pink"",""darkgreenblue""]","1","low nameability","7","right","audio_feedback","1"
"html-button-response","48","352883","0.0-37.0","CKN_106","106","","","","","","null","<button class=""jspsych-btn""><img src=""stimuli/white_square.png"" style=""width: 200px;height: 200px;""></button>","null","darkgreenblue","pink","[""darkgreenblue"",""pink"",""low nameability""]","right-left","[""pink"",""darkgreenblue""]","1","low nameability","7","right","iti",""
"html-button-response","49","353322","0.0-38.0","CKN_106","106","","","","","","429","","0","turquoise","lightred","[""turquoise"",""lightred"",""low nameability""]","right-left","[""lightred"",""turquoise""]","1","low nameability","8","right","trigger",""
"html-button-response","50","359320","0.0-39.0-0.0","CKN_106","106","","","","","","5989","<button class=""jspsych-btn""><img src=""stimuli/turquoise.png"" style=""width: 200px;height: 200px;""></button>","1","turquoise","lightred","[""turquoise"",""lightred"",""low nameability""]","right-left","[""lightred"",""turquoise""]","1","low nameability","8","right","response","1"
"html-audio-button-response","51","359531","0.0-39.0-1.0","CKN_106","106","","","","","","null","stimuli/bleep.m4a","null","turquoise","lightred","[""turquoise"",""lightred"",""low nameability""]","right-left","[""lightred"",""turquoise""]","1","low nameability","8","right","audio_feedback","1"
"html-button-response","52","360042","0.0-40.0","CKN_106","106","","","","","","null","<button class=""jspsych-btn""><img src=""stimuli/white_square.png"" style=""width: 200px;height: 200px;""></button>","null","turquoise","lightred","[""turquoise"",""lightred"",""low nameability""]","right-left","[""lightred"",""turquoise""]","1","low nameability","8","right","iti",""
"html-button-response","53","362388","0.0-41.0","CKN_106","106","","","","","","2338","","0","blue","red","[""blue"",""red"",""high nameability""]","right-left","[""red"",""blue""]","1","high nameability","9","right","trigger",""
"html-button-response","54","363891","0.0-42.0-0.0","CKN_106","106","","","","","","1490","<button class=""jspsych-btn""><img src=""stimuli/blue.png"" style=""width: 200px;height: 200px;""></button>","1","blue","red","[""blue"",""red"",""high nameability""]","right-left","[""red"",""blue""]","1","high nameability","9","right","response","1"
"html-audio-button-response","55","364099","0.0-42.0-1.0","CKN_106","106","","","","","","null","stimuli/bleep.m4a","null","blue","red","[""blue"",""red"",""high nameability""]","right-left","[""red"",""blue""]","1","high nameability","9","right","audio_feedback","1"
"html-button-response","56","364615","0.0-43.0","CKN_106","106","","","","","","null","<button class=""jspsych-btn""><img src=""stimuli/white_square.png"" style=""width: 200px;height: 200px;""></button>","null","blue","red","[""blue"",""red"",""high nameability""]","right-left","[""red"",""blue""]","1","high nameability","9","right","iti",""
"html-button-response","57","365616","0.0-44.0","CKN_106","106","","","","","","988","","0","pink","darkgreenblue","[""pink"",""darkgreenblue"",""low nameability""]","left-right","[""pink"",""darkgreenblue"",""low nameability""]","1","low nameability","10","left","trigger",""
"html-button-response","58","368340","0.0-45.0-0.0","CKN_106","106","","","","","","2714","<button class=""jspsych-btn""><img src=""stimuli/pink.png"" style=""width: 200px;height: 200px;""></button>","0","pink","darkgreenblue","[""pink"",""darkgreenblue"",""low nameability""]","left-right","[""pink"",""darkgreenblue"",""low nameability""]","1","low nameability","10","left","response","1"
"html-audio-button-response","59","368545","0.0-45.0-1.0","CKN_106","106","","","","","","null","stimuli/bleep.m4a","null","pink","darkgreenblue","[""pink"",""darkgreenblue"",""low nameability""]","left-right","[""pink"",""darkgreenblue"",""low nameability""]","1","low nameability","10","left","audio_feedback","1"
"html-button-response","60","369059","0.0-46.0","CKN_106","106","","","","","","null","<button class=""jspsych-btn""><img src=""stimuli/white_square.png"" style=""width: 200px;height: 200px;""></button>","null","pink","darkgreenblue","[""pink"",""darkgreenblue"",""low nameability""]","left-right","[""pink"",""darkgreenblue"",""low nameability""]","1","low nameability","10","left","iti",""
"pavlovia","61","369167","0.0-47.0","CKN_106","106","","","","","","","","","","","","","","","","","","",""
"pavlovia","62","369176","0.0-48.0","CKN_106","106","","","","","","","","","","","","","","","","","","",""
"html-audio-button-response","63","379850","0.0-49.0","CKN_106","106","","","","","","10787","stimuli/tada.m4a","0","","","","","","","","","","",""
"html-button-response","64","380806","0.0-50.0","CKN_106","106","","","","","","949","","0","","","","","","","","","","",""
"html-button-response","65","384733","0.0-51.0","CKN_106","106","","","","","","3918","","0","purple","brown","[""purple"",""brown"",""high nameability""]","right-left","[""brown"",""purple""]","2","high nameability","11","right","trigger",""
"html-button-response","66","387227","0.0-52.0-0.0","CKN_106","106","","","","","","2486","<button class=""jspsych-btn""><img src=""stimuli/purple.png"" style=""width: 200px;height: 200px;""></button>","1","purple","brown","[""purple"",""brown"",""high nameability""]","right-left","[""brown"",""purple""]","2","high nameability","11","right","response","1"
"html-audio-button-response","67","387440","0.0-52.0-1.0","CKN_106","106","","","","","","null","stimuli/bleep.m4a","null","purple","brown","[""purple"",""brown"",""high nameability""]","right-left","[""brown"",""purple""]","2","high nameability","11","right","audio_feedback","1"
"html-button-response","68","387950","0.0-53.0","CKN_106","106","","","","","","null","<button class=""jspsych-btn""><img src=""stimuli/white_square.png"" style=""width: 200px;height: 200px;""></button>","null","purple","brown","[""purple"",""brown"",""high nameability""]","right-left","[""brown"",""purple""]","2","high nameability","11","right","iti",""
"html-button-response","69","388825","0.0-54.0","CKN_106","106","","","","","","869","","0","orange","brown","[""orange"",""brown"",""high nameability""]","left-right","[""orange"",""brown"",""high nameability""]","2","high nameability","12","left","trigger",""
"html-button-response","70","389968","0.0-55.0-0.0","CKN_106","106","","","","","","1135","<button class=""jspsych-btn""><img src=""stimuli/orange.png"" style=""width: 200px;height: 200px;""></button>","0","orange","brown","[""orange"",""brown"",""high nameability""]","left-right","[""orange"",""brown"",""high nameability""]","2","high nameability","12","left","response","1"
"html-audio-button-response","71","390175","0.0-55.0-1.0","CKN_106","106","","","","","","null","stimuli/bleep.m4a","null","orange","brown","[""orange"",""brown"",""high nameability""]","left-right","[""orange"",""brown"",""high nameability""]","2","high nameability","12","left","audio_feedback","1"
"html-button-response","72","390686","0.0-56.0","CKN_106","106","","","","","","null","<button class=""jspsych-btn""><img src=""stimuli/white_square.png"" style=""width: 200px;height: 200px;""></button>","null","orange","brown","[""orange"",""brown"",""high nameability""]","left-right","[""orange"",""brown"",""high nameability""]","2","high nameability","12","left","iti",""
"html-button-response","73","391789","0.0-57.0","CKN_106","106","","","","","","1094","","0","red","blue","[""red"",""blue"",""high nameability""]","left-right","[""red"",""blue"",""high nameability""]","2","high nameability","13","left","trigger",""
"html-button-response","74","394793","0.0-58.0-0.0","CKN_106","106","","","","","","2996","<button class=""jspsych-btn""><img src=""stimuli/red.png"" style=""width: 200px;height: 200px;""></button>","0","red","blue","[""red"",""blue"",""high nameability""]","left-right","[""red"",""blue"",""high nameability""]","2","high nameability","13","left","response","1"
"html-audio-button-response","75","394999","0.0-58.0-1.0","CKN_106","106","","","","","","null","stimuli/bleep.m4a","null","red","blue","[""red"",""blue"",""high nameability""]","left-right","[""red"",""blue"",""high nameability""]","2","high nameability","13","left","audio_feedback","1"
"html-button-response","76","395509","0.0-59.0","CKN_106","106","","","","","","null","<button class=""jspsych-btn""><img src=""stimuli/white_square.png"" style=""width: 200px;height: 200px;""></button>","null","red","blue","[""red"",""blue"",""high nameability""]","left-right","[""red"",""blue"",""high nameability""]","2","high nameability","13","left","iti",""
"html-button-response","77","395937","0.0-60.0","CKN_106","106","","","","","","419","","0","lightred","mustard","[""lightred"",""mustard"",""low nameability""]","right-left","[""mustard"",""lightred""]","2","low nameability","14","right","trigger",""
"html-button-response","78","398744","0.0-61.0-0.0","CKN_106","106","","","","","","2793","<button class=""jspsych-btn""><img src=""stimuli/lightred.png"" style=""width: 200px;height: 200px;""></button>","1","lightred","mustard","[""lightred"",""mustard"",""low nameability""]","right-left","[""mustard"",""lightred""]","2","low nameability","14","right","response","1"
"html-audio-button-response","79","398961","0.0-61.0-1.0","CKN_106","106","","","","","","null","stimuli/bleep.m4a","null","lightred","mustard","[""lightred"",""mustard"",""low nameability""]","right-left","[""mustard"",""lightred""]","2","low nameability","14","right","audio_feedback","1"
"html-button-response","80","399485","0.0-62.0","CKN_106","106","","","","","","null","<button class=""jspsych-btn""><img src=""stimuli/white_square.png"" style=""width: 200px;height: 200px;""></button>","null","lightred","mustard","[""lightred"",""mustard"",""low nameability""]","right-left","[""mustard"",""lightred""]","2","low nameability","14","right","iti",""
"html-button-response","81","400394","0.0-63.0","CKN_106","106","","","","","","888","","0","yellow","purple","[""yellow"",""purple"",""high nameability""]","left-right","[""yellow"",""purple"",""high nameability""]","2","high nameability","15","left","trigger",""
"html-button-response","82","401810","0.0-64.0-0.0","CKN_106","106","","","","","","1402","<button class=""jspsych-btn""><img src=""stimuli/yellow.png"" style=""width: 200px;height: 200px;""></button>","0","yellow","purple","[""yellow"",""purple"",""high nameability""]","left-right","[""yellow"",""purple"",""high nameability""]","2","high nameability","15","left","response","1"
"html-audio-button-response","83","402019","0.0-64.0-1.0","CKN_106","106","","","","","","null","stimuli/bleep.m4a","null","yellow","purple","[""yellow"",""purple"",""high nameability""]","left-right","[""yellow"",""purple"",""high nameability""]","2","high nameability","15","left","audio_feedback","1"
"html-button-response","84","402532","0.0-65.0","CKN_106","106","","","","","","null","<button class=""jspsych-btn""><img src=""stimuli/white_square.png"" style=""width: 200px;height: 200px;""></button>","null","yellow","purple","[""yellow"",""purple"",""high nameability""]","left-right","[""yellow"",""purple"",""high nameability""]","2","high nameability","15","left","iti",""
"html-button-response","85","403406","0.0-66.0","CKN_106","106","","","","","","860","","0","orange","red","[""orange"",""red"",""high nameability""]","left-right","[""orange"",""red"",""high nameability""]","2","high nameability","16","left","trigger",""
"html-button-response","86","406203","0.0-67.0-0.0","CKN_106","106","","","","","","2789","<button class=""jspsych-btn""><img src=""stimuli/orange.png"" style=""width: 200px;height: 200px;""></button>","0","orange","red","[""orange"",""red"",""high nameability""]","left-right","[""orange"",""red"",""high nameability""]","2","high nameability","16","left","response","1"
"html-audio-button-response","87","406412","0.0-67.0-1.0","CKN_106","106","","","","","","null","stimuli/bleep.m4a","null","orange","red","[""orange"",""red"",""high nameability""]","left-right","[""orange"",""red"",""high nameability""]","2","high nameability","16","left","audio_feedback","1"
"html-button-response","88","406933","0.0-68.0","CKN_106","106","","","","","","null","<button class=""jspsych-btn""><img src=""stimuli/white_square.png"" style=""width: 200px;height: 200px;""></button>","null","orange","red","[""orange"",""red"",""high nameability""]","left-right","[""orange"",""red"",""high nameability""]","2","high nameability","16","left","iti",""
"html-button-response","89","408921","0.0-69.0","CKN_106","106","","","","","","1973","","0","darkgreenblue","lightred","[""darkgreenblue"",""lightred"",""low nameability""]","left-right","[""darkgreenblue"",""lightred"",""low nameability""]","2","low nameability","17","left","trigger",""
"html-button-response","90","414187","0.0-70.0-0.0","CKN_106","106","","","","","","5258","<button class=""jspsych-btn""><img src=""stimuli/darkgreenblue.png"" style=""width: 200px;height: 200px;""></button>","0","darkgreenblue","lightred","[""darkgreenblue"",""lightred"",""low nameability""]","left-right","[""darkgreenblue"",""lightred"",""low nameability""]","2","low nameability","17","left","response","1"
"html-audio-button-response","91","414395","0.0-70.0-1.0","CKN_106","106","","","","","","null","stimuli/bleep.m4a","null","darkgreenblue","lightred","[""darkgreenblue"",""lightred"",""low nameability""]","left-right","[""darkgreenblue"",""lightred"",""low nameability""]","2","low nameability","17","left","audio_feedback","1"
"html-button-response","92","414908","0.0-71.0","CKN_106","106","","","","","","null","<button class=""jspsych-btn""><img src=""stimuli/white_square.png"" style=""width: 200px;height: 200px;""></button>","null","darkgreenblue","lightred","[""darkgreenblue"",""lightred"",""low nameability""]","left-right","[""darkgreenblue"",""lightred"",""low nameability""]","2","low nameability","17","left","iti",""
"html-button-response","93","417731","0.0-72.0","CKN_106","106","","","","","","2813","","0","brown","purple","[""brown"",""purple"",""high nameability""]","right-left","[""purple"",""brown""]","2","high nameability","18","right","trigger",""
"html-button-response","94","421335","0.0-73.0-0.0","CKN_106","106","","","","","","3593","<button class=""jspsych-btn""><img src=""stimuli/brown.png"" style=""width: 200px;height: 200px;""></button>","1","brown","purple","[""brown"",""purple"",""high nameability""]","right-left","[""purple"",""brown""]","2","high nameability","18","right","response","1"
"html-audio-button-response","95","421540","0.0-73.0-1.0","CKN_106","106","","","","","","null","stimuli/bleep.m4a","null","brown","purple","[""brown"",""purple"",""high nameability""]","right-left","[""purple"",""brown""]","2","high nameability","18","right","audio_feedback","1"
"html-button-response","96","422049","0.0-74.0","CKN_106","106","","","","","","null","<button class=""jspsych-btn""><img src=""stimuli/white_square.png"" style=""width: 200px;height: 200px;""></button>","null","brown","purple","[""brown"",""purple"",""high nameability""]","right-left","[""purple"",""brown""]","2","high nameability","18","right","iti",""
"html-button-response","97","422922","0.0-75.0","CKN_106","106","","","","","","855","","0","mustard","neonyellow","[""mustard"",""neonyellow"",""low nameability""]","right-left","[""neonyellow"",""mustard""]","2","low nameability","19","right","trigger",""
"html-button-response","98","427798","0.0-76.0-0.0","CKN_106","106","","","","","","4868","<button class=""jspsych-btn""><img src=""stimuli/mustard.png"" style=""width: 200px;height: 200px;""></button>","1","mustard","neonyellow","[""mustard"",""neonyellow"",""low nameability""]","right-left","[""neonyellow"",""mustard""]","2","low nameability","19","right","response","1"
"html-audio-button-response","99","428003","0.0-76.0-1.0","CKN_106","106","","","","","","null","stimuli/bleep.m4a","null","mustard","neonyellow","[""mustard"",""neonyellow"",""low nameability""]","right-left","[""neonyellow"",""mustard""]","2","low nameability","19","right","audio_feedback","1"
"html-button-response","100","428517","0.0-77.0","CKN_106","106","","","","","","null","<button class=""jspsych-btn""><img src=""stimuli/white_square.png"" style=""width: 200px;height: 200px;""></button>","null","mustard","neonyellow","[""mustard"",""neonyellow"",""low nameability""]","right-left","[""neonyellow"",""mustard""]","2","low nameability","19","right","iti",""
"html-button-response","101","429128","0.0-78.0","CKN_106","106","","","","","","597","","0","brown","blue","[""brown"",""blue"",""high nameability""]","left-right","[""brown"",""blue"",""high nameability""]","2","high nameability","20","left","trigger",""
"html-button-response","102","433002","0.0-79.0-0.0","CKN_106","106","","","","","","3867","<button class=""jspsych-btn""><img src=""stimuli/brown.png"" style=""width: 200px;height: 200px;""></button>","0","brown","blue","[""brown"",""blue"",""high nameability""]","left-right","[""brown"",""blue"",""high nameability""]","2","high nameability","20","left","response","1"
"html-audio-button-response","103","433209","0.0-79.0-1.0","CKN_106","106","","","","","","null","stimuli/bleep.m4a","null","brown","blue","[""brown"",""blue"",""high nameability""]","left-right","[""brown"",""blue"",""high nameability""]","2","high nameability","20","left","audio_feedback","1"
"html-button-response","104","433720","0.0-80.0","CKN_106","106","","","","","","null","<button class=""jspsych-btn""><img src=""stimuli/white_square.png"" style=""width: 200px;height: 200px;""></button>","null","brown","blue","[""brown"",""blue"",""high nameability""]","left-right","[""brown"",""blue"",""high nameability""]","2","high nameability","20","left","iti",""
"pavlovia","105","433786","0.0-81.0","CKN_106","106","","","","","","","","","","","","","","","","","","",""
"pavlovia","106","433793","0.0-82.0","CKN_106","106","","","","","","","","","","","","","","","","","","",""
"html-audio-button-response","107","442199","0.0-83.0","CKN_106","106","","","","","","8467","stimuli/tada.m4a","0","","","","","","","","","","",""
"html-button-response","108","444247","0.0-84.0","CKN_106","106","","","","","","2041","","0","","","","","","","","","","",""
"html-button-response","109","447876","0.0-85.0","CKN_106","106","","","","","","3621","","0","yellow","orange","[""yellow"",""orange"",""high nameability""]","left-right","[""yellow"",""orange"",""high nameability""]","3","high nameability","21","left","trigger",""
"html-button-response","110","452590","0.0-86.0-0.0","CKN_106","106","","","","","","4704","<button class=""jspsych-btn""><img src=""stimuli/yellow.png"" style=""width: 200px;height: 200px;""></button>","0","yellow","orange","[""yellow"",""orange"",""high nameability""]","left-right","[""yellow"",""orange"",""high nameability""]","3","high nameability","21","left","response","1"
"html-audio-button-response","111","452798","0.0-86.0-1.0","CKN_106","106","","","","","","null","stimuli/bleep.m4a","null","yellow","orange","[""yellow"",""orange"",""high nameability""]","left-right","[""yellow"",""orange"",""high nameability""]","3","high nameability","21","left","audio_feedback","1"
"html-button-response","112","453316","0.0-87.0","CKN_106","106","","","","","","null","<button class=""jspsych-btn""><img src=""stimuli/white_square.png"" style=""width: 200px;height: 200px;""></button>","null","yellow","orange","[""yellow"",""orange"",""high nameability""]","left-right","[""yellow"",""orange"",""high nameability""]","3","high nameability","21","left","iti",""
"html-button-response","113","454392","0.0-88.0","CKN_106","106","","","","","","1068","","0","brown","orange","[""brown"",""orange"",""high nameability""]","left-right","[""brown"",""orange"",""high nameability""]","3","high nameability","22","left","trigger",""
"html-button-response","114","456480","0.0-89.0-0.0","CKN_106","106","","","","","","2075","<button class=""jspsych-btn""><img src=""stimuli/brown.png"" style=""width: 200px;height: 200px;""></button>","0","brown","orange","[""brown"",""orange"",""high nameability""]","left-right","[""brown"",""orange"",""high nameability""]","3","high nameability","22","left","response","1"
"html-audio-button-response","115","456696","0.0-89.0-1.0","CKN_106","106","","","","","","null","stimuli/bleep.m4a","null","brown","orange","[""brown"",""orange"",""high nameability""]","left-right","[""brown"",""orange"",""high nameability""]","3","high nameability","22","left","audio_feedback","1"
"html-button-response","116","457216","0.0-90.0","CKN_106","106","","","","","","null","<button class=""jspsych-btn""><img src=""stimuli/white_square.png"" style=""width: 200px;height: 200px;""></button>","null","brown","orange","[""brown"",""orange"",""high nameability""]","left-right","[""brown"",""orange"",""high nameability""]","3","high nameability","22","left","iti",""
"html-button-response","117","458148","0.0-91.0","CKN_106","106","","","","","","907","","0","brown","yellow","[""brown"",""yellow"",""high nameability""]","right-left","[""yellow"",""brown""]","3","high nameability","23","right","trigger",""
"html-button-response","118","461912","0.0-92.0-0.0","CKN_106","106","","","","","","3749","<button class=""jspsych-btn""><img src=""stimuli/brown.png"" style=""width: 200px;height: 200px;""></button>","1","brown","yellow","[""brown"",""yellow"",""high nameability""]","right-left","[""yellow"",""brown""]","3","high nameability","23","right","response","1"
"html-audio-button-response","119","462132","0.0-92.0-1.0","CKN_106","106","","","","","","null","stimuli/bleep.m4a","null","brown","yellow","[""brown"",""yellow"",""high nameability""]","right-left","[""yellow"",""brown""]","3","high nameability","23","right","audio_feedback","1"
"html-button-response","120","462645","0.0-93.0","CKN_106","106","","","","","","null","<button class=""jspsych-btn""><img src=""stimuli/white_square.png"" style=""width: 200px;height: 200px;""></button>","null","brown","yellow","[""brown"",""yellow"",""high nameability""]","right-left","[""yellow"",""brown""]","3","high nameability","23","right","iti",""
"html-button-response","121","465733","0.0-94.0","CKN_106","106","","","","","","3075","","0","purple","blue","[""purple"",""blue"",""high nameability""]","left-right","[""purple"",""blue"",""high nameability""]","3","high nameability","24","left","trigger",""
"html-button-response","122","470335","0.0-95.0-0.0","CKN_106","106","","","","","","4591","<button class=""jspsych-btn""><img src=""stimuli/purple.png"" style=""width: 200px;height: 200px;""></button>","0","purple","blue","[""purple"",""blue"",""high nameability""]","left-right","[""purple"",""blue"",""high nameability""]","3","high nameability","24","left","response","1"
"html-audio-button-response","123","470543","0.0-95.0-1.0","CKN_106","106","","","","","","null","stimuli/bleep.m4a","null","purple","blue","[""purple"",""blue"",""high nameability""]","left-right","[""purple"",""blue"",""high nameability""]","3","high nameability","24","left","audio_feedback","1"
"html-button-response","124","471067","0.0-96.0","CKN_106","106","","","","","","null","<button class=""jspsych-btn""><img src=""stimuli/white_square.png"" style=""width: 200px;height: 200px;""></button>","null","purple","blue","[""purple"",""blue"",""high nameability""]","left-right","[""purple"",""blue"",""high nameability""]","3","high nameability","24","left","iti",""
"html-button-response","125","471889","0.0-97.0","CKN_106","106","","","","","","810","","0","lightred","turquoise","[""lightred"",""turquoise"",""low nameability""]","right-left","[""turquoise"",""lightred""]","3","low nameability","25","right","trigger",""
"html-button-response","126","478684","0.0-98.0-0.0","CKN_106","106","","","","","","6790","<button class=""jspsych-btn""><img src=""stimuli/lightred.png"" style=""width: 200px;height: 200px;""></button>","1","lightred","turquoise","[""lightred"",""turquoise"",""low nameability""]","right-left","[""turquoise"",""lightred""]","3","low nameability","25","right","response","1"
"html-audio-button-response","127","478890","0.0-98.0-1.0","CKN_106","106","","","","","","null","stimuli/bleep.m4a","null","lightred","turquoise","[""lightred"",""turquoise"",""low nameability""]","right-left","[""turquoise"",""lightred""]","3","low nameability","25","right","audio_feedback","1"
"html-button-response","128","479403","0.0-99.0","CKN_106","106","","","","","","null","<button class=""jspsych-btn""><img src=""stimuli/white_square.png"" style=""width: 200px;height: 200px;""></button>","null","lightred","turquoise","[""lightred"",""turquoise"",""low nameability""]","right-left","[""turquoise"",""lightred""]","3","low nameability","25","right","iti",""
"html-button-response","129","484184","0.0-100.0","CKN_106","106","","","","","","4769","","0","darkgreenblue","neonyellow","[""darkgreenblue"",""neonyellow"",""low nameability""]","right-left","[""neonyellow"",""darkgreenblue""]","3","low nameability","26","right","trigger",""
"html-button-response","130","486093","0.0-101.0-0.0","CKN_106","106","","","","","","1899","<button class=""jspsych-btn""><img src=""stimuli/darkgreenblue.png"" style=""width: 200px;height: 200px;""></button>","1","darkgreenblue","neonyellow","[""darkgreenblue"",""neonyellow"",""low nameability""]","right-left","[""neonyellow"",""darkgreenblue""]","3","low nameability","26","right","response","1"
"html-audio-button-response","131","486296","0.0-101.0-1.0","CKN_106","106","","","","","","null","stimuli/bleep.m4a","null","darkgreenblue","neonyellow","[""darkgreenblue"",""neonyellow"",""low nameability""]","right-left","[""neonyellow"",""darkgreenblue""]","3","low nameability","26","right","audio_feedback","1"
"html-button-response","132","486815","0.0-102.0","CKN_106","106","","","","","","null","<button class=""jspsych-btn""><img src=""stimuli/white_square.png"" style=""width: 200px;height: 200px;""></button>","null","darkgreenblue","neonyellow","[""darkgreenblue"",""neonyellow"",""low nameability""]","right-left","[""neonyellow"",""darkgreenblue""]","3","low nameability","26","right","iti",""
"html-button-response","133","489954","0.0-103.0","CKN_106","106","","","","","","3126","","0","turquoise","darkgreenblue","[""turquoise"",""darkgreenblue"",""low nameability""]","left-right","[""turquoise"",""darkgreenblue"",""low nameability""]","3","low nameability","27","left","trigger",""
"html-button-response","134","491166","0.0-104.0-0.0","CKN_106","106","","","","","","1199","<button class=""jspsych-btn""><img src=""stimuli/turquoise.png"" style=""width: 200px;height: 200px;""></button>","0","turquoise","darkgreenblue","[""turquoise"",""darkgreenblue"",""low nameability""]","left-right","[""turquoise"",""darkgreenblue"",""low nameability""]","3","low nameability","27","left","response","1"
"html-audio-button-response","135","491377","0.0-104.0-1.0","CKN_106","106","","","","","","null","stimuli/bleep.m4a","null","turquoise","darkgreenblue","[""turquoise"",""darkgreenblue"",""low nameability""]","left-right","[""turquoise"",""darkgreenblue"",""low nameability""]","3","low nameability","27","left","audio_feedback","1"
"html-button-response","136","491892","0.0-105.0","CKN_106","106","","","","","","null","<button class=""jspsych-btn""><img src=""stimuli/white_square.png"" style=""width: 200px;height: 200px;""></button>","null","turquoise","darkgreenblue","[""turquoise"",""darkgreenblue"",""low nameability""]","left-right","[""turquoise"",""darkgreenblue"",""low nameability""]","3","low nameability","27","left","iti",""
"html-button-response","137","492613","0.0-106.0","CKN_106","106","","","","","","709","","0","lightred","neonyellow","[""lightred"",""neonyellow"",""low nameability""]","right-left","[""neonyellow"",""lightred""]","3","low nameability","28","right","trigger",""
"html-button-response","138","493744","0.0-107.0-0.0","CKN_106","106","","","","","","1121","<button class=""jspsych-btn""><img src=""stimuli/lightred.png"" style=""width: 200px;height: 200px;""></button>","1","lightred","neonyellow","[""lightred"",""neonyellow"",""low nameability""]","right-left","[""neonyellow"",""lightred""]","3","low nameability","28","right","response","1"
"html-audio-button-response","139","493948","0.0-107.0-1.0","CKN_106","106","","","","","","null","stimuli/bleep.m4a","null","lightred","neonyellow","[""lightred"",""neonyellow"",""low nameability""]","right-left","[""neonyellow"",""lightred""]","3","low nameability","28","right","audio_feedback","1"
"html-button-response","140","494465","0.0-108.0","CKN_106","106","","","","","","null","<button class=""jspsych-btn""><img src=""stimuli/white_square.png"" style=""width: 200px;height: 200px;""></button>","null","lightred","neonyellow","[""lightred"",""neonyellow"",""low nameability""]","right-left","[""neonyellow"",""lightred""]","3","low nameability","28","right","iti",""
"html-button-response","141","494759","0.0-109.0","CKN_106","106","","","","","","282","","0","orange","purple","[""orange"",""purple"",""high nameability""]","right-left","[""purple"",""orange""]","3","high nameability","29","right","trigger",""
"html-button-response","142","497059","0.0-110.0-0.0","CKN_106","106","","","","","","2294","<button class=""jspsych-btn""><img src=""stimuli/orange.png"" style=""width: 200px;height: 200px;""></button>","1","orange","purple","[""orange"",""purple"",""high nameability""]","right-left","[""purple"",""orange""]","3","high nameability","29","right","response","1"
"html-audio-button-response","143","497260","0.0-110.0-1.0","CKN_106","106","","","","","","null","stimuli/bleep.m4a","null","orange","purple","[""orange"",""purple"",""high nameability""]","right-left","[""purple"",""orange""]","3","high nameability","29","right","audio_feedback","1"
"html-button-response","144","497776","0.0-111.0","CKN_106","106","","","","","","null","<button class=""jspsych-btn""><img src=""stimuli/white_square.png"" style=""width: 200px;height: 200px;""></button>","null","orange","purple","[""orange"",""purple"",""high nameability""]","right-left","[""purple"",""orange""]","3","high nameability","29","right","iti",""
"html-button-response","145","498866","0.0-112.0","CKN_106","106","","","","","","1072","","0","neonyellow","darkgreenblue","[""neonyellow"",""darkgreenblue"",""low nameability""]","left-right","[""neonyellow"",""darkgreenblue"",""low nameability""]","3","low nameability","30","left","trigger",""
"html-button-response","146","500928","0.0-113.0-0.0","CKN_106","106","","","","","","2054","<button class=""jspsych-btn""><img src=""stimuli/neonyellow.png"" style=""width: 200px;height: 200px;""></button>","0","neonyellow","darkgreenblue","[""neonyellow"",""darkgreenblue"",""low nameability""]","left-right","[""neonyellow"",""darkgreenblue"",""low nameability""]","3","low nameability","30","left","response","1"
"html-audio-button-response","147","501135","0.0-113.0-1.0","CKN_106","106","","","","","","null","stimuli/bleep.m4a","null","neonyellow","darkgreenblue","[""neonyellow"",""darkgreenblue"",""low nameability""]","left-right","[""neonyellow"",""darkgreenblue"",""low nameability""]","3","low nameability","30","left","audio_feedback","1"
"html-button-response","148","501650","0.0-114.0","CKN_106","106","","","","","","null","<button class=""jspsych-btn""><img src=""stimuli/white_square.png"" style=""width: 200px;height: 200px;""></button>","null","neonyellow","darkgreenblue","[""neonyellow"",""darkgreenblue"",""low nameability""]","left-right","[""neonyellow"",""darkgreenblue"",""low nameability""]","3","low nameability","30","left","iti",""
"pavlovia","149","501741","0.0-115.0","CKN_106","106","","","","","","","","","","","","","","","","","","",""
"pavlovia","150","501750","0.0-116.0","CKN_106","106","","","","","","","","","","","","","","","","","","",""
"html-audio-button-response","151","508241","0.0-117.0","CKN_106","106","","","","","","6592","stimuli/tada.m4a","0","","","","","","","","","","",""
"html-button-response","152","510200","0.0-118.0","CKN_106","106","","","","","","1952","","0","","","","","","","","","","",""
"html-button-response","153","513633","0.0-119.0","CKN_106","106","","","","","","3427","","0","red","yellow","[""red"",""yellow"",""high nameability""]","left-right","[""red"",""yellow"",""high nameability""]","4","high nameability","31","left","trigger",""
"html-button-response","154","517046","0.0-120.0-0.0","CKN_106","106","","","","","","3404","<button class=""jspsych-btn""><img src=""stimuli/red.png"" style=""width: 200px;height: 200px;""></button>","0","red","yellow","[""red"",""yellow"",""high nameability""]","left-right","[""red"",""yellow"",""high nameability""]","4","high nameability","31","left","response","1"
"html-audio-button-response","155","517255","0.0-120.0-1.0","CKN_106","106","","","","","","null","stimuli/bleep.m4a","null","red","yellow","[""red"",""yellow"",""high nameability""]","left-right","[""red"",""yellow"",""high nameability""]","4","high nameability","31","left","audio_feedback","1"
"html-button-response","156","517774","0.0-121.0","CKN_106","106","","","","","","null","<button class=""jspsych-btn""><img src=""stimuli/white_square.png"" style=""width: 200px;height: 200px;""></button>","null","red","yellow","[""red"",""yellow"",""high nameability""]","left-right","[""red"",""yellow"",""high nameability""]","4","high nameability","31","left","iti",""
"html-button-response","157","518533","0.0-122.0","CKN_106","106","","","","","","750","","0","yellow","red","[""yellow"",""red"",""high nameability""]","right-left","[""red"",""yellow""]","4","high nameability","32","right","trigger",""
"html-button-response","158","521935","0.0-123.0-0.0","CKN_106","106","","","","","","3393","<button class=""jspsych-btn""><img src=""stimuli/yellow.png"" style=""width: 200px;height: 200px;""></button>","1","yellow","red","[""yellow"",""red"",""high nameability""]","right-left","[""red"",""yellow""]","4","high nameability","32","right","response","1"
"html-audio-button-response","159","522140","0.0-123.0-1.0","CKN_106","106","","","","","","null","stimuli/bleep.m4a","null","yellow","red","[""yellow"",""red"",""high nameability""]","right-left","[""red"",""yellow""]","4","high nameability","32","right","audio_feedback","1"
"html-button-response","160","522656","0.0-124.0","CKN_106","106","","","","","","null","<button class=""jspsych-btn""><img src=""stimuli/white_square.png"" style=""width: 200px;height: 200px;""></button>","null","yellow","red","[""yellow"",""red"",""high nameability""]","right-left","[""red"",""yellow""]","4","high nameability","32","right","iti",""
"html-button-response","161","523463","0.0-125.0","CKN_106","106","","","","","","793","","0","purple","orange","[""purple"",""orange"",""high nameability""]","right-left","[""orange"",""purple""]","4","high nameability","33","right","trigger",""
"html-button-response","162","525629","0.0-126.0-0.0","CKN_106","106","","","","","","2159","<button class=""jspsych-btn""><img src=""stimuli/purple.png"" style=""width: 200px;height: 200px;""></button>","1","purple","orange","[""purple"",""orange"",""high nameability""]","right-left","[""orange"",""purple""]","4","high nameability","33","right","response","1"
"html-audio-button-response","163","525829","0.0-126.0-1.0","CKN_106","106","","","","","","null","stimuli/bleep.m4a","null","purple","orange","[""purple"",""orange"",""high nameability""]","right-left","[""orange"",""purple""]","4","high nameability","33","right","audio_feedback","1"
"html-button-response","164","526342","0.0-127.0","CKN_106","106","","","","","","null","<button class=""jspsych-btn""><img src=""stimuli/white_square.png"" style=""width: 200px;height: 200px;""></button>","null","purple","orange","[""purple"",""orange"",""high nameability""]","right-left","[""orange"",""purple""]","4","high nameability","33","right","iti",""
"html-button-response","165","527443","0.0-128.0","CKN_106","106","","","","","","1086","","0","darkgreenblue","turquoise","[""darkgreenblue"",""turquoise"",""low nameability""]","left-right","[""darkgreenblue"",""turquoise"",""low nameability""]","4","low nameability","34","left","trigger",""
"html-button-response","166","530544","0.0-129.0-0.0","CKN_106","106","","","","","","3093","<button class=""jspsych-btn""><img src=""stimuli/darkgreenblue.png"" style=""width: 200px;height: 200px;""></button>","0","darkgreenblue","turquoise","[""darkgreenblue"",""turquoise"",""low nameability""]","left-right","[""darkgreenblue"",""turquoise"",""low nameability""]","4","low nameability","34","left","response","1"
"html-audio-button-response","167","530746","0.0-129.0-1.0","CKN_106","106","","","","","","null","stimuli/bleep.m4a","null","darkgreenblue","turquoise","[""darkgreenblue"",""turquoise"",""low nameability""]","left-right","[""darkgreenblue"",""turquoise"",""low nameability""]","4","low nameability","34","left","audio_feedback","1"
"html-button-response","168","531266","0.0-130.0","CKN_106","106","","","","","","null","<button class=""jspsych-btn""><img src=""stimuli/white_square.png"" style=""width: 200px;height: 200px;""></button>","null","darkgreenblue","turquoise","[""darkgreenblue"",""turquoise"",""low nameability""]","left-right","[""darkgreenblue"",""turquoise"",""low nameability""]","4","low nameability","34","left","iti",""
"html-button-response","169","532370","0.0-131.0","CKN_106","106","","","","","","1089","","0","yellow","brown","[""yellow"",""brown"",""high nameability""]","right-left","[""brown"",""yellow""]","4","high nameability","35","right","trigger",""
"html-button-response","170","533928","0.0-132.0-0.0","CKN_106","106","","","","","","1548","<button class=""jspsych-btn""><img src=""stimuli/yellow.png"" style=""width: 200px;height: 200px;""></button>","1","yellow","brown","[""yellow"",""brown"",""high nameability""]","right-left","[""brown"",""yellow""]","4","high nameability","35","right","response","1"
"html-audio-button-response","171","534133","0.0-132.0-1.0","CKN_106","106","","","","","","null","stimuli/bleep.m4a","null","yellow","brown","[""yellow"",""brown"",""high nameability""]","right-left","[""brown"",""yellow""]","4","high nameability","35","right","audio_feedback","1"
"html-button-response","172","534643","0.0-133.0","CKN_106","106","","","","","","null","<button class=""jspsych-btn""><img src=""stimuli/white_square.png"" style=""width: 200px;height: 200px;""></button>","null","yellow","brown","[""yellow"",""brown"",""high nameability""]","right-left","[""brown"",""yellow""]","4","high nameability","35","right","iti",""
"html-button-response","173","535056","0.0-134.0","CKN_106","106","","","","","","400","","0","purple","red","[""purple"",""red"",""high nameability""]","right-left","[""red"",""purple""]","4","high nameability","36","right","trigger",""
"html-button-response","174","536293","0.0-135.0-0.0","CKN_106","106","","","","","","1226","<button class=""jspsych-btn""><img src=""stimuli/purple.png"" style=""width: 200px;height: 200px;""></button>","1","purple","red","[""purple"",""red"",""high nameability""]","right-left","[""red"",""purple""]","4","high nameability","36","right","response","1"
"html-audio-button-response","175","536501","0.0-135.0-1.0","CKN_106","106","","","","","","null","stimuli/bleep.m4a","null","purple","red","[""purple"",""red"",""high nameability""]","right-left","[""red"",""purple""]","4","high nameability","36","right","audio_feedback","1"
"html-button-response","176","537015","0.0-136.0","CKN_106","106","","","","","","null","<button class=""jspsych-btn""><img src=""stimuli/white_square.png"" style=""width: 200px;height: 200px;""></button>","null","purple","red","[""purple"",""red"",""high nameability""]","right-left","[""red"",""purple""]","4","high nameability","36","right","iti",""
"html-button-response","177","537185","0.0-137.0","CKN_106","106","","","","","","162","","0","lightred","darkgreenblue","[""lightred"",""darkgreenblue"",""low nameability""]","left-right","[""lightred"",""darkgreenblue"",""low nameability""]","4","low nameability","37","left","trigger",""
"html-button-response","178","539593","0.0-138.0-0.0","CKN_106","106","","","","","","2398","<button class=""jspsych-btn""><img src=""stimuli/lightred.png"" style=""width: 200px;height: 200px;""></button>","0","lightred","darkgreenblue","[""lightred"",""darkgreenblue"",""low nameability""]","left-right","[""lightred"",""darkgreenblue"",""low nameability""]","4","low nameability","37","left","response","1"
"html-audio-button-response","179","539797","0.0-138.0-1.0","CKN_106","106","","","","","","null","stimuli/bleep.m4a","null","lightred","darkgreenblue","[""lightred"",""darkgreenblue"",""low nameability""]","left-right","[""lightred"",""darkgreenblue"",""low nameability""]","4","low nameability","37","left","audio_feedback","1"
"html-button-response","180","540310","0.0-139.0","CKN_106","106","","","","","","null","<button class=""jspsych-btn""><img src=""stimuli/white_square.png"" style=""width: 200px;height: 200px;""></button>","null","lightred","darkgreenblue","[""lightred"",""darkgreenblue"",""low nameability""]","left-right","[""lightred"",""darkgreenblue"",""low nameability""]","4","low nameability","37","left","iti",""
"html-button-response","181","541060","0.0-140.0","CKN_106","106","","","","","","734","","0","mustard","turquoise","[""mustard"",""turquoise"",""low nameability""]","right-left","[""turquoise"",""mustard""]","4","low nameability","38","right","trigger",""
"html-button-response","182","543373","0.0-141.0-0.0","CKN_106","106","","","","","","2305","<button class=""jspsych-btn""><img src=""stimuli/mustard.png"" style=""width: 200px;height: 200px;""></button>","1","mustard","turquoise","[""mustard"",""turquoise"",""low nameability""]","right-left","[""turquoise"",""mustard""]","4","low nameability","38","right","response","1"
"html-audio-button-response","183","543579","0.0-141.0-1.0","CKN_106","106","","","","","","null","stimuli/bleep.m4a","null","mustard","turquoise","[""mustard"",""turquoise"",""low nameability""]","right-left","[""turquoise"",""mustard""]","4","low nameability","38","right","audio_feedback","1"
"html-button-response","184","544092","0.0-142.0","CKN_106","106","","","","","","null","<button class=""jspsych-btn""><img src=""stimuli/white_square.png"" style=""width: 200px;height: 200px;""></button>","null","mustard","turquoise","[""mustard"",""turquoise"",""low nameability""]","right-left","[""turquoise"",""mustard""]","4","low nameability","38","right","iti",""
"html-button-response","185","545186","0.0-143.0","CKN_106","106","","","","","","1085","","0","lightred","pink","[""lightred"",""pink"",""low nameability""]","left-right","[""lightred"",""pink"",""low nameability""]","4","low nameability","39","left","trigger",""
"html-button-response","186","549190","0.0-144.0-0.0","CKN_106","106","","","","","","3996","<button class=""jspsych-btn""><img src=""stimuli/lightred.png"" style=""width: 200px;height: 200px;""></button>","0","lightred","pink","[""lightred"",""pink"",""low nameability""]","left-right","[""lightred"",""pink"",""low nameability""]","4","low nameability","39","left","response","1"
"html-audio-button-response","187","549396","0.0-144.0-1.0","CKN_106","106","","","","","","null","stimuli/bleep.m4a","null","lightred","pink","[""lightred"",""pink"",""low nameability""]","left-right","[""lightred"",""pink"",""low nameability""]","4","low nameability","39","left","audio_feedback","1"
"html-button-response","188","549906","0.0-145.0","CKN_106","106","","","","","","93","<button class=""jspsych-btn""><img src=""stimuli/white_square.png"" style=""width: 200px;height: 200px;""></button>","0","lightred","pink","[""lightred"",""pink"",""low nameability""]","left-right","[""lightred"",""pink"",""low nameability""]","4","low nameability","39","left","iti",""
"html-button-response","189","551034","0.0-146.0","CKN_106","106","","","","","","1119","","0","red","orange","[""red"",""orange"",""high nameability""]","right-left","[""orange"",""red""]","4","high nameability","40","right","trigger",""
"html-button-response","190","552866","0.0-147.0-0.0","CKN_106","106","","","","","","1822","<button class=""jspsych-btn""><img src=""stimuli/red.png"" style=""width: 200px;height: 200px;""></button>","1","red","orange","[""red"",""orange"",""high nameability""]","right-left","[""orange"",""red""]","4","high nameability","40","right","response","1"
"html-audio-button-response","191","553074","0.0-147.0-1.0","CKN_106","106","","","","","","null","stimuli/bleep.m4a","null","red","orange","[""red"",""orange"",""high nameability""]","right-left","[""orange"",""red""]","4","high nameability","40","right","audio_feedback","1"
"html-button-response","192","553586","0.0-148.0","CKN_106","106","","","","","","null","<button class=""jspsych-btn""><img src=""stimuli/white_square.png"" style=""width: 200px;height: 200px;""></button>","null","red","orange","[""red"",""orange"",""high nameability""]","right-left","[""orange"",""red""]","4","high nameability","40","right","iti",""
"pavlovia","193","553668","0.0-149.0","CKN_106","106","","","","","","","","","","","","","","","","","","",""
"pavlovia","194","553675","0.0-150.0","CKN_106","106","","","","","","","","","","","","","","","","","","",""
"html-audio-button-response","195","560351","0.0-151.0","CKN_106","106","","","","","","6757","stimuli/tada.m4a","0","","","","","","","","","","",""
"html-button-response","196","561583","0.0-152.0","CKN_106","106","","","","","","1226","","0","","","","","","","","","","",""
"html-button-response","197","563525","0.0-153.0","CKN_106","106","","","","","","1934","","0","pink","turquoise","[""pink"",""turquoise"",""low nameability""]","right-left","[""turquoise"",""pink""]","5","low nameability","41","right","trigger",""
"html-button-response","198","567804","0.0-154.0-0.0","CKN_106","106","","","","","","4269","<button class=""jspsych-btn""><img src=""stimuli/pink.png"" style=""width: 200px;height: 200px;""></button>","1","pink","turquoise","[""pink"",""turquoise"",""low nameability""]","right-left","[""turquoise"",""pink""]","5","low nameability","41","right","response","1"
"html-audio-button-response","199","568009","0.0-154.0-1.0","CKN_106","106","","","","","","null","stimuli/bleep.m4a","null","pink","turquoise","[""pink"",""turquoise"",""low nameability""]","right-left","[""turquoise"",""pink""]","5","low nameability","41","right","audio_feedback","1"
"html-button-response","200","568523","0.0-155.0","CKN_106","106","","","","","","null","<button class=""jspsych-btn""><img src=""stimuli/white_square.png"" style=""width: 200px;height: 200px;""></button>","null","pink","turquoise","[""pink"",""turquoise"",""low nameability""]","right-left","[""turquoise"",""pink""]","5","low nameability","41","right","iti",""
"html-button-response","201","569324","0.0-156.0","CKN_106","106","","","","","","790","","0","mustard","darkgreenblue","[""mustard"",""darkgreenblue"",""low nameability""]","right-left","[""darkgreenblue"",""mustard""]","5","low nameability","42","right","trigger",""
"html-button-response","202","570385","0.0-157.0-0.0","CKN_106","106","","","","","","1052","<button class=""jspsych-btn""><img src=""stimuli/mustard.png"" style=""width: 200px;height: 200px;""></button>","1","mustard","darkgreenblue","[""mustard"",""darkgreenblue"",""low nameability""]","right-left","[""darkgreenblue"",""mustard""]","5","low nameability","42","right","response","1"
"html-audio-button-response","203","570589","0.0-157.0-1.0","CKN_106","106","","","","","","null","stimuli/bleep.m4a","null","mustard","darkgreenblue","[""mustard"",""darkgreenblue"",""low nameability""]","right-left","[""darkgreenblue"",""mustard""]","5","low nameability","42","right","audio_feedback","1"
"html-button-response","204","571103","0.0-158.0","CKN_106","106","","","","","","null","<button class=""jspsych-btn""><img src=""stimuli/white_square.png"" style=""width: 200px;height: 200px;""></button>","null","mustard","darkgreenblue","[""mustard"",""darkgreenblue"",""low nameability""]","right-left","[""darkgreenblue"",""mustard""]","5","low nameability","42","right","iti",""
"html-button-response","205","571488","0.0-159.0","CKN_106","106","","","","","","375","","0","blue","orange","[""blue"",""orange"",""high nameability""]","left-right","[""blue"",""orange"",""high nameability""]","5","high nameability","43","left","trigger",""
"html-button-response","206","574034","0.0-160.0-0.0","CKN_106","106","","","","","","2538","<button class=""jspsych-btn""><img src=""stimuli/blue.png"" style=""width: 200px;height: 200px;""></button>","0","blue","orange","[""blue"",""orange"",""high nameability""]","left-right","[""blue"",""orange"",""high nameability""]","5","high nameability","43","left","response","1"
"html-audio-button-response","207","574237","0.0-160.0-1.0","CKN_106","106","","","","","","null","stimuli/bleep.m4a","null","blue","orange","[""blue"",""orange"",""high nameability""]","left-right","[""blue"",""orange"",""high nameability""]","5","high nameability","43","left","audio_feedback","1"
"html-button-response","208","574756","0.0-161.0","CKN_106","106","","","","","","null","<button class=""jspsych-btn""><img src=""stimuli/white_square.png"" style=""width: 200px;height: 200px;""></button>","null","blue","orange","[""blue"",""orange"",""high nameability""]","left-right","[""blue"",""orange"",""high nameability""]","5","high nameability","43","left","iti",""
"html-button-response","209","576130","0.0-162.0","CKN_106","106","","","","","","1363","","0","red","purple","[""red"",""purple"",""high nameability""]","left-right","[""red"",""purple"",""high nameability""]","5","high nameability","44","left","trigger",""
"html-button-response","210","578580","0.0-163.0-0.0","CKN_106","106","","","","","","2443","<button class=""jspsych-btn""><img src=""stimuli/red.png"" style=""width: 200px;height: 200px;""></button>","0","red","purple","[""red"",""purple"",""high nameability""]","left-right","[""red"",""purple"",""high nameability""]","5","high nameability","44","left","response","1"
"html-audio-button-response","211","578790","0.0-163.0-1.0","CKN_106","106","","","","","","null","stimuli/bleep.m4a","null","red","purple","[""red"",""purple"",""high nameability""]","left-right","[""red"",""purple"",""high nameability""]","5","high nameability","44","left","audio_feedback","1"
"html-button-response","212","579307","0.0-164.0","CKN_106","106","","","","","","null","<button class=""jspsych-btn""><img src=""stimuli/white_square.png"" style=""width: 200px;height: 200px;""></button>","null","red","purple","[""red"",""purple"",""high nameability""]","left-right","[""red"",""purple"",""high nameability""]","5","high nameability","44","left","iti",""
"html-button-response","213","580056","0.0-165.0","CKN_106","106","","","","","","737","","0","orange","yellow","[""orange"",""yellow"",""high nameability""]","left-right","[""orange"",""yellow"",""high nameability""]","5","high nameability","45","left","trigger",""
"html-button-response","214","583442","0.0-166.0-0.0","CKN_106","106","","","","","","3377","<button class=""jspsych-btn""><img src=""stimuli/orange.png"" style=""width: 200px;height: 200px;""></button>","0","orange","yellow","[""orange"",""yellow"",""high nameability""]","left-right","[""orange"",""yellow"",""high nameability""]","5","high nameability","45","left","response","1"
"html-audio-button-response","215","583640","0.0-166.0-1.0","CKN_106","106","","","","","","null","stimuli/bleep.m4a","null","orange","yellow","[""orange"",""yellow"",""high nameability""]","left-right","[""orange"",""yellow"",""high nameability""]","5","high nameability","45","left","audio_feedback","1"
"html-button-response","216","584156","0.0-167.0","CKN_106","106","","","","","","null","<button class=""jspsych-btn""><img src=""stimuli/white_square.png"" style=""width: 200px;height: 200px;""></button>","null","orange","yellow","[""orange"",""yellow"",""high nameability""]","left-right","[""orange"",""yellow"",""high nameability""]","5","high nameability","45","left","iti",""
"html-button-response","217","588036","0.0-168.0","CKN_106","106","","","","","","3871","","0","red","brown","[""red"",""brown"",""high nameability""]","left-right","[""red"",""brown"",""high nameability""]","5","high nameability","46","left","trigger",""
"html-button-response","218","590248","0.0-169.0-0.0","CKN_106","106","","","","","","2203","<button class=""jspsych-btn""><img src=""stimuli/red.png"" style=""width: 200px;height: 200px;""></button>","0","red","brown","[""red"",""brown"",""high nameability""]","left-right","[""red"",""brown"",""high nameability""]","5","high nameability","46","left","response","1"
"html-audio-button-response","219","590455","0.0-169.0-1.0","CKN_106","106","","","","","","null","stimuli/bleep.m4a","null","red","brown","[""red"",""brown"",""high nameability""]","left-right","[""red"",""brown"",""high nameability""]","5","high nameability","46","left","audio_feedback","1"
"html-button-response","220","590966","0.0-170.0","CKN_106","106","","","","","","null","<button class=""jspsych-btn""><img src=""stimuli/white_square.png"" style=""width: 200px;height: 200px;""></button>","null","red","brown","[""red"",""brown"",""high nameability""]","left-right","[""red"",""brown"",""high nameability""]","5","high nameability","46","left","iti",""
"html-button-response","221","591873","0.0-171.0","CKN_106","106","","","","","","893","","0","blue","yellow","[""blue"",""yellow"",""high nameability""]","left-right","[""blue"",""yellow"",""high nameability""]","5","high nameability","47","left","trigger",""
"html-button-response","222","593602","0.0-172.0-0.0","CKN_106","106","","","","","","1721","<button class=""jspsych-btn""><img src=""stimuli/blue.png"" style=""width: 200px;height: 200px;""></button>","0","blue","yellow","[""blue"",""yellow"",""high nameability""]","left-right","[""blue"",""yellow"",""high nameability""]","5","high nameability","47","left","response","1"
"html-audio-button-response","223","593806","0.0-172.0-1.0","CKN_106","106","","","","","","null","stimuli/bleep.m4a","null","blue","yellow","[""blue"",""yellow"",""high nameability""]","left-right","[""blue"",""yellow"",""high nameability""]","5","high nameability","47","left","audio_feedback","1"
"html-button-response","224","594317","0.0-173.0","CKN_106","106","","","","","","null","<button class=""jspsych-btn""><img src=""stimuli/white_square.png"" style=""width: 200px;height: 200px;""></button>","null","blue","yellow","[""blue"",""yellow"",""high nameability""]","left-right","[""blue"",""yellow"",""high nameability""]","5","high nameability","47","left","iti",""
"html-button-response","225","597109","0.0-174.0","CKN_106","106","","","","","","2784","","0","turquoise","neonyellow","[""turquoise"",""neonyellow"",""low nameability""]","right-left","[""neonyellow"",""turquoise""]","5","low nameability","48","right","trigger",""
"html-button-response","226","598746","0.0-175.0-0.0","CKN_106","106","","","","","","1630","<button class=""jspsych-btn""><img src=""stimuli/turquoise.png"" style=""width: 200px;height: 200px;""></button>","1","turquoise","neonyellow","[""turquoise"",""neonyellow"",""low nameability""]","right-left","[""neonyellow"",""turquoise""]","5","low nameability","48","right","response","1"
"html-audio-button-response","227","598954","0.0-175.0-1.0","CKN_106","106","","","","","","null","stimuli/bleep.m4a","null","turquoise","neonyellow","[""turquoise"",""neonyellow"",""low nameability""]","right-left","[""neonyellow"",""turquoise""]","5","low nameability","48","right","audio_feedback","1"
"html-button-response","228","599466","0.0-176.0","CKN_106","106","","","","","","null","<button class=""jspsych-btn""><img src=""stimuli/white_square.png"" style=""width: 200px;height: 200px;""></button>","null","turquoise","neonyellow","[""turquoise"",""neonyellow"",""low nameability""]","right-left","[""neonyellow"",""turquoise""]","5","low nameability","48","right","iti",""
"html-button-response","229","602065","0.0-177.0","CKN_106","106","","","","","","2580","","0","neonyellow","turquoise","[""neonyellow"",""turquoise"",""low nameability""]","left-right","[""neonyellow"",""turquoise"",""low nameability""]","5","low nameability","49","left","trigger",""
"html-button-response","230","604974","0.0-178.0-0.0","CKN_106","106","","","","","","2901","<button class=""jspsych-btn""><img src=""stimuli/neonyellow.png"" style=""width: 200px;height: 200px;""></button>","0","neonyellow","turquoise","[""neonyellow"",""turquoise"",""low nameability""]","left-right","[""neonyellow"",""turquoise"",""low nameability""]","5","low nameability","49","left","response","1"
"html-audio-button-response","231","605177","0.0-178.0-1.0","CKN_106","106","","","","","","null","stimuli/bleep.m4a","null","neonyellow","turquoise","[""neonyellow"",""turquoise"",""low nameability""]","left-right","[""neonyellow"",""turquoise"",""low nameability""]","5","low nameability","49","left","audio_feedback","1"
"html-button-response","232","605689","0.0-179.0","CKN_106","106","","","","","","null","<button class=""jspsych-btn""><img src=""stimuli/white_square.png"" style=""width: 200px;height: 200px;""></button>","null","neonyellow","turquoise","[""neonyellow"",""turquoise"",""low nameability""]","left-right","[""neonyellow"",""turquoise"",""low nameability""]","5","low nameability","49","left","iti",""
"html-button-response","233","609789","0.0-180.0","CKN_106","106","","","","","","4086","","0","blue","brown","[""blue"",""brown"",""high nameability""]","right-left","[""brown"",""blue""]","5","high nameability","50","right","trigger",""
"html-button-response","234","612198","0.0-181.0-0.0","CKN_106","106","","","","","","2400","<button class=""jspsych-btn""><img src=""stimuli/blue.png"" style=""width: 200px;height: 200px;""></button>","1","blue","brown","[""blue"",""brown"",""high nameability""]","right-left","[""brown"",""blue""]","5","high nameability","50","right","response","1"
"html-audio-button-response","235","612409","0.0-181.0-1.0","CKN_106","106","","","","","","null","stimuli/bleep.m4a","null","blue","brown","[""blue"",""brown"",""high nameability""]","right-left","[""brown"",""blue""]","5","high nameability","50","right","audio_feedback","1"
"html-button-response","236","612926","0.0-182.0","CKN_106","106","","","","","","null","<button class=""jspsych-btn""><img src=""stimuli/white_square.png"" style=""width: 200px;height: 200px;""></button>","null","blue","brown","[""blue"",""brown"",""high nameability""]","right-left","[""brown"",""blue""]","5","high nameability","50","right","iti",""
"pavlovia","237","613012","0.0-183.0","CKN_106","106","","","","","","","","","","","","","","","","","","",""
"pavlovia","238","613019","0.0-184.0","CKN_106","106","","","","","","","","","","","","","","","","","","",""
"html-audio-button-response","239","619008","0.0-185.0","CKN_106","106","","","","","","6072","stimuli/tada.m4a","0","","","","","","","","","","",""
"html-button-response","240","621223","0.0-186.0","CKN_106","106","","","","","","2208","","0","","","","","","","","","","",""
"html-button-response","241","624665","0.0-187.0","CKN_106","106","","","","","","3436","","0","yellow","blue","[""yellow"",""blue"",""high nameability""]","right-left","[""blue"",""yellow""]","6","high nameability","51","right","trigger",""
"html-button-response","242","627054","0.0-188.0-0.0","CKN_106","106","","","","","","2382","<button class=""jspsych-btn""><img src=""stimuli/yellow.png"" style=""width: 200px;height: 200px;""></button>","1","yellow","blue","[""yellow"",""blue"",""high nameability""]","right-left","[""blue"",""yellow""]","6","high nameability","51","right","response","1"
"html-audio-button-response","243","627258","0.0-188.0-1.0","CKN_106","106","","","","","","null","stimuli/bleep.m4a","null","yellow","blue","[""yellow"",""blue"",""high nameability""]","right-left","[""blue"",""yellow""]","6","high nameability","51","right","audio_feedback","1"
"html-button-response","244","627774","0.0-189.0","CKN_106","106","","","","","","null","<button class=""jspsych-btn""><img src=""stimuli/white_square.png"" style=""width: 200px;height: 200px;""></button>","null","yellow","blue","[""yellow"",""blue"",""high nameability""]","right-left","[""blue"",""yellow""]","6","high nameability","51","right","iti",""
"html-button-response","245","628816","0.0-190.0","CKN_106","106","","","","","","1030","","0","purple","yellow","[""purple"",""yellow"",""high nameability""]","left-right","[""purple"",""yellow"",""high nameability""]","6","high nameability","52","left","trigger",""
"html-button-response","246","630149","0.0-191.0-0.0","CKN_106","106","","","","","","1325","<button class=""jspsych-btn""><img src=""stimuli/purple.png"" style=""width: 200px;height: 200px;""></button>","0","purple","yellow","[""purple"",""yellow"",""high nameability""]","left-right","[""purple"",""yellow"",""high nameability""]","6","high nameability","52","left","response","1"
"html-audio-button-response","247","630353","0.0-191.0-1.0","CKN_106","106","","","","","","null","stimuli/bleep.m4a","null","purple","yellow","[""purple"",""yellow"",""high nameability""]","left-right","[""purple"",""yellow"",""high nameability""]","6","high nameability","52","left","audio_feedback","1"
"html-button-response","248","630863","0.0-192.0","CKN_106","106","","","","","","null","<button class=""jspsych-btn""><img src=""stimuli/white_square.png"" style=""width: 200px;height: 200px;""></button>","null","purple","yellow","[""purple"",""yellow"",""high nameability""]","left-right","[""purple"",""yellow"",""high nameability""]","6","high nameability","52","left","iti",""
"html-button-response","249","631878","0.0-193.0","CKN_106","106","","","","","","994","","0","neonyellow","mustard","[""neonyellow"",""mustard"",""low nameability""]","left-right","[""neonyellow"",""mustard"",""low nameability""]","6","low nameability","53","left","trigger",""
"html-button-response","250","633151","0.0-194.0-0.0","CKN_106","106","","","","","","1258","<button class=""jspsych-btn""><img src=""stimuli/neonyellow.png"" style=""width: 200px;height: 200px;""></button>","0","neonyellow","mustard","[""neonyellow"",""mustard"",""low nameability""]","left-right","[""neonyellow"",""mustard"",""low nameability""]","6","low nameability","53","left","response","1"
"html-audio-button-response","251","633362","0.0-194.0-1.0","CKN_106","106","","","","","","null","stimuli/bleep.m4a","null","neonyellow","mustard","[""neonyellow"",""mustard"",""low nameability""]","left-right","[""neonyellow"",""mustard"",""low nameability""]","6","low nameability","53","left","audio_feedback","1"
"html-button-response","252","633876","0.0-195.0","CKN_106","106","","","","","","null","<button class=""jspsych-btn""><img src=""stimuli/white_square.png"" style=""width: 200px;height: 200px;""></button>","null","neonyellow","mustard","[""neonyellow"",""mustard"",""low nameability""]","left-right","[""neonyellow"",""mustard"",""low nameability""]","6","low nameability","53","left","iti",""
"html-button-response","253","634739","0.0-196.0","CKN_106","106","","","","","","851","","0","pink","lightred","[""pink"",""lightred"",""low nameability""]","right-left","[""lightred"",""pink""]","6","low nameability","54","right","trigger",""
"html-button-response","254","636331","0.0-197.0-0.0","CKN_106","106","","","","","","1584","<button class=""jspsych-btn""><img src=""stimuli/pink.png"" style=""width: 200px;height: 200px;""></button>","1","pink","lightred","[""pink"",""lightred"",""low nameability""]","right-left","[""lightred"",""pink""]","6","low nameability","54","right","response","1"
"html-audio-button-response","255","636531","0.0-197.0-1.0","CKN_106","106","","","","","","null","stimuli/bleep.m4a","null","pink","lightred","[""pink"",""lightred"",""low nameability""]","right-left","[""lightred"",""pink""]","6","low nameability","54","right","audio_feedback","1"
"html-button-response","256","637040","0.0-198.0","CKN_106","106","","","","","","null","<button class=""jspsych-btn""><img src=""stimuli/white_square.png"" style=""width: 200px;height: 200px;""></button>","null","pink","lightred","[""pink"",""lightred"",""low nameability""]","right-left","[""lightred"",""pink""]","6","low nameability","54","right","iti",""
"html-button-response","257","637828","0.0-199.0","CKN_106","106","","","","","","782","","0","mustard","pink","[""mustard"",""pink"",""low nameability""]","right-left","[""pink"",""mustard""]","6","low nameability","55","right","trigger",""
"html-button-response","258","639934","0.0-200.0-0.0","CKN_106","106","","","","","","2096","<button class=""jspsych-btn""><img src=""stimuli/mustard.png"" style=""width: 200px;height: 200px;""></button>","1","mustard","pink","[""mustard"",""pink"",""low nameability""]","right-left","[""pink"",""mustard""]","6","low nameability","55","right","response","1"
"html-audio-button-response","259","640140","0.0-200.0-1.0","CKN_106","106","","","","","","null","stimuli/bleep.m4a","null","mustard","pink","[""mustard"",""pink"",""low nameability""]","right-left","[""pink"",""mustard""]","6","low nameability","55","right","audio_feedback","1"
"html-button-response","260","640653","0.0-201.0","CKN_106","106","","","","","","null","<button class=""jspsych-btn""><img src=""stimuli/white_square.png"" style=""width: 200px;height: 200px;""></button>","null","mustard","pink","[""mustard"",""pink"",""low nameability""]","right-left","[""pink"",""mustard""]","6","low nameability","55","right","iti",""
"html-button-response","261","641443","0.0-202.0","CKN_106","106","","","","","","773","","0","darkgreenblue","mustard","[""darkgreenblue"",""mustard"",""low nameability""]","right-left","[""mustard"",""darkgreenblue""]","6","low nameability","56","right","trigger",""
"html-button-response","262","643712","0.0-203.0-0.0","CKN_106","106","","","","","","2259","<button class=""jspsych-btn""><img src=""stimuli/darkgreenblue.png"" style=""width: 200px;height: 200px;""></button>","1","darkgreenblue","mustard","[""darkgreenblue"",""mustard"",""low nameability""]","right-left","[""mustard"",""darkgreenblue""]","6","low nameability","56","right","response","1"
"html-audio-button-response","263","643916","0.0-203.0-1.0","CKN_106","106","","","","","","null","stimuli/bleep.m4a","null","darkgreenblue","mustard","[""darkgreenblue"",""mustard"",""low nameability""]","right-left","[""mustard"",""darkgreenblue""]","6","low nameability","56","right","audio_feedback","1"
"html-button-response","264","644429","0.0-204.0","CKN_106","106","","","","","","null","<button class=""jspsych-btn""><img src=""stimuli/white_square.png"" style=""width: 200px;height: 200px;""></button>","null","darkgreenblue","mustard","[""darkgreenblue"",""mustard"",""low nameability""]","right-left","[""mustard"",""darkgreenblue""]","6","low nameability","56","right","iti",""
"html-button-response","265","645378","0.0-205.0","CKN_106","106","","","","","","936","","0","mustard","lightred","[""mustard"",""lightred"",""low nameability""]","left-right","[""mustard"",""lightred"",""low nameability""]","6","low nameability","57","left","trigger",""
"html-button-response","266","646539","0.0-206.0-0.0","CKN_106","106","","","","","","1153","<button class=""jspsych-btn""><img src=""stimuli/mustard.png"" style=""width: 200px;height: 200px;""></button>","0","mustard","lightred","[""mustard"",""lightred"",""low nameability""]","left-right","[""mustard"",""lightred"",""low nameability""]","6","low nameability","57","left","response","1"
"html-audio-button-response","267","646742","0.0-206.0-1.0","CKN_106","106","","","","","","null","stimuli/bleep.m4a","null","mustard","lightred","[""mustard"",""lightred"",""low nameability""]","left-right","[""mustard"",""lightred"",""low nameability""]","6","low nameability","57","left","audio_feedback","1"
"html-button-response","268","647252","0.0-207.0","CKN_106","106","","","","","","null","<button class=""jspsych-btn""><img src=""stimuli/white_square.png"" style=""width: 200px;height: 200px;""></button>","null","mustard","lightred","[""mustard"",""lightred"",""low nameability""]","left-right","[""mustard"",""lightred"",""low nameability""]","6","low nameability","57","left","iti",""
"html-button-response","269","648242","0.0-208.0","CKN_106","106","","","","","","978","","0","neonyellow","pink","[""neonyellow"",""pink"",""low nameability""]","left-right","[""neonyellow"",""pink"",""low nameability""]","6","low nameability","58","left","trigger",""
"html-button-response","270","651891","0.0-209.0-0.0","CKN_106","106","","","","","","3642","<button class=""jspsych-btn""><img src=""stimuli/neonyellow.png"" style=""width: 200px;height: 200px;""></button>","0","neonyellow","pink","[""neonyellow"",""pink"",""low nameability""]","left-right","[""neonyellow"",""pink"",""low nameability""]","6","low nameability","58","left","response","1"
"html-audio-button-response","271","652097","0.0-209.0-1.0","CKN_106","106","","","","","","null","stimuli/bleep.m4a","null","neonyellow","pink","[""neonyellow"",""pink"",""low nameability""]","left-right","[""neonyellow"",""pink"",""low nameability""]","6","low nameability","58","left","audio_feedback","1"
"html-button-response","272","652617","0.0-210.0","CKN_106","106","","","","","","null","<button class=""jspsych-btn""><img src=""stimuli/white_square.png"" style=""width: 200px;height: 200px;""></button>","null","neonyellow","pink","[""neonyellow"",""pink"",""low nameability""]","left-right","[""neonyellow"",""pink"",""low nameability""]","6","low nameability","58","left","iti",""
"html-button-response","273","653615","0.0-211.0","CKN_106","106","","","","","","986","","0","brown","red","[""brown"",""red"",""high nameability""]","left-right","[""brown"",""red"",""high nameability""]","6","high nameability","59","left","trigger",""
"html-button-response","274","656173","0.0-212.0-0.0","CKN_106","106","","","","","","2551","<button class=""jspsych-btn""><img src=""stimuli/brown.png"" style=""width: 200px;height: 200px;""></button>","0","brown","red","[""brown"",""red"",""high nameability""]","left-right","[""brown"",""red"",""high nameability""]","6","high nameability","59","left","response","1"
"html-audio-button-response","275","656372","0.0-212.0-1.0","CKN_106","106","","","","","","null","stimuli/bleep.m4a","null","brown","red","[""brown"",""red"",""high nameability""]","left-right","[""brown"",""red"",""high nameability""]","6","high nameability","59","left","audio_feedback","1"
"html-button-response","276","656885","0.0-213.0","CKN_106","106","","","","","","null","<button class=""jspsych-btn""><img src=""stimuli/white_square.png"" style=""width: 200px;height: 200px;""></button>","null","brown","red","[""brown"",""red"",""high nameability""]","left-right","[""brown"",""red"",""high nameability""]","6","high nameability","59","left","iti",""
"html-button-response","277","657725","0.0-214.0","CKN_106","106","","","","","","833","","0","neonyellow","lightred","[""neonyellow"",""lightred"",""low nameability""]","left-right","[""neonyellow"",""lightred"",""low nameability""]","6","low nameability","60","left","trigger",""
"html-button-response","278","659822","0.0-215.0-0.0","CKN_106","106","","","","","","2088","<button class=""jspsych-btn""><img src=""stimuli/neonyellow.png"" style=""width: 200px;height: 200px;""></button>","0","neonyellow","lightred","[""neonyellow"",""lightred"",""low nameability""]","left-right","[""neonyellow"",""lightred"",""low nameability""]","6","low nameability","60","left","response","1"
"html-audio-button-response","279","660026","0.0-215.0-1.0","CKN_106","106","","","","","","null","stimuli/bleep.m4a","null","neonyellow","lightred","[""neonyellow"",""lightred"",""low nameability""]","left-right","[""neonyellow"",""lightred"",""low nameability""]","6","low nameability","60","left","audio_feedback","1"
"html-button-response","280","660537","0.0-216.0","CKN_106","106","","","","","","null","<button class=""jspsych-btn""><img src=""stimuli/white_square.png"" style=""width: 200px;height: 200px;""></button>","null","neonyellow","lightred","[""neonyellow"",""lightred"",""low nameability""]","left-right","[""neonyellow"",""lightred"",""low nameability""]","6","low nameability","60","left","iti",""
