"trial_type","trial_index","time_elapsed","internal_node_id","subject_id","seed","success","timeout","failed_images","failed_audio","failed_video","rt","stimulus","response","target","foil","choices","combination_order","choices_in_order","round","condition","trial_counter","target_location","trial_kind","correct"
"pavlovia","0","21","0.0-0.0","CKN_137","137","","","","","","","","","","","","","","","","","","",""
"preload","1","645","0.0-1.0","CKN_137","137","true","false","[]","[]","[]","","","","","","","","","","","","","",""
"fullscreen","2","2436","0.0-2.0","CKN_137","137","true","","","","","","","","","","","","","","","","","",""
"html-button-response","3","181836","0.0-3.0","CKN_137","137","","","","","","179372","","0","","","","","","","","","","",""
"html-button-response","4","185950","0.0-4.0","CKN_137","137","","","","","","4087","","0","star","square","[""square"",""star""]","left-right","[""square"",""star""]","1","practice","1","right","trigger",""
"html-button-response","5","201047","0.0-5.0-0.0","CKN_137","137","","","","","","15078","<button class=""jspsych-btn""><img src=""stimuli/star.png"" style=""width: 200px;height: 200px;""></button>","1","star","square","[""square"",""star""]","left-right","[""square"",""star""]","1","practice","1","right","response","1"
"html-audio-button-response","6","201269","0.0-5.0-1.0","CKN_137","137","","","","","","null","stimuli/bleep.m4a","null","star","square","[""square"",""star""]","left-right","[""square"",""star""]","1","practice","1","right","audio_feedback","1"
"html-button-response","7","201805","0.0-6.0","CKN_137","137","","","","","","null","<button class=""jspsych-btn""><img src=""stimuli/white_square.png"" style=""width: 200px;height: 200px;""></button>","null","star","square","[""square"",""star""]","left-right","[""square"",""star""]","1","practice","1","right","iti",""
"html-button-response","8","206968","0.0-7.0","CKN_137","137","","","","","","5141","","0","triangle","pentagram","[""triangle"",""pentagram""]","left-right","[""triangle"",""pentagram""]","1","practice","1","left","trigger",""
"html-button-response","9","220940","0.0-8.0-0.0","CKN_137","137","","","","","","13965","<button class=""jspsych-btn""><img src=""stimuli/triangle.png"" style=""width: 200px;height: 200px;""></button>","0","triangle","pentagram","[""triangle"",""pentagram""]","left-right","[""triangle"",""pentagram""]","1","practice","1","left","response","1"
"html-audio-button-response","10","221148","0.0-8.0-1.0","CKN_137","137","","","","","","null","stimuli/bleep.m4a","null","triangle","pentagram","[""triangle"",""pentagram""]","left-right","[""triangle"",""pentagram""]","1","practice","1","left","audio_feedback","1"
"html-button-response","11","221665","0.0-9.0","CKN_137","137","","","","","","null","<button class=""jspsych-btn""><img src=""stimuli/white_square.png"" style=""width: 200px;height: 200px;""></button>","null","triangle","pentagram","[""triangle"",""pentagram""]","left-right","[""triangle"",""pentagram""]","1","practice","1","left","iti",""
"html-button-response","12","223860","0.0-10.0","CKN_137","137","","","","","","2180","","0","diamond","rectangle","[""rectangle"",""diamond""]","left-right","[""rectangle"",""diamond""]","1","practice","1","right","trigger",""
"html-button-response","13","232311","0.0-11.0-0.0","CKN_137","137","","","","","","8440","<button class=""jspsych-btn""><img src=""stimuli/diamond.png"" style=""width: 200px;height: 200px;""></button>","1","diamond","rectangle","[""rectangle"",""diamond""]","left-right","[""rectangle"",""diamond""]","1","practice","1","right","response","1"
"html-audio-button-response","14","232528","0.0-11.0-1.0","CKN_137","137","","","","","","null","stimuli/bleep.m4a","null","diamond","rectangle","[""rectangle"",""diamond""]","left-right","[""rectangle"",""diamond""]","1","practice","1","right","audio_feedback","1"
"html-button-response","15","233042","0.0-12.0","CKN_137","137","","","","","","null","<button class=""jspsych-btn""><img src=""stimuli/white_square.png"" style=""width: 200px;height: 200px;""></button>","null","diamond","rectangle","[""rectangle"",""diamond""]","left-right","[""rectangle"",""diamond""]","1","practice","1","right","iti",""
"html-button-response","16","235398","0.0-13.0","CKN_137","137","","","","","","2343","","0","pentagram","star","[""pentagram"",""star""]","left-right","[""pentagram"",""star""]","1","practice","1","left","trigger",""
"html-button-response","17","240477","0.0-14.0-0.0","CKN_137","137","","","","","","5070","<button class=""jspsych-btn""><img src=""stimuli/pentagram.png"" style=""width: 200px;height: 200px;""></button>","0","pentagram","star","[""pentagram"",""star""]","left-right","[""pentagram"",""star""]","1","practice","1","left","response","1"
"html-audio-button-response","18","240683","0.0-14.0-1.0","CKN_137","137","","","","","","null","stimuli/bleep.m4a","null","pentagram","star","[""pentagram"",""star""]","left-right","[""pentagram"",""star""]","1","practice","1","left","audio_feedback","1"
"html-button-response","19","241213","0.0-15.0","CKN_137","137","","","","","","null","<button class=""jspsych-btn""><img src=""stimuli/white_square.png"" style=""width: 200px;height: 200px;""></button>","null","pentagram","star","[""pentagram"",""star""]","left-right","[""pentagram"",""star""]","1","practice","1","left","iti",""
"html-button-response","20","245215","0.0-16.0","CKN_137","137","","","","","","3988","","0","","","","","","","","","","",""
"html-button-response","21","247941","0.0-17.0","CKN_137","137","","","","","","2714","","0","brown","yellow","[""brown"",""yellow"",""high nameability""]","right-left","[""yellow"",""brown""]","1","high nameability","1","right","trigger",""
"html-button-response","22","254701","0.0-18.0-0.0","CKN_137","137","","","","","","6751","<button class=""jspsych-btn""><img src=""stimuli/brown.png"" style=""width: 200px;height: 200px;""></button>","1","brown","yellow","[""brown"",""yellow"",""high nameability""]","right-left","[""yellow"",""brown""]","1","high nameability","1","right","response","1"
"html-audio-button-response","23","254901","0.0-18.0-1.0","CKN_137","137","","","","","","null","stimuli/bleep.m4a","null","brown","yellow","[""brown"",""yellow"",""high nameability""]","right-left","[""yellow"",""brown""]","1","high nameability","1","right","audio_feedback","1"
"html-button-response","24","255416","0.0-19.0","CKN_137","137","","","","","","null","<button class=""jspsych-btn""><img src=""stimuli/white_square.png"" style=""width: 200px;height: 200px;""></button>","null","brown","yellow","[""brown"",""yellow"",""high nameability""]","right-left","[""yellow"",""brown""]","1","high nameability","1","right","iti",""
"html-button-response","25","259100","0.0-20.0","CKN_137","137","","","","","","3672","","0","red","brown","[""red"",""brown"",""high nameability""]","right-left","[""brown"",""red""]","1","high nameability","2","right","trigger",""
"html-button-response","26","262526","0.0-21.0-0.0","CKN_137","137","","","","","","3420","<button class=""jspsych-btn""><img src=""stimuli/red.png"" style=""width: 200px;height: 200px;""></button>","1","red","brown","[""red"",""brown"",""high nameability""]","right-left","[""brown"",""red""]","1","high nameability","2","right","response","1"
"html-audio-button-response","27","262738","0.0-21.0-1.0","CKN_137","137","","","","","","null","stimuli/bleep.m4a","null","red","brown","[""red"",""brown"",""high nameability""]","right-left","[""brown"",""red""]","1","high nameability","2","right","audio_feedback","1"
"html-button-response","28","263255","0.0-22.0","CKN_137","137","","","","","","null","<button class=""jspsych-btn""><img src=""stimuli/white_square.png"" style=""width: 200px;height: 200px;""></button>","null","red","brown","[""red"",""brown"",""high nameability""]","right-left","[""brown"",""red""]","1","high nameability","2","right","iti",""
"html-button-response","29","264789","0.0-23.0","CKN_137","137","","","","","","1525","","0","purple","blue","[""purple"",""blue"",""high nameability""]","left-right","[""purple"",""blue"",""high nameability""]","1","high nameability","3","left","trigger",""
"html-button-response","30","267645","0.0-24.0-0.0","CKN_137","137","","","","","","2849","<button class=""jspsych-btn""><img src=""stimuli/purple.png"" style=""width: 200px;height: 200px;""></button>","0","purple","blue","[""purple"",""blue"",""high nameability""]","left-right","[""purple"",""blue"",""high nameability""]","1","high nameability","3","left","response","1"
"html-audio-button-response","31","267859","0.0-24.0-1.0","CKN_137","137","","","","","","null","stimuli/bleep.m4a","null","purple","blue","[""purple"",""blue"",""high nameability""]","left-right","[""purple"",""blue"",""high nameability""]","1","high nameability","3","left","audio_feedback","1"
"html-button-response","32","268380","0.0-25.0","CKN_137","137","","","","","","null","<button class=""jspsych-btn""><img src=""stimuli/white_square.png"" style=""width: 200px;height: 200px;""></button>","null","purple","blue","[""purple"",""blue"",""high nameability""]","left-right","[""purple"",""blue"",""high nameability""]","1","high nameability","3","left","iti",""
"html-button-response","33","270129","0.0-26.0","CKN_137","137","","","","","","1721","","0","orange","brown","[""orange"",""brown"",""high nameability""]","right-left","[""brown"",""orange""]","1","high nameability","4","right","trigger",""
"html-button-response","34","272814","0.0-27.0-0.0","CKN_137","137","","","","","","2672","<button class=""jspsych-btn""><img src=""stimuli/orange.png"" style=""width: 200px;height: 200px;""></button>","1","orange","brown","[""orange"",""brown"",""high nameability""]","right-left","[""brown"",""orange""]","1","high nameability","4","right","response","1"
"html-audio-button-response","35","273023","0.0-27.0-1.0","CKN_137","137","","","","","","null","stimuli/bleep.m4a","null","orange","brown","[""orange"",""brown"",""high nameability""]","right-left","[""brown"",""orange""]","1","high nameability","4","right","audio_feedback","1"
"html-button-response","36","273554","0.0-28.0","CKN_137","137","","","","","","null","<button class=""jspsych-btn""><img src=""stimuli/white_square.png"" style=""width: 200px;height: 200px;""></button>","null","orange","brown","[""orange"",""brown"",""high nameability""]","right-left","[""brown"",""orange""]","1","high nameability","4","right","iti",""
"html-button-response","37","275301","0.0-29.0","CKN_137","137","","","","","","1732","","0","orange","red","[""orange"",""red"",""high nameability""]","left-right","[""orange"",""red"",""high nameability""]","1","high nameability","5","left","trigger",""
"html-button-response","38","280587","0.0-30.0-0.0","CKN_137","137","","","","","","5279","<button class=""jspsych-btn""><img src=""stimuli/orange.png"" style=""width: 200px;height: 200px;""></button>","0","orange","red","[""orange"",""red"",""high nameability""]","left-right","[""orange"",""red"",""high nameability""]","1","high nameability","5","left","response","1"
"html-audio-button-response","39","280794","0.0-30.0-1.0","CKN_137","137","","","","","","null","stimuli/bleep.m4a","null","orange","red","[""orange"",""red"",""high nameability""]","left-right","[""orange"",""red"",""high nameability""]","1","high nameability","5","left","audio_feedback","1"
"html-button-response","40","281307","0.0-31.0","CKN_137","137","","","","","","null","<button class=""jspsych-btn""><img src=""stimuli/white_square.png"" style=""width: 200px;height: 200px;""></button>","null","orange","red","[""orange"",""red"",""high nameability""]","left-right","[""orange"",""red"",""high nameability""]","1","high nameability","5","left","iti",""
"html-button-response","41","284971","0.0-32.0","CKN_137","137","","","","","","3653","","0","mustard","darkgreenblue","[""mustard"",""darkgreenblue"",""low nameability""]","right-left","[""darkgreenblue"",""mustard""]","1","low nameability","6","right","trigger",""
"html-button-response","42","287150","0.0-33.0-0.0","CKN_137","137","","","","","","2172","<button class=""jspsych-btn""><img src=""stimuli/mustard.png"" style=""width: 200px;height: 200px;""></button>","1","mustard","darkgreenblue","[""mustard"",""darkgreenblue"",""low nameability""]","right-left","[""darkgreenblue"",""mustard""]","1","low nameability","6","right","response","1"
"html-audio-button-response","43","287357","0.0-33.0-1.0","CKN_137","137","","","","","","null","stimuli/bleep.m4a","null","mustard","darkgreenblue","[""mustard"",""darkgreenblue"",""low nameability""]","right-left","[""darkgreenblue"",""mustard""]","1","low nameability","6","right","audio_feedback","1"
"html-button-response","44","287886","0.0-34.0","CKN_137","137","","","","","","null","<button class=""jspsych-btn""><img src=""stimuli/white_square.png"" style=""width: 200px;height: 200px;""></button>","null","mustard","darkgreenblue","[""mustard"",""darkgreenblue"",""low nameability""]","right-left","[""darkgreenblue"",""mustard""]","1","low nameability","6","right","iti",""
"html-button-response","45","290427","0.0-35.0","CKN_137","137","","","","","","2529","","0","yellow","brown","[""yellow"",""brown"",""high nameability""]","left-right","[""yellow"",""brown"",""high nameability""]","1","high nameability","7","left","trigger",""
"html-button-response","46","292315","0.0-36.0-0.0","CKN_137","137","","","","","","1880","<button class=""jspsych-btn""><img src=""stimuli/yellow.png"" style=""width: 200px;height: 200px;""></button>","0","yellow","brown","[""yellow"",""brown"",""high nameability""]","left-right","[""yellow"",""brown"",""high nameability""]","1","high nameability","7","left","response","1"
"html-audio-button-response","47","292527","0.0-36.0-1.0","CKN_137","137","","","","","","null","stimuli/bleep.m4a","null","yellow","brown","[""yellow"",""brown"",""high nameability""]","left-right","[""yellow"",""brown"",""high nameability""]","1","high nameability","7","left","audio_feedback","1"
"html-button-response","48","293044","0.0-37.0","CKN_137","137","","","","","","null","<button class=""jspsych-btn""><img src=""stimuli/white_square.png"" style=""width: 200px;height: 200px;""></button>","null","yellow","brown","[""yellow"",""brown"",""high nameability""]","left-right","[""yellow"",""brown"",""high nameability""]","1","high nameability","7","left","iti",""
"html-button-response","49","294527","0.0-38.0","CKN_137","137","","","","","","1463","","0","lightred","turquoise","[""lightred"",""turquoise"",""low nameability""]","left-right","[""lightred"",""turquoise"",""low nameability""]","1","low nameability","8","left","trigger",""
"html-button-response","50","297981","0.0-39.0-0.0","CKN_137","137","","","","","","3444","<button class=""jspsych-btn""><img src=""stimuli/lightred.png"" style=""width: 200px;height: 200px;""></button>","0","lightred","turquoise","[""lightred"",""turquoise"",""low nameability""]","left-right","[""lightred"",""turquoise"",""low nameability""]","1","low nameability","8","left","response","1"
"html-audio-button-response","51","298187","0.0-39.0-1.0","CKN_137","137","","","","","","null","stimuli/bleep.m4a","null","lightred","turquoise","[""lightred"",""turquoise"",""low nameability""]","left-right","[""lightred"",""turquoise"",""low nameability""]","1","low nameability","8","left","audio_feedback","1"
"html-button-response","52","298715","0.0-40.0","CKN_137","137","","","","","","null","<button class=""jspsych-btn""><img src=""stimuli/white_square.png"" style=""width: 200px;height: 200px;""></button>","null","lightred","turquoise","[""lightred"",""turquoise"",""low nameability""]","left-right","[""lightred"",""turquoise"",""low nameability""]","1","low nameability","8","left","iti",""
"html-button-response","53","300816","0.0-41.0","CKN_137","137","","","","","","2090","","0","neonyellow","pink","[""neonyellow"",""pink"",""low nameability""]","right-left","[""pink"",""neonyellow""]","1","low nameability","9","right","trigger",""
"html-button-response","54","302743","0.0-42.0-0.0","CKN_137","137","","","","","","1919","<button class=""jspsych-btn""><img src=""stimuli/neonyellow.png"" style=""width: 200px;height: 200px;""></button>","1","neonyellow","pink","[""neonyellow"",""pink"",""low nameability""]","right-left","[""pink"",""neonyellow""]","1","low nameability","9","right","response","1"
"html-audio-button-response","55","302949","0.0-42.0-1.0","CKN_137","137","","","","","","null","stimuli/bleep.m4a","null","neonyellow","pink","[""neonyellow"",""pink"",""low nameability""]","right-left","[""pink"",""neonyellow""]","1","low nameability","9","right","audio_feedback","1"
"html-button-response","56","303474","0.0-43.0","CKN_137","137","","","","","","null","<button class=""jspsych-btn""><img src=""stimuli/white_square.png"" style=""width: 200px;height: 200px;""></button>","null","neonyellow","pink","[""neonyellow"",""pink"",""low nameability""]","right-left","[""pink"",""neonyellow""]","1","low nameability","9","right","iti",""
"html-button-response","57","305054","0.0-44.0","CKN_137","137","","","","","","1569","","0","turquoise","pink","[""turquoise"",""pink"",""low nameability""]","left-right","[""turquoise"",""pink"",""low nameability""]","1","low nameability","10","left","trigger",""
"html-button-response","58","307353","0.0-45.0-0.0","CKN_137","137","","","","","","2288","<button class=""jspsych-btn""><img src=""stimuli/turquoise.png"" style=""width: 200px;height: 200px;""></button>","0","turquoise","pink","[""turquoise"",""pink"",""low nameability""]","left-right","[""turquoise"",""pink"",""low nameability""]","1","low nameability","10","left","response","1"
"html-audio-button-response","59","307556","0.0-45.0-1.0","CKN_137","137","","","","","","null","stimuli/bleep.m4a","null","turquoise","pink","[""turquoise"",""pink"",""low nameability""]","left-right","[""turquoise"",""pink"",""low nameability""]","1","low nameability","10","left","audio_feedback","1"
"html-button-response","60","308075","0.0-46.0","CKN_137","137","","","","","","null","<button class=""jspsych-btn""><img src=""stimuli/white_square.png"" style=""width: 200px;height: 200px;""></button>","null","turquoise","pink","[""turquoise"",""pink"",""low nameability""]","left-right","[""turquoise"",""pink"",""low nameability""]","1","low nameability","10","left","iti",""
"pavlovia","61","308164","0.0-47.0","CKN_137","137","","","","","","","","","","","","","","","","","","",""
"pavlovia","62","308181","0.0-48.0","CKN_137","137","","","","","","","","","","","","","","","","","","",""
"html-audio-button-response","63","315531","0.0-49.0","CKN_137","137","","","","","","7459","stimuli/tada.m4a","0","","","","","","","","","","",""
"html-button-response","64","316019","0.0-50.0","CKN_137","137","","","","","","483","","0","","","","","","","","","","",""
"html-button-response","65","317672","0.0-51.0","CKN_137","137","","","","","","1645","","0","brown","purple","[""brown"",""purple"",""high nameability""]","left-right","[""brown"",""purple"",""high nameability""]","2","high nameability","11","left","trigger",""
"html-button-response","66","322716","0.0-52.0-0.0","CKN_137","137","","","","","","5037","<button class=""jspsych-btn""><img src=""stimuli/brown.png"" style=""width: 200px;height: 200px;""></button>","0","brown","purple","[""brown"",""purple"",""high nameability""]","left-right","[""brown"",""purple"",""high nameability""]","2","high nameability","11","left","response","1"
"html-audio-button-response","67","322927","0.0-52.0-1.0","CKN_137","137","","","","","","null","stimuli/bleep.m4a","null","brown","purple","[""brown"",""purple"",""high nameability""]","left-right","[""brown"",""purple"",""high nameability""]","2","high nameability","11","left","audio_feedback","1"
"html-button-response","68","323450","0.0-53.0","CKN_137","137","","","","","","null","<button class=""jspsych-btn""><img src=""stimuli/white_square.png"" style=""width: 200px;height: 200px;""></button>","null","brown","purple","[""brown"",""purple"",""high nameability""]","left-right","[""brown"",""purple"",""high nameability""]","2","high nameability","11","left","iti",""
"html-button-response","69","324433","0.0-54.0","CKN_137","137","","","","","","969","","0","brown","orange","[""brown"",""orange"",""high nameability""]","left-right","[""brown"",""orange"",""high nameability""]","2","high nameability","12","left","trigger",""
"html-button-response","70","326896","0.0-55.0-0.0","CKN_137","137","","","","","","2458","<button class=""jspsych-btn""><img src=""stimuli/brown.png"" style=""width: 200px;height: 200px;""></button>","0","brown","orange","[""brown"",""orange"",""high nameability""]","left-right","[""brown"",""orange"",""high nameability""]","2","high nameability","12","left","response","1"
"html-audio-button-response","71","327101","0.0-55.0-1.0","CKN_137","137","","","","","","null","stimuli/bleep.m4a","null","brown","orange","[""brown"",""orange"",""high nameability""]","left-right","[""brown"",""orange"",""high nameability""]","2","high nameability","12","left","audio_feedback","1"
"html-button-response","72","327622","0.0-56.0","CKN_137","137","","","","","","null","<button class=""jspsych-btn""><img src=""stimuli/white_square.png"" style=""width: 200px;height: 200px;""></button>","null","brown","orange","[""brown"",""orange"",""high nameability""]","left-right","[""brown"",""orange"",""high nameability""]","2","high nameability","12","left","iti",""
"html-button-response","73","329421","0.0-57.0","CKN_137","137","","","","","","1785","","0","darkgreenblue","lightred","[""darkgreenblue"",""lightred"",""low nameability""]","right-left","[""lightred"",""darkgreenblue""]","2","low nameability","13","right","trigger",""
"html-button-response","74","333938","0.0-58.0-0.0","CKN_137","137","","","","","","4509","<button class=""jspsych-btn""><img src=""stimuli/darkgreenblue.png"" style=""width: 200px;height: 200px;""></button>","1","darkgreenblue","lightred","[""darkgreenblue"",""lightred"",""low nameability""]","right-left","[""lightred"",""darkgreenblue""]","2","low nameability","13","right","response","1"
"html-audio-button-response","75","334158","0.0-58.0-1.0","CKN_137","137","","","","","","null","stimuli/bleep.m4a","null","darkgreenblue","lightred","[""darkgreenblue"",""lightred"",""low nameability""]","right-left","[""lightred"",""darkgreenblue""]","2","low nameability","13","right","audio_feedback","1"
"html-button-response","76","334683","0.0-59.0","CKN_137","137","","","","","","null","<button class=""jspsych-btn""><img src=""stimuli/white_square.png"" style=""width: 200px;height: 200px;""></button>","null","darkgreenblue","lightred","[""darkgreenblue"",""lightred"",""low nameability""]","right-left","[""lightred"",""darkgreenblue""]","2","low nameability","13","right","iti",""
"html-button-response","77","335563","0.0-60.0","CKN_137","137","","","","","","865","","0","pink","turquoise","[""pink"",""turquoise"",""low nameability""]","left-right","[""pink"",""turquoise"",""low nameability""]","2","low nameability","14","left","trigger",""
"html-button-response","78","337813","0.0-61.0-0.0","CKN_137","137","","","","","","2243","<button class=""jspsych-btn""><img src=""stimuli/pink.png"" style=""width: 200px;height: 200px;""></button>","0","pink","turquoise","[""pink"",""turquoise"",""low nameability""]","left-right","[""pink"",""turquoise"",""low nameability""]","2","low nameability","14","left","response","1"
"html-audio-button-response","79","338018","0.0-61.0-1.0","CKN_137","137","","","","","","null","stimuli/bleep.m4a","null","pink","turquoise","[""pink"",""turquoise"",""low nameability""]","left-right","[""pink"",""turquoise"",""low nameability""]","2","low nameability","14","left","audio_feedback","1"
"html-button-response","80","338532","0.0-62.0","CKN_137","137","","","","","","null","<button class=""jspsych-btn""><img src=""stimuli/white_square.png"" style=""width: 200px;height: 200px;""></button>","null","pink","turquoise","[""pink"",""turquoise"",""low nameability""]","left-right","[""pink"",""turquoise"",""low nameability""]","2","low nameability","14","left","iti",""
"html-button-response","81","339937","0.0-63.0","CKN_137","137","","","","","","1392","","0","pink","mustard","[""pink"",""mustard"",""low nameability""]","right-left","[""mustard"",""pink""]","2","low nameability","15","right","trigger",""
"html-button-response","82","344154","0.0-64.0-0.0","CKN_137","137","","","","","","4206","<button class=""jspsych-btn""><img src=""stimuli/pink.png"" style=""width: 200px;height: 200px;""></button>","1","pink","mustard","[""pink"",""mustard"",""low nameability""]","right-left","[""mustard"",""pink""]","2","low nameability","15","right","response","1"
"html-audio-button-response","83","344364","0.0-64.0-1.0","CKN_137","137","","","","","","null","stimuli/bleep.m4a","null","pink","mustard","[""pink"",""mustard"",""low nameability""]","right-left","[""mustard"",""pink""]","2","low nameability","15","right","audio_feedback","1"
"html-button-response","84","344878","0.0-65.0","CKN_137","137","","","","","","null","<button class=""jspsych-btn""><img src=""stimuli/white_square.png"" style=""width: 200px;height: 200px;""></button>","null","pink","mustard","[""pink"",""mustard"",""low nameability""]","right-left","[""mustard"",""pink""]","2","low nameability","15","right","iti",""
"html-button-response","85","346180","0.0-66.0","CKN_137","137","","","","","","1286","","0","yellow","orange","[""yellow"",""orange"",""high nameability""]","right-left","[""orange"",""yellow""]","2","high nameability","16","right","trigger",""
"html-button-response","86","347751","0.0-67.0-0.0","CKN_137","137","","","","","","1563","<button class=""jspsych-btn""><img src=""stimuli/yellow.png"" style=""width: 200px;height: 200px;""></button>","1","yellow","orange","[""yellow"",""orange"",""high nameability""]","right-left","[""orange"",""yellow""]","2","high nameability","16","right","response","1"
"html-audio-button-response","87","347956","0.0-67.0-1.0","CKN_137","137","","","","","","null","stimuli/bleep.m4a","null","yellow","orange","[""yellow"",""orange"",""high nameability""]","right-left","[""orange"",""yellow""]","2","high nameability","16","right","audio_feedback","1"
"html-button-response","88","348466","0.0-68.0","CKN_137","137","","","","","","null","<button class=""jspsych-btn""><img src=""stimuli/white_square.png"" style=""width: 200px;height: 200px;""></button>","null","yellow","orange","[""yellow"",""orange"",""high nameability""]","right-left","[""orange"",""yellow""]","2","high nameability","16","right","iti",""
"html-button-response","89","349753","0.0-69.0","CKN_137","137","","","","","","1272","","0","darkgreenblue","mustard","[""darkgreenblue"",""mustard"",""low nameability""]","right-left","[""mustard"",""darkgreenblue""]","2","low nameability","17","right","trigger",""
"html-button-response","90","352984","0.0-70.0-0.0","CKN_137","137","","","","","","3221","<button class=""jspsych-btn""><img src=""stimuli/darkgreenblue.png"" style=""width: 200px;height: 200px;""></button>","1","darkgreenblue","mustard","[""darkgreenblue"",""mustard"",""low nameability""]","right-left","[""mustard"",""darkgreenblue""]","2","low nameability","17","right","response","1"
"html-audio-button-response","91","353187","0.0-70.0-1.0","CKN_137","137","","","","","","null","stimuli/bleep.m4a","null","darkgreenblue","mustard","[""darkgreenblue"",""mustard"",""low nameability""]","right-left","[""mustard"",""darkgreenblue""]","2","low nameability","17","right","audio_feedback","1"
"html-button-response","92","353705","0.0-71.0","CKN_137","137","","","","","","null","<button class=""jspsych-btn""><img src=""stimuli/white_square.png"" style=""width: 200px;height: 200px;""></button>","null","darkgreenblue","mustard","[""darkgreenblue"",""mustard"",""low nameability""]","right-left","[""mustard"",""darkgreenblue""]","2","low nameability","17","right","iti",""
"html-button-response","93","354611","0.0-72.0","CKN_137","137","","","","","","883","","0","turquoise","mustard","[""turquoise"",""mustard"",""low nameability""]","left-right","[""turquoise"",""mustard"",""low nameability""]","2","low nameability","18","left","trigger",""
"html-button-response","94","356118","0.0-73.0-0.0","CKN_137","137","","","","","","1499","<button class=""jspsych-btn""><img src=""stimuli/turquoise.png"" style=""width: 200px;height: 200px;""></button>","0","turquoise","mustard","[""turquoise"",""mustard"",""low nameability""]","left-right","[""turquoise"",""mustard"",""low nameability""]","2","low nameability","18","left","response","1"
"html-audio-button-response","95","356324","0.0-73.0-1.0","CKN_137","137","","","","","","null","stimuli/bleep.m4a","null","turquoise","mustard","[""turquoise"",""mustard"",""low nameability""]","left-right","[""turquoise"",""mustard"",""low nameability""]","2","low nameability","18","left","audio_feedback","1"
"html-button-response","96","356845","0.0-74.0","CKN_137","137","","","","","","null","<button class=""jspsych-btn""><img src=""stimuli/white_square.png"" style=""width: 200px;height: 200px;""></button>","null","turquoise","mustard","[""turquoise"",""mustard"",""low nameability""]","left-right","[""turquoise"",""mustard"",""low nameability""]","2","low nameability","18","left","iti",""
"html-button-response","97","357644","0.0-75.0","CKN_137","137","","","","","","782","","0","red","blue","[""red"",""blue"",""high nameability""]","left-right","[""red"",""blue"",""high nameability""]","2","high nameability","19","left","trigger",""
"html-button-response","98","359610","0.0-76.0-0.0","CKN_137","137","","","","","","1958","<button class=""jspsych-btn""><img src=""stimuli/red.png"" style=""width: 200px;height: 200px;""></button>","0","red","blue","[""red"",""blue"",""high nameability""]","left-right","[""red"",""blue"",""high nameability""]","2","high nameability","19","left","response","1"
"html-audio-button-response","99","359833","0.0-76.0-1.0","CKN_137","137","","","","","","null","stimuli/bleep.m4a","null","red","blue","[""red"",""blue"",""high nameability""]","left-right","[""red"",""blue"",""high nameability""]","2","high nameability","19","left","audio_feedback","1"
"html-button-response","100","360357","0.0-77.0","CKN_137","137","","","","","","null","<button class=""jspsych-btn""><img src=""stimuli/white_square.png"" style=""width: 200px;height: 200px;""></button>","null","red","blue","[""red"",""blue"",""high nameability""]","left-right","[""red"",""blue"",""high nameability""]","2","high nameability","19","left","iti",""
"html-button-response","101","361318","0.0-78.0","CKN_137","137","","","","","","949","","0","neonyellow","turquoise","[""neonyellow"",""turquoise"",""low nameability""]","left-right","[""neonyellow"",""turquoise"",""low nameability""]","2","low nameability","20","left","trigger",""
"html-button-response","102","365184","0.0-79.0-0.0","CKN_137","137","","","","","","3857","<button class=""jspsych-btn""><img src=""stimuli/neonyellow.png"" style=""width: 200px;height: 200px;""></button>","0","neonyellow","turquoise","[""neonyellow"",""turquoise"",""low nameability""]","left-right","[""neonyellow"",""turquoise"",""low nameability""]","2","low nameability","20","left","response","1"
"html-audio-button-response","103","365388","0.0-79.0-1.0","CKN_137","137","","","","","","null","stimuli/bleep.m4a","null","neonyellow","turquoise","[""neonyellow"",""turquoise"",""low nameability""]","left-right","[""neonyellow"",""turquoise"",""low nameability""]","2","low nameability","20","left","audio_feedback","1"
"html-button-response","104","365907","0.0-80.0","CKN_137","137","","","","","","null","<button class=""jspsych-btn""><img src=""stimuli/white_square.png"" style=""width: 200px;height: 200px;""></button>","null","neonyellow","turquoise","[""neonyellow"",""turquoise"",""low nameability""]","left-right","[""neonyellow"",""turquoise"",""low nameability""]","2","low nameability","20","left","iti",""
"pavlovia","105","365962","0.0-81.0","CKN_137","137","","","","","","","","","","","","","","","","","","",""
"pavlovia","106","365972","0.0-82.0","CKN_137","137","","","","","","","","","","","","","","","","","","",""
"html-audio-button-response","107","370055","0.0-83.0","CKN_137","137","","","","","","4149","stimuli/tada.m4a","0","","","","","","","","","","",""
"html-button-response","108","370595","0.0-84.0","CKN_137","137","","","","","","535","","0","","","","","","","","","","",""
"html-button-response","109","372092","0.0-85.0","CKN_137","137","","","","","","1490","","0","lightred","mustard","[""lightred"",""mustard"",""low nameability""]","left-right","[""lightred"",""mustard"",""low nameability""]","3","low nameability","21","left","trigger",""
"html-button-response","110","375154","0.0-86.0-0.0","CKN_137","137","","","","","","3053","<button class=""jspsych-btn""><img src=""stimuli/lightred.png"" style=""width: 200px;height: 200px;""></button>","0","lightred","mustard","[""lightred"",""mustard"",""low nameability""]","left-right","[""lightred"",""mustard"",""low nameability""]","3","low nameability","21","left","response","1"
"html-audio-button-response","111","375364","0.0-86.0-1.0","CKN_137","137","","","","","","null","stimuli/bleep.m4a","null","lightred","mustard","[""lightred"",""mustard"",""low nameability""]","left-right","[""lightred"",""mustard"",""low nameability""]","3","low nameability","21","left","audio_feedback","1"
"html-button-response","112","375882","0.0-87.0","CKN_137","137","","","","","","null","<button class=""jspsych-btn""><img src=""stimuli/white_square.png"" style=""width: 200px;height: 200px;""></button>","null","lightred","mustard","[""lightred"",""mustard"",""low nameability""]","left-right","[""lightred"",""mustard"",""low nameability""]","3","low nameability","21","left","iti",""
"html-button-response","113","376752","0.0-88.0","CKN_137","137","","","","","","854","","0","darkgreenblue","pink","[""darkgreenblue"",""pink"",""low nameability""]","left-right","[""darkgreenblue"",""pink"",""low nameability""]","3","low nameability","22","left","trigger",""
"html-button-response","114","379854","0.0-89.0-0.0","CKN_137","137","","","","","","3094","<button class=""jspsych-btn""><img src=""stimuli/darkgreenblue.png"" style=""width: 200px;height: 200px;""></button>","0","darkgreenblue","pink","[""darkgreenblue"",""pink"",""low nameability""]","left-right","[""darkgreenblue"",""pink"",""low nameability""]","3","low nameability","22","left","response","1"
"html-audio-button-response","115","380063","0.0-89.0-1.0","CKN_137","137","","","","","","null","stimuli/bleep.m4a","null","darkgreenblue","pink","[""darkgreenblue"",""pink"",""low nameability""]","left-right","[""darkgreenblue"",""pink"",""low nameability""]","3","low nameability","22","left","audio_feedback","1"
"html-button-response","116","380591","0.0-90.0","CKN_137","137","","","","","","null","<button class=""jspsych-btn""><img src=""stimuli/white_square.png"" style=""width: 200px;height: 200px;""></button>","null","darkgreenblue","pink","[""darkgreenblue"",""pink"",""low nameability""]","left-right","[""darkgreenblue"",""pink"",""low nameability""]","3","low nameability","22","left","iti",""
"html-button-response","117","381228","0.0-91.0","CKN_137","137","","","","","","622","","0","orange","purple","[""orange"",""purple"",""high nameability""]","left-right","[""orange"",""purple"",""high nameability""]","3","high nameability","23","left","trigger",""
"html-button-response","118","382389","0.0-92.0-0.0","CKN_137","137","","","","","","1154","<button class=""jspsych-btn""><img src=""stimuli/orange.png"" style=""width: 200px;height: 200px;""></button>","0","orange","purple","[""orange"",""purple"",""high nameability""]","left-right","[""orange"",""purple"",""high nameability""]","3","high nameability","23","left","response","1"
"html-audio-button-response","119","382592","0.0-92.0-1.0","CKN_137","137","","","","","","null","stimuli/bleep.m4a","null","orange","purple","[""orange"",""purple"",""high nameability""]","left-right","[""orange"",""purple"",""high nameability""]","3","high nameability","23","left","audio_feedback","1"
"html-button-response","120","383105","0.0-93.0","CKN_137","137","","","","","","null","<button class=""jspsych-btn""><img src=""stimuli/white_square.png"" style=""width: 200px;height: 200px;""></button>","null","orange","purple","[""orange"",""purple"",""high nameability""]","left-right","[""orange"",""purple"",""high nameability""]","3","high nameability","23","left","iti",""
"html-button-response","121","383505","0.0-94.0","CKN_137","137","","","","","","388","","0","blue","purple","[""blue"",""purple"",""high nameability""]","right-left","[""purple"",""blue""]","3","high nameability","24","right","trigger",""
"html-button-response","122","384366","0.0-95.0-0.0","CKN_137","137","","","","","","854","<button class=""jspsych-btn""><img src=""stimuli/blue.png"" style=""width: 200px;height: 200px;""></button>","0","blue","purple","[""blue"",""purple"",""high nameability""]","right-left","[""purple"",""blue""]","3","high nameability","24","right","response","0"
"html-audio-button-response","123","384986","0.0-95.0-1.0","CKN_137","137","","","","","","null","stimuli/boing.m4a","null","blue","purple","[""blue"",""purple"",""high nameability""]","right-left","[""purple"",""blue""]","3","high nameability","24","right","audio_feedback","0"
"html-button-response","124","386255","0.0-95.1-0.1","CKN_137","137","","","","","","1250","<button class=""jspsych-btn""><img src=""stimuli/blue.png"" style=""width: 200px;height: 200px;""></button>","1","blue","purple","[""blue"",""purple"",""high nameability""]","right-left","[""purple"",""blue""]","3","high nameability","24","right","response","1"
"html-audio-button-response","125","386461","0.0-95.1-1.1","CKN_137","137","","","","","","null","stimuli/bleep.m4a","null","blue","purple","[""blue"",""purple"",""high nameability""]","right-left","[""purple"",""blue""]","3","high nameability","24","right","audio_feedback","1"
"html-button-response","126","386975","0.0-96.0","CKN_137","137","","","","","","null","<button class=""jspsych-btn""><img src=""stimuli/white_square.png"" style=""width: 200px;height: 200px;""></button>","null","blue","purple","[""blue"",""purple"",""high nameability""]","right-left","[""purple"",""blue""]","3","high nameability","24","right","iti",""
"html-button-response","127","387987","0.0-97.0","CKN_137","137","","","","","","1001","","0","blue","brown","[""blue"",""brown"",""high nameability""]","right-left","[""brown"",""blue""]","3","high nameability","25","right","trigger",""
"html-button-response","128","389386","0.0-98.0-0.0","CKN_137","137","","","","","","1393","<button class=""jspsych-btn""><img src=""stimuli/blue.png"" style=""width: 200px;height: 200px;""></button>","1","blue","brown","[""blue"",""brown"",""high nameability""]","right-left","[""brown"",""blue""]","3","high nameability","25","right","response","1"
"html-audio-button-response","129","389597","0.0-98.0-1.0","CKN_137","137","","","","","","null","stimuli/bleep.m4a","null","blue","brown","[""blue"",""brown"",""high nameability""]","right-left","[""brown"",""blue""]","3","high nameability","25","right","audio_feedback","1"
"html-button-response","130","390125","0.0-99.0","CKN_137","137","","","","","","null","<button class=""jspsych-btn""><img src=""stimuli/white_square.png"" style=""width: 200px;height: 200px;""></button>","null","blue","brown","[""blue"",""brown"",""high nameability""]","right-left","[""brown"",""blue""]","3","high nameability","25","right","iti",""
"html-button-response","131","390988","0.0-100.0","CKN_137","137","","","","","","842","","0","yellow","purple","[""yellow"",""purple"",""high nameability""]","right-left","[""purple"",""yellow""]","3","high nameability","26","right","trigger",""
"html-button-response","132","392822","0.0-101.0-0.0","CKN_137","137","","","","","","1825","<button class=""jspsych-btn""><img src=""stimuli/yellow.png"" style=""width: 200px;height: 200px;""></button>","1","yellow","purple","[""yellow"",""purple"",""high nameability""]","right-left","[""purple"",""yellow""]","3","high nameability","26","right","response","1"
"html-audio-button-response","133","393027","0.0-101.0-1.0","CKN_137","137","","","","","","null","stimuli/bleep.m4a","null","yellow","purple","[""yellow"",""purple"",""high nameability""]","right-left","[""purple"",""yellow""]","3","high nameability","26","right","audio_feedback","1"
"html-button-response","134","393545","0.0-102.0","CKN_137","137","","","","","","null","<button class=""jspsych-btn""><img src=""stimuli/white_square.png"" style=""width: 200px;height: 200px;""></button>","null","yellow","purple","[""yellow"",""purple"",""high nameability""]","right-left","[""purple"",""yellow""]","3","high nameability","26","right","iti",""
"html-button-response","135","393937","0.0-103.0","CKN_137","137","","","","","","381","","0","blue","yellow","[""blue"",""yellow"",""high nameability""]","left-right","[""blue"",""yellow"",""high nameability""]","3","high nameability","27","left","trigger",""
"html-button-response","136","395906","0.0-104.0-0.0","CKN_137","137","","","","","","1963","<button class=""jspsych-btn""><img src=""stimuli/blue.png"" style=""width: 200px;height: 200px;""></button>","0","blue","yellow","[""blue"",""yellow"",""high nameability""]","left-right","[""blue"",""yellow"",""high nameability""]","3","high nameability","27","left","response","1"
"html-audio-button-response","137","396117","0.0-104.0-1.0","CKN_137","137","","","","","","null","stimuli/bleep.m4a","null","blue","yellow","[""blue"",""yellow"",""high nameability""]","left-right","[""blue"",""yellow"",""high nameability""]","3","high nameability","27","left","audio_feedback","1"
"html-button-response","138","396637","0.0-105.0","CKN_137","137","","","","","","null","<button class=""jspsych-btn""><img src=""stimuli/white_square.png"" style=""width: 200px;height: 200px;""></button>","null","blue","yellow","[""blue"",""yellow"",""high nameability""]","left-right","[""blue"",""yellow"",""high nameability""]","3","high nameability","27","left","iti",""
"html-button-response","139","397701","0.0-106.0","CKN_137","137","","","","","","1050","","0","purple","brown","[""purple"",""brown"",""high nameability""]","left-right","[""purple"",""brown"",""high nameability""]","3","high nameability","28","left","trigger",""
"html-button-response","140","399632","0.0-107.0-0.0","CKN_137","137","","","","","","1921","<button class=""jspsych-btn""><img src=""stimuli/purple.png"" style=""width: 200px;height: 200px;""></button>","0","purple","brown","[""purple"",""brown"",""high nameability""]","left-right","[""purple"",""brown"",""high nameability""]","3","high nameability","28","left","response","1"
"html-audio-button-response","141","399843","0.0-107.0-1.0","CKN_137","137","","","","","","null","stimuli/bleep.m4a","null","purple","brown","[""purple"",""brown"",""high nameability""]","left-right","[""purple"",""brown"",""high nameability""]","3","high nameability","28","left","audio_feedback","1"
"html-button-response","142","400356","0.0-108.0","CKN_137","137","","","","","","null","<button class=""jspsych-btn""><img src=""stimuli/white_square.png"" style=""width: 200px;height: 200px;""></button>","null","purple","brown","[""purple"",""brown"",""high nameability""]","left-right","[""purple"",""brown"",""high nameability""]","3","high nameability","28","left","iti",""
"html-button-response","143","401403","0.0-109.0","CKN_137","137","","","","","","1038","","0","turquoise","lightred","[""turquoise"",""lightred"",""low nameability""]","right-left","[""lightred"",""turquoise""]","3","low nameability","29","right","trigger",""
"html-button-response","144","402840","0.0-110.0-0.0","CKN_137","137","","","","","","1427","<button class=""jspsych-btn""><img src=""stimuli/turquoise.png"" style=""width: 200px;height: 200px;""></button>","0","turquoise","lightred","[""turquoise"",""lightred"",""low nameability""]","right-left","[""lightred"",""turquoise""]","3","low nameability","29","right","response","0"
"html-audio-button-response","145","403483","0.0-110.0-1.0","CKN_137","137","","","","","","null","stimuli/boing.m4a","null","turquoise","lightred","[""turquoise"",""lightred"",""low nameability""]","right-left","[""lightred"",""turquoise""]","3","low nameability","29","right","audio_feedback","0"
"html-button-response","146","404381","0.0-110.1-0.1","CKN_137","137","","","","","","873","<button class=""jspsych-btn""><img src=""stimuli/turquoise.png"" style=""width: 200px;height: 200px;""></button>","1","turquoise","lightred","[""turquoise"",""lightred"",""low nameability""]","right-left","[""lightred"",""turquoise""]","3","low nameability","29","right","response","1"
"html-audio-button-response","147","404589","0.0-110.1-1.1","CKN_137","137","","","","","","null","stimuli/bleep.m4a","null","turquoise","lightred","[""turquoise"",""lightred"",""low nameability""]","right-left","[""lightred"",""turquoise""]","3","low nameability","29","right","audio_feedback","1"
"html-button-response","148","405110","0.0-111.0","CKN_137","137","","","","","","null","<button class=""jspsych-btn""><img src=""stimuli/white_square.png"" style=""width: 200px;height: 200px;""></button>","null","turquoise","lightred","[""turquoise"",""lightred"",""low nameability""]","right-left","[""lightred"",""turquoise""]","3","low nameability","29","right","iti",""
"html-button-response","149","405955","0.0-112.0","CKN_137","137","","","","","","832","","0","red","yellow","[""red"",""yellow"",""high nameability""]","right-left","[""yellow"",""red""]","3","high nameability","30","right","trigger",""
"html-button-response","150","407217","0.0-113.0-0.0","CKN_137","137","","","","","","1254","<button class=""jspsych-btn""><img src=""stimuli/red.png"" style=""width: 200px;height: 200px;""></button>","1","red","yellow","[""red"",""yellow"",""high nameability""]","right-left","[""yellow"",""red""]","3","high nameability","30","right","response","1"
"html-audio-button-response","151","407427","0.0-113.0-1.0","CKN_137","137","","","","","","null","stimuli/bleep.m4a","null","red","yellow","[""red"",""yellow"",""high nameability""]","right-left","[""yellow"",""red""]","3","high nameability","30","right","audio_feedback","1"
"html-button-response","152","407943","0.0-114.0","CKN_137","137","","","","","","null","<button class=""jspsych-btn""><img src=""stimuli/white_square.png"" style=""width: 200px;height: 200px;""></button>","null","red","yellow","[""red"",""yellow"",""high nameability""]","right-left","[""yellow"",""red""]","3","high nameability","30","right","iti",""
"pavlovia","153","408006","0.0-115.0","CKN_137","137","","","","","","","","","","","","","","","","","","",""
"pavlovia","154","408014","0.0-116.0","CKN_137","137","","","","","","","","","","","","","","","","","","",""
"html-audio-button-response","155","412776","0.0-117.0","CKN_137","137","","","","","","4837","stimuli/tada.m4a","0","","","","","","","","","","",""
"html-button-response","156","413229","0.0-118.0","CKN_137","137","","","","","","447","","0","","","","","","","","","","",""
"html-button-response","157","414519","0.0-119.0","CKN_137","137","","","","","","1284","","0","pink","neonyellow","[""pink"",""neonyellow"",""low nameability""]","left-right","[""pink"",""neonyellow"",""low nameability""]","4","low nameability","31","left","trigger",""
"html-button-response","158","416160","0.0-120.0-0.0","CKN_137","137","","","","","","1634","<button class=""jspsych-btn""><img src=""stimuli/pink.png"" style=""width: 200px;height: 200px;""></button>","0","pink","neonyellow","[""pink"",""neonyellow"",""low nameability""]","left-right","[""pink"",""neonyellow"",""low nameability""]","4","low nameability","31","left","response","1"
"html-audio-button-response","159","416363","0.0-120.0-1.0","CKN_137","137","","","","","","null","stimuli/bleep.m4a","null","pink","neonyellow","[""pink"",""neonyellow"",""low nameability""]","left-right","[""pink"",""neonyellow"",""low nameability""]","4","low nameability","31","left","audio_feedback","1"
"html-button-response","160","416877","0.0-121.0","CKN_137","137","","","","","","null","<button class=""jspsych-btn""><img src=""stimuli/white_square.png"" style=""width: 200px;height: 200px;""></button>","null","pink","neonyellow","[""pink"",""neonyellow"",""low nameability""]","left-right","[""pink"",""neonyellow"",""low nameability""]","4","low nameability","31","left","iti",""
"html-button-response","161","418398","0.0-122.0","CKN_137","137","","","","","","1502","","0","blue","orange","[""blue"",""orange"",""high nameability""]","right-left","[""orange"",""blue""]","4","high nameability","32","right","trigger",""
"html-button-response","162","420012","0.0-123.0-0.0","CKN_137","137","","","","","","1601","<button class=""jspsych-btn""><img src=""stimuli/blue.png"" style=""width: 200px;height: 200px;""></button>","1","blue","orange","[""blue"",""orange"",""high nameability""]","right-left","[""orange"",""blue""]","4","high nameability","32","right","response","1"
"html-audio-button-response","163","420220","0.0-123.0-1.0","CKN_137","137","","","","","","null","stimuli/bleep.m4a","null","blue","orange","[""blue"",""orange"",""high nameability""]","right-left","[""orange"",""blue""]","4","high nameability","32","right","audio_feedback","1"
"html-button-response","164","420734","0.0-124.0","CKN_137","137","","","","","","null","<button class=""jspsych-btn""><img src=""stimuli/white_square.png"" style=""width: 200px;height: 200px;""></button>","null","blue","orange","[""blue"",""orange"",""high nameability""]","right-left","[""orange"",""blue""]","4","high nameability","32","right","iti",""
"html-button-response","165","422952","0.0-125.0","CKN_137","137","","","","","","2203","","0","purple","red","[""purple"",""red"",""high nameability""]","left-right","[""purple"",""red"",""high nameability""]","4","high nameability","33","left","trigger",""
"html-button-response","166","425371","0.0-126.0-0.0","CKN_137","137","","","","","","2412","<button class=""jspsych-btn""><img src=""stimuli/purple.png"" style=""width: 200px;height: 200px;""></button>","0","purple","red","[""purple"",""red"",""high nameability""]","left-right","[""purple"",""red"",""high nameability""]","4","high nameability","33","left","response","1"
"html-audio-button-response","167","425591","0.0-126.0-1.0","CKN_137","137","","","","","","null","stimuli/bleep.m4a","null","purple","red","[""purple"",""red"",""high nameability""]","left-right","[""purple"",""red"",""high nameability""]","4","high nameability","33","left","audio_feedback","1"
"html-button-response","168","426114","0.0-127.0","CKN_137","137","","","","","","null","<button class=""jspsych-btn""><img src=""stimuli/white_square.png"" style=""width: 200px;height: 200px;""></button>","null","purple","red","[""purple"",""red"",""high nameability""]","left-right","[""purple"",""red"",""high nameability""]","4","high nameability","33","left","iti",""
"html-button-response","169","427731","0.0-128.0","CKN_137","137","","","","","","1603","","0","brown","red","[""brown"",""red"",""high nameability""]","left-right","[""brown"",""red"",""high nameability""]","4","high nameability","34","left","trigger",""
"html-button-response","170","428891","0.0-129.0-0.0","CKN_137","137","","","","","","1154","<button class=""jspsych-btn""><img src=""stimuli/brown.png"" style=""width: 200px;height: 200px;""></button>","0","brown","red","[""brown"",""red"",""high nameability""]","left-right","[""brown"",""red"",""high nameability""]","4","high nameability","34","left","response","1"
"html-audio-button-response","171","429092","0.0-129.0-1.0","CKN_137","137","","","","","","null","stimuli/bleep.m4a","null","brown","red","[""brown"",""red"",""high nameability""]","left-right","[""brown"",""red"",""high nameability""]","4","high nameability","34","left","audio_feedback","1"
"html-button-response","172","429610","0.0-130.0","CKN_137","137","","","","","","null","<button class=""jspsych-btn""><img src=""stimuli/white_square.png"" style=""width: 200px;height: 200px;""></button>","null","brown","red","[""brown"",""red"",""high nameability""]","left-right","[""brown"",""red"",""high nameability""]","4","high nameability","34","left","iti",""
"html-button-response","173","432171","0.0-131.0","CKN_137","137","","","","","","2551","","0","orange","yellow","[""orange"",""yellow"",""high nameability""]","left-right","[""orange"",""yellow"",""high nameability""]","4","high nameability","35","left","trigger",""
"html-button-response","174","433736","0.0-132.0-0.0","CKN_137","137","","","","","","1559","<button class=""jspsych-btn""><img src=""stimuli/orange.png"" style=""width: 200px;height: 200px;""></button>","0","orange","yellow","[""orange"",""yellow"",""high nameability""]","left-right","[""orange"",""yellow"",""high nameability""]","4","high nameability","35","left","response","1"
"html-audio-button-response","175","433949","0.0-132.0-1.0","CKN_137","137","","","","","","null","stimuli/bleep.m4a","null","orange","yellow","[""orange"",""yellow"",""high nameability""]","left-right","[""orange"",""yellow"",""high nameability""]","4","high nameability","35","left","audio_feedback","1"
"html-button-response","176","434466","0.0-133.0","CKN_137","137","","","","","","null","<button class=""jspsych-btn""><img src=""stimuli/white_square.png"" style=""width: 200px;height: 200px;""></button>","null","orange","yellow","[""orange"",""yellow"",""high nameability""]","left-right","[""orange"",""yellow"",""high nameability""]","4","high nameability","35","left","iti",""
"html-button-response","177","435708","0.0-134.0","CKN_137","137","","","","","","1229","","0","purple","orange","[""purple"",""orange"",""high nameability""]","right-left","[""orange"",""purple""]","4","high nameability","36","right","trigger",""
"html-button-response","178","436771","0.0-135.0-0.0","CKN_137","137","","","","","","1056","<button class=""jspsych-btn""><img src=""stimuli/purple.png"" style=""width: 200px;height: 200px;""></button>","0","purple","orange","[""purple"",""orange"",""high nameability""]","right-left","[""orange"",""purple""]","4","high nameability","36","right","response","0"
"html-audio-button-response","179","437398","0.0-135.0-1.0","CKN_137","137","","","","","","null","stimuli/boing.m4a","null","purple","orange","[""purple"",""orange"",""high nameability""]","right-left","[""orange"",""purple""]","4","high nameability","36","right","audio_feedback","0"
"html-button-response","180","438189","0.0-135.1-0.1","CKN_137","137","","","","","","766","<button class=""jspsych-btn""><img src=""stimuli/purple.png"" style=""width: 200px;height: 200px;""></button>","1","purple","orange","[""purple"",""orange"",""high nameability""]","right-left","[""orange"",""purple""]","4","high nameability","36","right","response","1"
"html-audio-button-response","181","438395","0.0-135.1-1.1","CKN_137","137","","","","","","null","stimuli/bleep.m4a","null","purple","orange","[""purple"",""orange"",""high nameability""]","right-left","[""orange"",""purple""]","4","high nameability","36","right","audio_feedback","1"
"html-button-response","182","438911","0.0-136.0","CKN_137","137","","","","","","null","<button class=""jspsych-btn""><img src=""stimuli/white_square.png"" style=""width: 200px;height: 200px;""></button>","null","purple","orange","[""purple"",""orange"",""high nameability""]","right-left","[""orange"",""purple""]","4","high nameability","36","right","iti",""
"html-button-response","183","440518","0.0-137.0","CKN_137","137","","","","","","1566","","0","pink","darkgreenblue","[""pink"",""darkgreenblue"",""low nameability""]","right-left","[""darkgreenblue"",""pink""]","4","low nameability","37","right","trigger",""
"html-button-response","184","442106","0.0-138.0-0.0","CKN_137","137","","","","","","1576","<button class=""jspsych-btn""><img src=""stimuli/pink.png"" style=""width: 200px;height: 200px;""></button>","1","pink","darkgreenblue","[""pink"",""darkgreenblue"",""low nameability""]","right-left","[""darkgreenblue"",""pink""]","4","low nameability","37","right","response","1"
"html-audio-button-response","185","442317","0.0-138.0-1.0","CKN_137","137","","","","","","null","stimuli/bleep.m4a","null","pink","darkgreenblue","[""pink"",""darkgreenblue"",""low nameability""]","right-left","[""darkgreenblue"",""pink""]","4","low nameability","37","right","audio_feedback","1"
"html-button-response","186","442837","0.0-139.0","CKN_137","137","","","","","","null","<button class=""jspsych-btn""><img src=""stimuli/white_square.png"" style=""width: 200px;height: 200px;""></button>","null","pink","darkgreenblue","[""pink"",""darkgreenblue"",""low nameability""]","right-left","[""darkgreenblue"",""pink""]","4","low nameability","37","right","iti",""
"html-button-response","187","443692","0.0-140.0","CKN_137","137","","","","","","844","","0","blue","red","[""blue"",""red"",""high nameability""]","left-right","[""blue"",""red"",""high nameability""]","4","high nameability","38","left","trigger",""
"html-button-response","188","445235","0.0-141.0-0.0","CKN_137","137","","","","","","1532","<button class=""jspsych-btn""><img src=""stimuli/blue.png"" style=""width: 200px;height: 200px;""></button>","0","blue","red","[""blue"",""red"",""high nameability""]","left-right","[""blue"",""red"",""high nameability""]","4","high nameability","38","left","response","1"
"html-audio-button-response","189","445436","0.0-141.0-1.0","CKN_137","137","","","","","","null","stimuli/bleep.m4a","null","blue","red","[""blue"",""red"",""high nameability""]","left-right","[""blue"",""red"",""high nameability""]","4","high nameability","38","left","audio_feedback","1"
"html-button-response","190","445947","0.0-142.0","CKN_137","137","","","","","","null","<button class=""jspsych-btn""><img src=""stimuli/white_square.png"" style=""width: 200px;height: 200px;""></button>","null","blue","red","[""blue"",""red"",""high nameability""]","left-right","[""blue"",""red"",""high nameability""]","4","high nameability","38","left","iti",""
"html-button-response","191","446811","0.0-143.0","CKN_137","137","","","","","","848","","0","red","orange","[""red"",""orange"",""high nameability""]","right-left","[""orange"",""red""]","4","high nameability","39","right","trigger",""
"html-button-response","192","449294","0.0-144.0-0.0","CKN_137","137","","","","","","2472","<button class=""jspsych-btn""><img src=""stimuli/red.png"" style=""width: 200px;height: 200px;""></button>","1","red","orange","[""red"",""orange"",""high nameability""]","right-left","[""orange"",""red""]","4","high nameability","39","right","response","1"
"html-audio-button-response","193","449501","0.0-144.0-1.0","CKN_137","137","","","","","","null","stimuli/bleep.m4a","null","red","orange","[""red"",""orange"",""high nameability""]","right-left","[""orange"",""red""]","4","high nameability","39","right","audio_feedback","1"
"html-button-response","194","450036","0.0-145.0","CKN_137","137","","","","","","null","<button class=""jspsych-btn""><img src=""stimuli/white_square.png"" style=""width: 200px;height: 200px;""></button>","null","red","orange","[""red"",""orange"",""high nameability""]","right-left","[""orange"",""red""]","4","high nameability","39","right","iti",""
"html-button-response","195","450835","0.0-146.0","CKN_137","137","","","","","","779","","0","turquoise","darkgreenblue","[""turquoise"",""darkgreenblue"",""low nameability""]","left-right","[""turquoise"",""darkgreenblue"",""low nameability""]","4","low nameability","40","left","trigger",""
"html-button-response","196","453262","0.0-147.0-0.0","CKN_137","137","","","","","","2419","<button class=""jspsych-btn""><img src=""stimuli/turquoise.png"" style=""width: 200px;height: 200px;""></button>","0","turquoise","darkgreenblue","[""turquoise"",""darkgreenblue"",""low nameability""]","left-right","[""turquoise"",""darkgreenblue"",""low nameability""]","4","low nameability","40","left","response","1"
"html-audio-button-response","197","453470","0.0-147.0-1.0","CKN_137","137","","","","","","null","stimuli/bleep.m4a","null","turquoise","darkgreenblue","[""turquoise"",""darkgreenblue"",""low nameability""]","left-right","[""turquoise"",""darkgreenblue"",""low nameability""]","4","low nameability","40","left","audio_feedback","1"
"html-button-response","198","453986","0.0-148.0","CKN_137","137","","","","","","null","<button class=""jspsych-btn""><img src=""stimuli/white_square.png"" style=""width: 200px;height: 200px;""></button>","null","turquoise","darkgreenblue","[""turquoise"",""darkgreenblue"",""low nameability""]","left-right","[""turquoise"",""darkgreenblue"",""low nameability""]","4","low nameability","40","left","iti",""
"pavlovia","199","454044","0.0-149.0","CKN_137","137","","","","","","","","","","","","","","","","","","",""
"pavlovia","200","454054","0.0-150.0","CKN_137","137","","","","","","","","","","","","","","","","","","",""
"html-audio-button-response","201","459168","0.0-151.0","CKN_137","137","","","","","","5181","stimuli/tada.m4a","0","","","","","","","","","","",""
"html-button-response","202","459881","0.0-152.0","CKN_137","137","","","","","","708","","0","","","","","","","","","","",""
"html-button-response","203","461168","0.0-153.0","CKN_137","137","","","","","","1282","","0","lightred","neonyellow","[""lightred"",""neonyellow"",""low nameability""]","right-left","[""neonyellow"",""lightred""]","5","low nameability","41","right","trigger",""
"html-button-response","204","463894","0.0-154.0-0.0","CKN_137","137","","","","","","2718","<button class=""jspsych-btn""><img src=""stimuli/lightred.png"" style=""width: 200px;height: 200px;""></button>","1","lightred","neonyellow","[""lightred"",""neonyellow"",""low nameability""]","right-left","[""neonyellow"",""lightred""]","5","low nameability","41","right","response","1"
"html-audio-button-response","205","464098","0.0-154.0-1.0","CKN_137","137","","","","","","null","stimuli/bleep.m4a","null","lightred","neonyellow","[""lightred"",""neonyellow"",""low nameability""]","right-left","[""neonyellow"",""lightred""]","5","low nameability","41","right","audio_feedback","1"
"html-button-response","206","464612","0.0-155.0","CKN_137","137","","","","","","null","<button class=""jspsych-btn""><img src=""stimuli/white_square.png"" style=""width: 200px;height: 200px;""></button>","null","lightred","neonyellow","[""lightred"",""neonyellow"",""low nameability""]","right-left","[""neonyellow"",""lightred""]","5","low nameability","41","right","iti",""
"html-button-response","207","465414","0.0-156.0","CKN_137","137","","","","","","788","","0","yellow","red","[""yellow"",""red"",""high nameability""]","right-left","[""red"",""yellow""]","5","high nameability","42","right","trigger",""
"html-button-response","208","468101","0.0-157.0-0.0","CKN_137","137","","","","","","2679","<button class=""jspsych-btn""><img src=""stimuli/yellow.png"" style=""width: 200px;height: 200px;""></button>","1","yellow","red","[""yellow"",""red"",""high nameability""]","right-left","[""red"",""yellow""]","5","high nameability","42","right","response","1"
"html-audio-button-response","209","468315","0.0-157.0-1.0","CKN_137","137","","","","","","null","stimuli/bleep.m4a","null","yellow","red","[""yellow"",""red"",""high nameability""]","right-left","[""red"",""yellow""]","5","high nameability","42","right","audio_feedback","1"
"html-button-response","210","468841","0.0-158.0","CKN_137","137","","","","","","null","<button class=""jspsych-btn""><img src=""stimuli/white_square.png"" style=""width: 200px;height: 200px;""></button>","null","yellow","red","[""yellow"",""red"",""high nameability""]","right-left","[""red"",""yellow""]","5","high nameability","42","right","iti",""
"html-button-response","211","469322","0.0-159.0","CKN_137","137","","","","","","475","","0","lightred","darkgreenblue","[""lightred"",""darkgreenblue"",""low nameability""]","right-left","[""darkgreenblue"",""lightred""]","5","low nameability","43","right","trigger",""
"html-button-response","212","471984","0.0-160.0-0.0","CKN_137","137","","","","","","2654","<button class=""jspsych-btn""><img src=""stimuli/lightred.png"" style=""width: 200px;height: 200px;""></button>","1","lightred","darkgreenblue","[""lightred"",""darkgreenblue"",""low nameability""]","right-left","[""darkgreenblue"",""lightred""]","5","low nameability","43","right","response","1"
"html-audio-button-response","213","472188","0.0-160.0-1.0","CKN_137","137","","","","","","null","stimuli/bleep.m4a","null","lightred","darkgreenblue","[""lightred"",""darkgreenblue"",""low nameability""]","right-left","[""darkgreenblue"",""lightred""]","5","low nameability","43","right","audio_feedback","1"
"html-button-response","214","472704","0.0-161.0","CKN_137","137","","","","","","null","<button class=""jspsych-btn""><img src=""stimuli/white_square.png"" style=""width: 200px;height: 200px;""></button>","null","lightred","darkgreenblue","[""lightred"",""darkgreenblue"",""low nameability""]","right-left","[""darkgreenblue"",""lightred""]","5","low nameability","43","right","iti",""
"html-button-response","215","473600","0.0-162.0","CKN_137","137","","","","","","882","","0","neonyellow","mustard","[""neonyellow"",""mustard"",""low nameability""]","left-right","[""neonyellow"",""mustard"",""low nameability""]","5","low nameability","44","left","trigger",""
"html-button-response","216","475678","0.0-163.0-0.0","CKN_137","137","","","","","","2072","<button class=""jspsych-btn""><img src=""stimuli/neonyellow.png"" style=""width: 200px;height: 200px;""></button>","0","neonyellow","mustard","[""neonyellow"",""mustard"",""low nameability""]","left-right","[""neonyellow"",""mustard"",""low nameability""]","5","low nameability","44","left","response","1"
"html-audio-button-response","217","475885","0.0-163.0-1.0","CKN_137","137","","","","","","null","stimuli/bleep.m4a","null","neonyellow","mustard","[""neonyellow"",""mustard"",""low nameability""]","left-right","[""neonyellow"",""mustard"",""low nameability""]","5","low nameability","44","left","audio_feedback","1"
"html-button-response","218","476405","0.0-164.0","CKN_137","137","","","","","","null","<button class=""jspsych-btn""><img src=""stimuli/white_square.png"" style=""width: 200px;height: 200px;""></button>","null","neonyellow","mustard","[""neonyellow"",""mustard"",""low nameability""]","left-right","[""neonyellow"",""mustard"",""low nameability""]","5","low nameability","44","left","iti",""
"html-button-response","219","477127","0.0-165.0","CKN_137","137","","","","","","705","","0","pink","lightred","[""pink"",""lightred"",""low nameability""]","right-left","[""lightred"",""pink""]","5","low nameability","45","right","trigger",""
"html-button-response","220","478501","0.0-166.0-0.0","CKN_137","137","","","","","","1367","<button class=""jspsych-btn""><img src=""stimuli/pink.png"" style=""width: 200px;height: 200px;""></button>","1","pink","lightred","[""pink"",""lightred"",""low nameability""]","right-left","[""lightred"",""pink""]","5","low nameability","45","right","response","1"
"html-audio-button-response","221","478708","0.0-166.0-1.0","CKN_137","137","","","","","","null","stimuli/bleep.m4a","null","pink","lightred","[""pink"",""lightred"",""low nameability""]","right-left","[""lightred"",""pink""]","5","low nameability","45","right","audio_feedback","1"
"html-button-response","222","479222","0.0-167.0","CKN_137","137","","","","","","null","<button class=""jspsych-btn""><img src=""stimuli/white_square.png"" style=""width: 200px;height: 200px;""></button>","null","pink","lightred","[""pink"",""lightred"",""low nameability""]","right-left","[""lightred"",""pink""]","5","low nameability","45","right","iti",""
"html-button-response","223","481241","0.0-168.0","CKN_137","137","","","","","","2007","","0","mustard","lightred","[""mustard"",""lightred"",""low nameability""]","left-right","[""mustard"",""lightred"",""low nameability""]","5","low nameability","46","left","trigger",""
"html-button-response","224","482820","0.0-169.0-0.0","CKN_137","137","","","","","","1571","<button class=""jspsych-btn""><img src=""stimuli/mustard.png"" style=""width: 200px;height: 200px;""></button>","0","mustard","lightred","[""mustard"",""lightred"",""low nameability""]","left-right","[""mustard"",""lightred"",""low nameability""]","5","low nameability","46","left","response","1"
"html-audio-button-response","225","483028","0.0-169.0-1.0","CKN_137","137","","","","","","null","stimuli/bleep.m4a","null","mustard","lightred","[""mustard"",""lightred"",""low nameability""]","left-right","[""mustard"",""lightred"",""low nameability""]","5","low nameability","46","left","audio_feedback","1"
"html-button-response","226","483543","0.0-170.0","CKN_137","137","","","","","","null","<button class=""jspsych-btn""><img src=""stimuli/white_square.png"" style=""width: 200px;height: 200px;""></button>","null","mustard","lightred","[""mustard"",""lightred"",""low nameability""]","left-right","[""mustard"",""lightred"",""low nameability""]","5","low nameability","46","left","iti",""
"html-button-response","227","484378","0.0-171.0","CKN_137","137","","","","","","819","","0","turquoise","neonyellow","[""turquoise"",""neonyellow"",""low nameability""]","left-right","[""turquoise"",""neonyellow"",""low nameability""]","5","low nameability","47","left","trigger",""
"html-button-response","228","486097","0.0-172.0-0.0","CKN_137","137","","","","","","1711","<button class=""jspsych-btn""><img src=""stimuli/turquoise.png"" style=""width: 200px;height: 200px;""></button>","0","turquoise","neonyellow","[""turquoise"",""neonyellow"",""low nameability""]","left-right","[""turquoise"",""neonyellow"",""low nameability""]","5","low nameability","47","left","response","1"
"html-audio-button-response","229","486302","0.0-172.0-1.0","CKN_137","137","","","","","","null","stimuli/bleep.m4a","null","turquoise","neonyellow","[""turquoise"",""neonyellow"",""low nameability""]","left-right","[""turquoise"",""neonyellow"",""low nameability""]","5","low nameability","47","left","audio_feedback","1"
"html-button-response","230","486814","0.0-173.0","CKN_137","137","","","","","","null","<button class=""jspsych-btn""><img src=""stimuli/white_square.png"" style=""width: 200px;height: 200px;""></button>","null","turquoise","neonyellow","[""turquoise"",""neonyellow"",""low nameability""]","left-right","[""turquoise"",""neonyellow"",""low nameability""]","5","low nameability","47","left","iti",""
"html-button-response","231","487694","0.0-174.0","CKN_137","137","","","","","","867","","0","lightred","pink","[""lightred"",""pink"",""low nameability""]","right-left","[""pink"",""lightred""]","5","low nameability","48","right","trigger",""
"html-button-response","232","488950","0.0-175.0-0.0","CKN_137","137","","","","","","1250","<button class=""jspsych-btn""><img src=""stimuli/lightred.png"" style=""width: 200px;height: 200px;""></button>","1","lightred","pink","[""lightred"",""pink"",""low nameability""]","right-left","[""pink"",""lightred""]","5","low nameability","48","right","response","1"
"html-audio-button-response","233","489156","0.0-175.0-1.0","CKN_137","137","","","","","","null","stimuli/bleep.m4a","null","lightred","pink","[""lightred"",""pink"",""low nameability""]","right-left","[""pink"",""lightred""]","5","low nameability","48","right","audio_feedback","1"
"html-button-response","234","489672","0.0-176.0","CKN_137","137","","","","","","null","<button class=""jspsych-btn""><img src=""stimuli/white_square.png"" style=""width: 200px;height: 200px;""></button>","null","lightred","pink","[""lightred"",""pink"",""low nameability""]","right-left","[""pink"",""lightred""]","5","low nameability","48","right","iti",""
"html-button-response","235","490809","0.0-177.0","CKN_137","137","","","","","","1123","","0","neonyellow","lightred","[""neonyellow"",""lightred"",""low nameability""]","left-right","[""neonyellow"",""lightred"",""low nameability""]","5","low nameability","49","left","trigger",""
"html-button-response","236","492686","0.0-178.0-0.0","CKN_137","137","","","","","","1871","<button class=""jspsych-btn""><img src=""stimuli/neonyellow.png"" style=""width: 200px;height: 200px;""></button>","0","neonyellow","lightred","[""neonyellow"",""lightred"",""low nameability""]","left-right","[""neonyellow"",""lightred"",""low nameability""]","5","low nameability","49","left","response","1"
"html-audio-button-response","237","492897","0.0-178.0-1.0","CKN_137","137","","","","","","null","stimuli/bleep.m4a","null","neonyellow","lightred","[""neonyellow"",""lightred"",""low nameability""]","left-right","[""neonyellow"",""lightred"",""low nameability""]","5","low nameability","49","left","audio_feedback","1"
"html-button-response","238","493406","0.0-179.0","CKN_137","137","","","","","","null","<button class=""jspsych-btn""><img src=""stimuli/white_square.png"" style=""width: 200px;height: 200px;""></button>","null","neonyellow","lightred","[""neonyellow"",""lightred"",""low nameability""]","left-right","[""neonyellow"",""lightred"",""low nameability""]","5","low nameability","49","left","iti",""
"html-button-response","239","494502","0.0-180.0","CKN_137","137","","","","","","1082","","0","purple","yellow","[""purple"",""yellow"",""high nameability""]","right-left","[""yellow"",""purple""]","5","high nameability","50","right","trigger",""
"html-button-response","240","496391","0.0-181.0-0.0","CKN_137","137","","","","","","1881","<button class=""jspsych-btn""><img src=""stimuli/purple.png"" style=""width: 200px;height: 200px;""></button>","1","purple","yellow","[""purple"",""yellow"",""high nameability""]","right-left","[""yellow"",""purple""]","5","high nameability","50","right","response","1"
"html-audio-button-response","241","496597","0.0-181.0-1.0","CKN_137","137","","","","","","null","stimuli/bleep.m4a","null","purple","yellow","[""purple"",""yellow"",""high nameability""]","right-left","[""yellow"",""purple""]","5","high nameability","50","right","audio_feedback","1"
"html-button-response","242","497123","0.0-182.0","CKN_137","137","","","","","","null","<button class=""jspsych-btn""><img src=""stimuli/white_square.png"" style=""width: 200px;height: 200px;""></button>","null","purple","yellow","[""purple"",""yellow"",""high nameability""]","right-left","[""yellow"",""purple""]","5","high nameability","50","right","iti",""
"pavlovia","243","497189","0.0-183.0","CKN_137","137","","","","","","","","","","","","","","","","","","",""
"pavlovia","244","497197","0.0-184.0","CKN_137","137","","","","","","","","","","","","","","","","","","",""
"html-audio-button-response","245","501237","0.0-185.0","CKN_137","137","","","","","","4115","stimuli/tada.m4a","0","","","","","","","","","","",""
"html-button-response","246","501980","0.0-186.0","CKN_137","137","","","","","","736","","0","","","","","","","","","","",""
"html-button-response","247","503190","0.0-187.0","CKN_137","137","","","","","","1205","","0","orange","blue","[""orange"",""blue"",""high nameability""]","right-left","[""blue"",""orange""]","6","high nameability","51","right","trigger",""
"html-button-response","248","505530","0.0-188.0-0.0","CKN_137","137","","","","","","2331","<button class=""jspsych-btn""><img src=""stimuli/orange.png"" style=""width: 200px;height: 200px;""></button>","1","orange","blue","[""orange"",""blue"",""high nameability""]","right-left","[""blue"",""orange""]","6","high nameability","51","right","response","1"
"html-audio-button-response","249","505741","0.0-188.0-1.0","CKN_137","137","","","","","","null","stimuli/bleep.m4a","null","orange","blue","[""orange"",""blue"",""high nameability""]","right-left","[""blue"",""orange""]","6","high nameability","51","right","audio_feedback","1"
"html-button-response","250","506263","0.0-189.0","CKN_137","137","","","","","","null","<button class=""jspsych-btn""><img src=""stimuli/white_square.png"" style=""width: 200px;height: 200px;""></button>","null","orange","blue","[""orange"",""blue"",""high nameability""]","right-left","[""blue"",""orange""]","6","high nameability","51","right","iti",""
"html-button-response","251","507575","0.0-190.0","CKN_137","137","","","","","","1296","","0","mustard","turquoise","[""mustard"",""turquoise"",""low nameability""]","right-left","[""turquoise"",""mustard""]","6","low nameability","52","right","trigger",""
"html-button-response","252","509876","0.0-191.0-0.0","CKN_137","137","","","","","","2293","<button class=""jspsych-btn""><img src=""stimuli/mustard.png"" style=""width: 200px;height: 200px;""></button>","1","mustard","turquoise","[""mustard"",""turquoise"",""low nameability""]","right-left","[""turquoise"",""mustard""]","6","low nameability","52","right","response","1"
"html-audio-button-response","253","510083","0.0-191.0-1.0","CKN_137","137","","","","","","null","stimuli/bleep.m4a","null","mustard","turquoise","[""mustard"",""turquoise"",""low nameability""]","right-left","[""turquoise"",""mustard""]","6","low nameability","52","right","audio_feedback","1"
"html-button-response","254","510604","0.0-192.0","CKN_137","137","","","","","","null","<button class=""jspsych-btn""><img src=""stimuli/white_square.png"" style=""width: 200px;height: 200px;""></button>","null","mustard","turquoise","[""mustard"",""turquoise"",""low nameability""]","right-left","[""turquoise"",""mustard""]","6","low nameability","52","right","iti",""
"html-button-response","255","511509","0.0-193.0","CKN_137","137","","","","","","885","","0","neonyellow","darkgreenblue","[""neonyellow"",""darkgreenblue"",""low nameability""]","right-left","[""darkgreenblue"",""neonyellow""]","6","low nameability","53","right","trigger",""
"html-button-response","256","512818","0.0-194.0-0.0","CKN_137","137","","","","","","1299","<button class=""jspsych-btn""><img src=""stimuli/neonyellow.png"" style=""width: 200px;height: 200px;""></button>","1","neonyellow","darkgreenblue","[""neonyellow"",""darkgreenblue"",""low nameability""]","right-left","[""darkgreenblue"",""neonyellow""]","6","low nameability","53","right","response","1"
"html-audio-button-response","257","513027","0.0-194.0-1.0","CKN_137","137","","","","","","null","stimuli/bleep.m4a","null","neonyellow","darkgreenblue","[""neonyellow"",""darkgreenblue"",""low nameability""]","right-left","[""darkgreenblue"",""neonyellow""]","6","low nameability","53","right","audio_feedback","1"
"html-button-response","258","513547","0.0-195.0","CKN_137","137","","","","","","null","<button class=""jspsych-btn""><img src=""stimuli/white_square.png"" style=""width: 200px;height: 200px;""></button>","null","neonyellow","darkgreenblue","[""neonyellow"",""darkgreenblue"",""low nameability""]","right-left","[""darkgreenblue"",""neonyellow""]","6","low nameability","53","right","iti",""
"html-button-response","259","514150","0.0-196.0","CKN_137","137","","","","","","583","","0","darkgreenblue","turquoise","[""darkgreenblue"",""turquoise"",""low nameability""]","left-right","[""darkgreenblue"",""turquoise"",""low nameability""]","6","low nameability","54","left","trigger",""
"html-button-response","260","515815","0.0-197.0-0.0","CKN_137","137","","","","","","1657","<button class=""jspsych-btn""><img src=""stimuli/darkgreenblue.png"" style=""width: 200px;height: 200px;""></button>","0","darkgreenblue","turquoise","[""darkgreenblue"",""turquoise"",""low nameability""]","left-right","[""darkgreenblue"",""turquoise"",""low nameability""]","6","low nameability","54","left","response","1"
"html-audio-button-response","261","516019","0.0-197.0-1.0","CKN_137","137","","","","","","null","stimuli/bleep.m4a","null","darkgreenblue","turquoise","[""darkgreenblue"",""turquoise"",""low nameability""]","left-right","[""darkgreenblue"",""turquoise"",""low nameability""]","6","low nameability","54","left","audio_feedback","1"
"html-button-response","262","516534","0.0-198.0","CKN_137","137","","","","","","null","<button class=""jspsych-btn""><img src=""stimuli/white_square.png"" style=""width: 200px;height: 200px;""></button>","null","darkgreenblue","turquoise","[""darkgreenblue"",""turquoise"",""low nameability""]","left-right","[""darkgreenblue"",""turquoise"",""low nameability""]","6","low nameability","54","left","iti",""
"html-button-response","263","517501","0.0-199.0","CKN_137","137","","","","","","954","","0","brown","blue","[""brown"",""blue"",""high nameability""]","left-right","[""brown"",""blue"",""high nameability""]","6","high nameability","55","left","trigger",""
"html-button-response","264","519494","0.0-200.0-0.0","CKN_137","137","","","","","","1987","<button class=""jspsych-btn""><img src=""stimuli/brown.png"" style=""width: 200px;height: 200px;""></button>","0","brown","blue","[""brown"",""blue"",""high nameability""]","left-right","[""brown"",""blue"",""high nameability""]","6","high nameability","55","left","response","1"
"html-audio-button-response","265","519703","0.0-200.0-1.0","CKN_137","137","","","","","","null","stimuli/bleep.m4a","null","brown","blue","[""brown"",""blue"",""high nameability""]","left-right","[""brown"",""blue"",""high nameability""]","6","high nameability","55","left","audio_feedback","1"
"html-button-response","266","520227","0.0-201.0","CKN_137","137","","","","","","null","<button class=""jspsych-btn""><img src=""stimuli/white_square.png"" style=""width: 200px;height: 200px;""></button>","null","brown","blue","[""brown"",""blue"",""high nameability""]","left-right","[""brown"",""blue"",""high nameability""]","6","high nameability","55","left","iti",""
"html-button-response","267","521068","0.0-202.0","CKN_137","137","","","","","","831","","0","darkgreenblue","neonyellow","[""darkgreenblue"",""neonyellow"",""low nameability""]","right-left","[""neonyellow"",""darkgreenblue""]","6","low nameability","56","right","trigger",""
"html-button-response","268","522786","0.0-203.0-0.0","CKN_137","137","","","","","","1709","<button class=""jspsych-btn""><img src=""stimuli/darkgreenblue.png"" style=""width: 200px;height: 200px;""></button>","1","darkgreenblue","neonyellow","[""darkgreenblue"",""neonyellow"",""low nameability""]","right-left","[""neonyellow"",""darkgreenblue""]","6","low nameability","56","right","response","1"
"html-audio-button-response","269","522989","0.0-203.0-1.0","CKN_137","137","","","","","","null","stimuli/bleep.m4a","null","darkgreenblue","neonyellow","[""darkgreenblue"",""neonyellow"",""low nameability""]","right-left","[""neonyellow"",""darkgreenblue""]","6","low nameability","56","right","audio_feedback","1"
"html-button-response","270","523511","0.0-204.0","CKN_137","137","","","","","","null","<button class=""jspsych-btn""><img src=""stimuli/white_square.png"" style=""width: 200px;height: 200px;""></button>","null","darkgreenblue","neonyellow","[""darkgreenblue"",""neonyellow"",""low nameability""]","right-left","[""neonyellow"",""darkgreenblue""]","6","low nameability","56","right","iti",""
"html-button-response","271","524506","0.0-205.0","CKN_137","137","","","","","","978","","0","red","purple","[""red"",""purple"",""high nameability""]","right-left","[""purple"",""red""]","6","high nameability","57","right","trigger",""
"html-button-response","272","525499","0.0-206.0-0.0","CKN_137","137","","","","","","987","<button class=""jspsych-btn""><img src=""stimuli/red.png"" style=""width: 200px;height: 200px;""></button>","1","red","purple","[""red"",""purple"",""high nameability""]","right-left","[""purple"",""red""]","6","high nameability","57","right","response","1"
"html-audio-button-response","273","525702","0.0-206.0-1.0","CKN_137","137","","","","","","null","stimuli/bleep.m4a","null","red","purple","[""red"",""purple"",""high nameability""]","right-left","[""purple"",""red""]","6","high nameability","57","right","audio_feedback","1"
"html-button-response","274","526220","0.0-207.0","CKN_137","137","","","","","","null","<button class=""jspsych-btn""><img src=""stimuli/white_square.png"" style=""width: 200px;height: 200px;""></button>","null","red","purple","[""red"",""purple"",""high nameability""]","right-left","[""purple"",""red""]","6","high nameability","57","right","iti",""
"html-button-response","275","527066","0.0-208.0","CKN_137","137","","","","","","834","","0","yellow","blue","[""yellow"",""blue"",""high nameability""]","left-right","[""yellow"",""blue"",""high nameability""]","6","high nameability","58","left","trigger",""
"html-button-response","276","528516","0.0-209.0-0.0","CKN_137","137","","","","","","1442","<button class=""jspsych-btn""><img src=""stimuli/yellow.png"" style=""width: 200px;height: 200px;""></button>","0","yellow","blue","[""yellow"",""blue"",""high nameability""]","left-right","[""yellow"",""blue"",""high nameability""]","6","high nameability","58","left","response","1"
"html-audio-button-response","277","528725","0.0-209.0-1.0","CKN_137","137","","","","","","null","stimuli/bleep.m4a","null","yellow","blue","[""yellow"",""blue"",""high nameability""]","left-right","[""yellow"",""blue"",""high nameability""]","6","high nameability","58","left","audio_feedback","1"
"html-button-response","278","529245","0.0-210.0","CKN_137","137","","","","","","null","<button class=""jspsych-btn""><img src=""stimuli/white_square.png"" style=""width: 200px;height: 200px;""></button>","null","yellow","blue","[""yellow"",""blue"",""high nameability""]","left-right","[""yellow"",""blue"",""high nameability""]","6","high nameability","58","left","iti",""
"html-button-response","279","531311","0.0-211.0","CKN_137","137","","","","","","2046","","0","mustard","pink","[""mustard"",""pink"",""low nameability""]","right-left","[""pink"",""mustard""]","6","low nameability","59","right","trigger",""
"html-button-response","280","532946","0.0-212.0-0.0","CKN_137","137","","","","","","1627","<button class=""jspsych-btn""><img src=""stimuli/mustard.png"" style=""width: 200px;height: 200px;""></button>","1","mustard","pink","[""mustard"",""pink"",""low nameability""]","right-left","[""pink"",""mustard""]","6","low nameability","59","right","response","1"
"html-audio-button-response","281","533153","0.0-212.0-1.0","CKN_137","137","","","","","","null","stimuli/bleep.m4a","null","mustard","pink","[""mustard"",""pink"",""low nameability""]","right-left","[""pink"",""mustard""]","6","low nameability","59","right","audio_feedback","1"
"html-button-response","282","533664","0.0-213.0","CKN_137","137","","","","","","null","<button class=""jspsych-btn""><img src=""stimuli/white_square.png"" style=""width: 200px;height: 200px;""></button>","null","mustard","pink","[""mustard"",""pink"",""low nameability""]","right-left","[""pink"",""mustard""]","6","low nameability","59","right","iti",""
"html-button-response","283","534857","0.0-214.0","CKN_137","137","","","","","","1173","","0","mustard","neonyellow","[""mustard"",""neonyellow"",""low nameability""]","left-right","[""mustard"",""neonyellow"",""low nameability""]","6","low nameability","60","left","trigger",""
"html-button-response","284","536398","0.0-215.0-0.0","CKN_137","137","","","","","","1529","<button class=""jspsych-btn""><img src=""stimuli/mustard.png"" style=""width: 200px;height: 200px;""></button>","0","mustard","neonyellow","[""mustard"",""neonyellow"",""low nameability""]","left-right","[""mustard"",""neonyellow"",""low nameability""]","6","low nameability","60","left","response","1"
"html-audio-button-response","285","536611","0.0-215.0-1.0","CKN_137","137","","","","","","null","stimuli/bleep.m4a","null","mustard","neonyellow","[""mustard"",""neonyellow"",""low nameability""]","left-right","[""mustard"",""neonyellow"",""low nameability""]","6","low nameability","60","left","audio_feedback","1"
"html-button-response","286","537122","0.0-216.0","CKN_137","137","","","","","","null","<button class=""jspsych-btn""><img src=""stimuli/white_square.png"" style=""width: 200px;height: 200px;""></button>","null","mustard","neonyellow","[""mustard"",""neonyellow"",""low nameability""]","left-right","[""mustard"",""neonyellow"",""low nameability""]","6","low nameability","60","left","iti",""
