"trial_type","trial_index","time_elapsed","internal_node_id","subject_id","seed","success","timeout","failed_images","failed_audio","failed_video","rt","stimulus","response","target","foil","choices","combination_order","choices_in_order","round","condition","trial_counter","target_location","trial_kind","correct"
"pavlovia","0","21","0.0-0.0","CKN_114","114","","","","","","","","","","","","","","","","","","",""
"preload","1","1469","0.0-1.0","CKN_114","114","true","false","[]","[]","[]","","","","","","","","","","","","","",""
"fullscreen","2","4934","0.0-2.0","CKN_114","114","true","","","","","","","","","","","","","","","","","",""
"html-button-response","3","18956","0.0-3.0","CKN_114","114","","","","","","14003","","0","","","","","","","","","","",""
"html-button-response","4","22418","0.0-4.0","CKN_114","114","","","","","","3443","","0","star","square","[""square"",""star""]","left-right","[""square"",""star""]","1","practice","1","right","trigger",""
"html-button-response","5","31536","0.0-5.0-0.0","CKN_114","114","","","","","","9106","<button class=""jspsych-btn""><img src=""stimuli/star.png"" style=""width: 200px;height: 200px;""></button>","1","star","square","[""square"",""star""]","left-right","[""square"",""star""]","1","practice","1","right","response","1"
"html-audio-button-response","6","31749","0.0-5.0-1.0","CKN_114","114","","","","","","null","stimuli/bleep.m4a","null","star","square","[""square"",""star""]","left-right","[""square"",""star""]","1","practice","1","right","audio_feedback","1"
"html-button-response","7","32274","0.0-6.0","CKN_114","114","","","","","","null","<button class=""jspsych-btn""><img src=""stimuli/white_square.png"" style=""width: 200px;height: 200px;""></button>","null","star","square","[""square"",""star""]","left-right","[""square"",""star""]","1","practice","1","right","iti",""
"html-button-response","8","36379","0.0-7.0","CKN_114","114","","","","","","4083","","0","triangle","pentagram","[""triangle"",""pentagram""]","left-right","[""triangle"",""pentagram""]","1","practice","1","left","trigger",""
"html-button-response","9","45588","0.0-8.0-0.0","CKN_114","114","","","","","","9200","<button class=""jspsych-btn""><img src=""stimuli/triangle.png"" style=""width: 200px;height: 200px;""></button>","0","triangle","pentagram","[""triangle"",""pentagram""]","left-right","[""triangle"",""pentagram""]","1","practice","1","left","response","1"
"html-audio-button-response","10","45797","0.0-8.0-1.0","CKN_114","114","","","","","","null","stimuli/bleep.m4a","null","triangle","pentagram","[""triangle"",""pentagram""]","left-right","[""triangle"",""pentagram""]","1","practice","1","left","audio_feedback","1"
"html-button-response","11","46326","0.0-9.0","CKN_114","114","","","","","","null","<button class=""jspsych-btn""><img src=""stimuli/white_square.png"" style=""width: 200px;height: 200px;""></button>","null","triangle","pentagram","[""triangle"",""pentagram""]","left-right","[""triangle"",""pentagram""]","1","practice","1","left","iti",""
"html-button-response","12","48380","0.0-10.0","CKN_114","114","","","","","","2031","","0","diamond","rectangle","[""rectangle"",""diamond""]","left-right","[""rectangle"",""diamond""]","1","practice","1","right","trigger",""
"html-button-response","13","51714","0.0-11.0-0.0","CKN_114","114","","","","","","3314","<button class=""jspsych-btn""><img src=""stimuli/diamond.png"" style=""width: 200px;height: 200px;""></button>","1","diamond","rectangle","[""rectangle"",""diamond""]","left-right","[""rectangle"",""diamond""]","1","practice","1","right","response","1"
"html-audio-button-response","14","51940","0.0-11.0-1.0","CKN_114","114","","","","","","null","stimuli/bleep.m4a","null","diamond","rectangle","[""rectangle"",""diamond""]","left-right","[""rectangle"",""diamond""]","1","practice","1","right","audio_feedback","1"
"html-button-response","15","52472","0.0-12.0","CKN_114","114","","","","","","null","<button class=""jspsych-btn""><img src=""stimuli/white_square.png"" style=""width: 200px;height: 200px;""></button>","null","diamond","rectangle","[""rectangle"",""diamond""]","left-right","[""rectangle"",""diamond""]","1","practice","1","right","iti",""
"html-button-response","16","54365","0.0-13.0","CKN_114","114","","","","","","1875","","0","pentagram","star","[""pentagram"",""star""]","left-right","[""pentagram"",""star""]","1","practice","1","left","trigger",""
"html-button-response","17","56561","0.0-14.0-0.0","CKN_114","114","","","","","","2182","<button class=""jspsych-btn""><img src=""stimuli/pentagram.png"" style=""width: 200px;height: 200px;""></button>","0","pentagram","star","[""pentagram"",""star""]","left-right","[""pentagram"",""star""]","1","practice","1","left","response","1"
"html-audio-button-response","18","56774","0.0-14.0-1.0","CKN_114","114","","","","","","null","stimuli/bleep.m4a","null","pentagram","star","[""pentagram"",""star""]","left-right","[""pentagram"",""star""]","1","practice","1","left","audio_feedback","1"
"html-button-response","19","57295","0.0-15.0","CKN_114","114","","","","","","null","<button class=""jspsych-btn""><img src=""stimuli/white_square.png"" style=""width: 200px;height: 200px;""></button>","null","pentagram","star","[""pentagram"",""star""]","left-right","[""pentagram"",""star""]","1","practice","1","left","iti",""
"html-button-response","20","64581","0.0-16.0","CKN_114","114","","","","","","7274","","0","","","","","","","","","","",""
"html-button-response","21","67023","0.0-17.0","CKN_114","114","","","","","","2434","","0","pink","darkgreenblue","[""pink"",""darkgreenblue"",""low nameability""]","right-left","[""darkgreenblue"",""pink""]","1","low nameability","1","right","trigger",""
"html-button-response","22","68707","0.0-18.0-0.0","CKN_114","114","","","","","","1677","<button class=""jspsych-btn""><img src=""stimuli/pink.png"" style=""width: 200px;height: 200px;""></button>","1","pink","darkgreenblue","[""pink"",""darkgreenblue"",""low nameability""]","right-left","[""darkgreenblue"",""pink""]","1","low nameability","1","right","response","1"
"html-audio-button-response","23","68941","0.0-18.0-1.0","CKN_114","114","","","","","","null","stimuli/bleep.m4a","null","pink","darkgreenblue","[""pink"",""darkgreenblue"",""low nameability""]","right-left","[""darkgreenblue"",""pink""]","1","low nameability","1","right","audio_feedback","1"
"html-button-response","24","69461","0.0-19.0","CKN_114","114","","","","","","null","<button class=""jspsych-btn""><img src=""stimuli/white_square.png"" style=""width: 200px;height: 200px;""></button>","null","pink","darkgreenblue","[""pink"",""darkgreenblue"",""low nameability""]","right-left","[""darkgreenblue"",""pink""]","1","low nameability","1","right","iti",""
"html-button-response","25","70934","0.0-20.0","CKN_114","114","","","","","","1444","","0","neonyellow","darkgreenblue","[""neonyellow"",""darkgreenblue"",""low nameability""]","left-right","[""neonyellow"",""darkgreenblue"",""low nameability""]","1","low nameability","2","left","trigger",""
"html-button-response","26","72239","0.0-21.0-0.0","CKN_114","114","","","","","","1289","<button class=""jspsych-btn""><img src=""stimuli/neonyellow.png"" style=""width: 200px;height: 200px;""></button>","0","neonyellow","darkgreenblue","[""neonyellow"",""darkgreenblue"",""low nameability""]","left-right","[""neonyellow"",""darkgreenblue"",""low nameability""]","1","low nameability","2","left","response","1"
"html-audio-button-response","27","72445","0.0-21.0-1.0","CKN_114","114","","","","","","null","stimuli/bleep.m4a","null","neonyellow","darkgreenblue","[""neonyellow"",""darkgreenblue"",""low nameability""]","left-right","[""neonyellow"",""darkgreenblue"",""low nameability""]","1","low nameability","2","left","audio_feedback","1"
"html-button-response","28","72964","0.0-22.0","CKN_114","114","","","","","","null","<button class=""jspsych-btn""><img src=""stimuli/white_square.png"" style=""width: 200px;height: 200px;""></button>","null","neonyellow","darkgreenblue","[""neonyellow"",""darkgreenblue"",""low nameability""]","left-right","[""neonyellow"",""darkgreenblue"",""low nameability""]","1","low nameability","2","left","iti",""
"html-button-response","29","74589","0.0-23.0","CKN_114","114","","","","","","1607","","0","turquoise","darkgreenblue","[""turquoise"",""darkgreenblue"",""low nameability""]","left-right","[""turquoise"",""darkgreenblue"",""low nameability""]","1","low nameability","3","left","trigger",""
"html-button-response","30","77053","0.0-24.0-0.0","CKN_114","114","","","","","","2457","<button class=""jspsych-btn""><img src=""stimuli/turquoise.png"" style=""width: 200px;height: 200px;""></button>","0","turquoise","darkgreenblue","[""turquoise"",""darkgreenblue"",""low nameability""]","left-right","[""turquoise"",""darkgreenblue"",""low nameability""]","1","low nameability","3","left","response","1"
"html-audio-button-response","31","77269","0.0-24.0-1.0","CKN_114","114","","","","","","null","stimuli/bleep.m4a","null","turquoise","darkgreenblue","[""turquoise"",""darkgreenblue"",""low nameability""]","left-right","[""turquoise"",""darkgreenblue"",""low nameability""]","1","low nameability","3","left","audio_feedback","1"
"html-button-response","32","77796","0.0-25.0","CKN_114","114","","","","","","null","<button class=""jspsych-btn""><img src=""stimuli/white_square.png"" style=""width: 200px;height: 200px;""></button>","null","turquoise","darkgreenblue","[""turquoise"",""darkgreenblue"",""low nameability""]","left-right","[""turquoise"",""darkgreenblue"",""low nameability""]","1","low nameability","3","left","iti",""
"html-button-response","33","80217","0.0-26.0","CKN_114","114","","","","","","2406","","0","pink","turquoise","[""pink"",""turquoise"",""low nameability""]","right-left","[""turquoise"",""pink""]","1","low nameability","4","right","trigger",""
"html-button-response","34","81958","0.0-27.0-0.0","CKN_114","114","","","","","","1734","<button class=""jspsych-btn""><img src=""stimuli/pink.png"" style=""width: 200px;height: 200px;""></button>","1","pink","turquoise","[""pink"",""turquoise"",""low nameability""]","right-left","[""turquoise"",""pink""]","1","low nameability","4","right","response","1"
"html-audio-button-response","35","82165","0.0-27.0-1.0","CKN_114","114","","","","","","null","stimuli/bleep.m4a","null","pink","turquoise","[""pink"",""turquoise"",""low nameability""]","right-left","[""turquoise"",""pink""]","1","low nameability","4","right","audio_feedback","1"
"html-button-response","36","82684","0.0-28.0","CKN_114","114","","","","","","null","<button class=""jspsych-btn""><img src=""stimuli/white_square.png"" style=""width: 200px;height: 200px;""></button>","null","pink","turquoise","[""pink"",""turquoise"",""low nameability""]","right-left","[""turquoise"",""pink""]","1","low nameability","4","right","iti",""
"html-button-response","37","84070","0.0-29.0","CKN_114","114","","","","","","1370","","0","yellow","orange","[""yellow"",""orange"",""high nameability""]","left-right","[""yellow"",""orange"",""high nameability""]","1","high nameability","5","left","trigger",""
"html-button-response","38","85167","0.0-30.0-0.0","CKN_114","114","","","","","","1087","<button class=""jspsych-btn""><img src=""stimuli/yellow.png"" style=""width: 200px;height: 200px;""></button>","0","yellow","orange","[""yellow"",""orange"",""high nameability""]","left-right","[""yellow"",""orange"",""high nameability""]","1","high nameability","5","left","response","1"
"html-audio-button-response","39","85373","0.0-30.0-1.0","CKN_114","114","","","","","","null","stimuli/bleep.m4a","null","yellow","orange","[""yellow"",""orange"",""high nameability""]","left-right","[""yellow"",""orange"",""high nameability""]","1","high nameability","5","left","audio_feedback","1"
"html-button-response","40","85896","0.0-31.0","CKN_114","114","","","","","","null","<button class=""jspsych-btn""><img src=""stimuli/white_square.png"" style=""width: 200px;height: 200px;""></button>","null","yellow","orange","[""yellow"",""orange"",""high nameability""]","left-right","[""yellow"",""orange"",""high nameability""]","1","high nameability","5","left","iti",""
"html-button-response","41","87614","0.0-32.0","CKN_114","114","","","","","","1701","","0","blue","purple","[""blue"",""purple"",""high nameability""]","left-right","[""blue"",""purple"",""high nameability""]","1","high nameability","6","left","trigger",""
"html-button-response","42","88633","0.0-33.0-0.0","CKN_114","114","","","","","","1011","<button class=""jspsych-btn""><img src=""stimuli/blue.png"" style=""width: 200px;height: 200px;""></button>","0","blue","purple","[""blue"",""purple"",""high nameability""]","left-right","[""blue"",""purple"",""high nameability""]","1","high nameability","6","left","response","1"
"html-audio-button-response","43","88842","0.0-33.0-1.0","CKN_114","114","","","","","","null","stimuli/bleep.m4a","null","blue","purple","[""blue"",""purple"",""high nameability""]","left-right","[""blue"",""purple"",""high nameability""]","1","high nameability","6","left","audio_feedback","1"
"html-button-response","44","89356","0.0-34.0","CKN_114","114","","","","","","null","<button class=""jspsych-btn""><img src=""stimuli/white_square.png"" style=""width: 200px;height: 200px;""></button>","null","blue","purple","[""blue"",""purple"",""high nameability""]","left-right","[""blue"",""purple"",""high nameability""]","1","high nameability","6","left","iti",""
"html-button-response","45","90712","0.0-35.0","CKN_114","114","","","","","","1344","","0","neonyellow","pink","[""neonyellow"",""pink"",""low nameability""]","left-right","[""neonyellow"",""pink"",""low nameability""]","1","low nameability","7","left","trigger",""
"html-button-response","46","91486","0.0-36.0-0.0","CKN_114","114","","","","","","767","<button class=""jspsych-btn""><img src=""stimuli/neonyellow.png"" style=""width: 200px;height: 200px;""></button>","0","neonyellow","pink","[""neonyellow"",""pink"",""low nameability""]","left-right","[""neonyellow"",""pink"",""low nameability""]","1","low nameability","7","left","response","1"
"html-audio-button-response","47","91696","0.0-36.0-1.0","CKN_114","114","","","","","","null","stimuli/bleep.m4a","null","neonyellow","pink","[""neonyellow"",""pink"",""low nameability""]","left-right","[""neonyellow"",""pink"",""low nameability""]","1","low nameability","7","left","audio_feedback","1"
"html-button-response","48","92221","0.0-37.0","CKN_114","114","","","","","","null","<button class=""jspsych-btn""><img src=""stimuli/white_square.png"" style=""width: 200px;height: 200px;""></button>","null","neonyellow","pink","[""neonyellow"",""pink"",""low nameability""]","left-right","[""neonyellow"",""pink"",""low nameability""]","1","low nameability","7","left","iti",""
"html-button-response","49","93745","0.0-38.0","CKN_114","114","","","","","","1520","","0","blue","brown","[""blue"",""brown"",""high nameability""]","right-left","[""brown"",""blue""]","1","high nameability","8","right","trigger",""
"html-button-response","50","94719","0.0-39.0-0.0","CKN_114","114","","","","","","967","<button class=""jspsych-btn""><img src=""stimuli/blue.png"" style=""width: 200px;height: 200px;""></button>","1","blue","brown","[""blue"",""brown"",""high nameability""]","right-left","[""brown"",""blue""]","1","high nameability","8","right","response","1"
"html-audio-button-response","51","94922","0.0-39.0-1.0","CKN_114","114","","","","","","null","stimuli/bleep.m4a","null","blue","brown","[""blue"",""brown"",""high nameability""]","right-left","[""brown"",""blue""]","1","high nameability","8","right","audio_feedback","1"
"html-button-response","52","95436","0.0-40.0","CKN_114","114","","","","","","null","<button class=""jspsych-btn""><img src=""stimuli/white_square.png"" style=""width: 200px;height: 200px;""></button>","null","blue","brown","[""blue"",""brown"",""high nameability""]","right-left","[""brown"",""blue""]","1","high nameability","8","right","iti",""
"html-button-response","53","97204","0.0-41.0","CKN_114","114","","","","","","1756","","0","neonyellow","turquoise","[""neonyellow"",""turquoise"",""low nameability""]","left-right","[""neonyellow"",""turquoise"",""low nameability""]","1","low nameability","9","left","trigger",""
"html-button-response","54","98090","0.0-42.0-0.0","CKN_114","114","","","","","","880","<button class=""jspsych-btn""><img src=""stimuli/neonyellow.png"" style=""width: 200px;height: 200px;""></button>","0","neonyellow","turquoise","[""neonyellow"",""turquoise"",""low nameability""]","left-right","[""neonyellow"",""turquoise"",""low nameability""]","1","low nameability","9","left","response","1"
"html-audio-button-response","55","98293","0.0-42.0-1.0","CKN_114","114","","","","","","null","stimuli/bleep.m4a","null","neonyellow","turquoise","[""neonyellow"",""turquoise"",""low nameability""]","left-right","[""neonyellow"",""turquoise"",""low nameability""]","1","low nameability","9","left","audio_feedback","1"
"html-button-response","56","98817","0.0-43.0","CKN_114","114","","","","","","null","<button class=""jspsych-btn""><img src=""stimuli/white_square.png"" style=""width: 200px;height: 200px;""></button>","null","neonyellow","turquoise","[""neonyellow"",""turquoise"",""low nameability""]","left-right","[""neonyellow"",""turquoise"",""low nameability""]","1","low nameability","9","left","iti",""
"html-button-response","57","99885","0.0-44.0","CKN_114","114","","","","","","1057","","0","orange","purple","[""orange"",""purple"",""high nameability""]","right-left","[""purple"",""orange""]","1","high nameability","10","right","trigger",""
"html-button-response","58","100941","0.0-45.0-0.0","CKN_114","114","","","","","","1044","<button class=""jspsych-btn""><img src=""stimuli/orange.png"" style=""width: 200px;height: 200px;""></button>","1","orange","purple","[""orange"",""purple"",""high nameability""]","right-left","[""purple"",""orange""]","1","high nameability","10","right","response","1"
"html-audio-button-response","59","101151","0.0-45.0-1.0","CKN_114","114","","","","","","null","stimuli/bleep.m4a","null","orange","purple","[""orange"",""purple"",""high nameability""]","right-left","[""purple"",""orange""]","1","high nameability","10","right","audio_feedback","1"
"html-button-response","60","101682","0.0-46.0","CKN_114","114","","","","","","null","<button class=""jspsych-btn""><img src=""stimuli/white_square.png"" style=""width: 200px;height: 200px;""></button>","null","orange","purple","[""orange"",""purple"",""high nameability""]","right-left","[""purple"",""orange""]","1","high nameability","10","right","iti",""
"pavlovia","61","101777","0.0-47.0","CKN_114","114","","","","","","","","","","","","","","","","","","",""
"pavlovia","62","101794","0.0-48.0","CKN_114","114","","","","","","","","","","","","","","","","","","",""
"html-audio-button-response","63","109857","0.0-49.0","CKN_114","114","","","","","","8176","stimuli/tada.m4a","0","","","","","","","","","","",""
"html-button-response","64","114406","0.0-50.0","CKN_114","114","","","","","","4538","","0","","","","","","","","","","",""
"html-button-response","65","118464","0.0-51.0","CKN_114","114","","","","","","4041","","0","yellow","blue","[""yellow"",""blue"",""high nameability""]","right-left","[""blue"",""yellow""]","2","high nameability","11","right","trigger",""
"html-button-response","66","119712","0.0-52.0-0.0","CKN_114","114","","","","","","1233","<button class=""jspsych-btn""><img src=""stimuli/yellow.png"" style=""width: 200px;height: 200px;""></button>","1","yellow","blue","[""yellow"",""blue"",""high nameability""]","right-left","[""blue"",""yellow""]","2","high nameability","11","right","response","1"
"html-audio-button-response","67","119925","0.0-52.0-1.0","CKN_114","114","","","","","","null","stimuli/bleep.m4a","null","yellow","blue","[""yellow"",""blue"",""high nameability""]","right-left","[""blue"",""yellow""]","2","high nameability","11","right","audio_feedback","1"
"html-button-response","68","120462","0.0-53.0","CKN_114","114","","","","","","null","<button class=""jspsych-btn""><img src=""stimuli/white_square.png"" style=""width: 200px;height: 200px;""></button>","null","yellow","blue","[""yellow"",""blue"",""high nameability""]","right-left","[""blue"",""yellow""]","2","high nameability","11","right","iti",""
"html-button-response","69","122721","0.0-54.0","CKN_114","114","","","","","","2222","","0","brown","blue","[""brown"",""blue"",""high nameability""]","right-left","[""blue"",""brown""]","2","high nameability","12","right","trigger",""
"html-button-response","70","124878","0.0-55.0-0.0","CKN_114","114","","","","","","2138","<button class=""jspsych-btn""><img src=""stimuli/brown.png"" style=""width: 200px;height: 200px;""></button>","1","brown","blue","[""brown"",""blue"",""high nameability""]","right-left","[""blue"",""brown""]","2","high nameability","12","right","response","1"
"html-audio-button-response","71","125090","0.0-55.0-1.0","CKN_114","114","","","","","","null","stimuli/bleep.m4a","null","brown","blue","[""brown"",""blue"",""high nameability""]","right-left","[""blue"",""brown""]","2","high nameability","12","right","audio_feedback","1"
"html-button-response","72","125608","0.0-56.0","CKN_114","114","","","","","","null","<button class=""jspsych-btn""><img src=""stimuli/white_square.png"" style=""width: 200px;height: 200px;""></button>","null","brown","blue","[""brown"",""blue"",""high nameability""]","right-left","[""blue"",""brown""]","2","high nameability","12","right","iti",""
"html-button-response","73","126819","0.0-57.0","CKN_114","114","","","","","","1190","","0","red","brown","[""red"",""brown"",""high nameability""]","right-left","[""brown"",""red""]","2","high nameability","13","right","trigger",""
"html-button-response","74","127792","0.0-58.0-0.0","CKN_114","114","","","","","","967","<button class=""jspsych-btn""><img src=""stimuli/red.png"" style=""width: 200px;height: 200px;""></button>","1","red","brown","[""red"",""brown"",""high nameability""]","right-left","[""brown"",""red""]","2","high nameability","13","right","response","1"
"html-audio-button-response","75","128000","0.0-58.0-1.0","CKN_114","114","","","","","","null","stimuli/bleep.m4a","null","red","brown","[""red"",""brown"",""high nameability""]","right-left","[""brown"",""red""]","2","high nameability","13","right","audio_feedback","1"
"html-button-response","76","128519","0.0-59.0","CKN_114","114","","","","","","null","<button class=""jspsych-btn""><img src=""stimuli/white_square.png"" style=""width: 200px;height: 200px;""></button>","null","red","brown","[""red"",""brown"",""high nameability""]","right-left","[""brown"",""red""]","2","high nameability","13","right","iti",""
"html-button-response","77","129301","0.0-60.0","CKN_114","114","","","","","","766","","0","darkgreenblue","pink","[""darkgreenblue"",""pink"",""low nameability""]","right-left","[""pink"",""darkgreenblue""]","2","low nameability","14","right","trigger",""
"html-button-response","78","130276","0.0-61.0-0.0","CKN_114","114","","","","","","965","<button class=""jspsych-btn""><img src=""stimuli/darkgreenblue.png"" style=""width: 200px;height: 200px;""></button>","1","darkgreenblue","pink","[""darkgreenblue"",""pink"",""low nameability""]","right-left","[""pink"",""darkgreenblue""]","2","low nameability","14","right","response","1"
"html-audio-button-response","79","130477","0.0-61.0-1.0","CKN_114","114","","","","","","null","stimuli/bleep.m4a","null","darkgreenblue","pink","[""darkgreenblue"",""pink"",""low nameability""]","right-left","[""pink"",""darkgreenblue""]","2","low nameability","14","right","audio_feedback","1"
"html-button-response","80","130994","0.0-62.0","CKN_114","114","","","","","","null","<button class=""jspsych-btn""><img src=""stimuli/white_square.png"" style=""width: 200px;height: 200px;""></button>","null","darkgreenblue","pink","[""darkgreenblue"",""pink"",""low nameability""]","right-left","[""pink"",""darkgreenblue""]","2","low nameability","14","right","iti",""
"html-button-response","81","133160","0.0-63.0","CKN_114","114","","","","","","2154","","0","brown","red","[""brown"",""red"",""high nameability""]","right-left","[""red"",""brown""]","2","high nameability","15","right","trigger",""
"html-button-response","82","134146","0.0-64.0-0.0","CKN_114","114","","","","","","978","<button class=""jspsych-btn""><img src=""stimuli/brown.png"" style=""width: 200px;height: 200px;""></button>","1","brown","red","[""brown"",""red"",""high nameability""]","right-left","[""red"",""brown""]","2","high nameability","15","right","response","1"
"html-audio-button-response","83","134370","0.0-64.0-1.0","CKN_114","114","","","","","","null","stimuli/bleep.m4a","null","brown","red","[""brown"",""red"",""high nameability""]","right-left","[""red"",""brown""]","2","high nameability","15","right","audio_feedback","1"
"html-button-response","84","134900","0.0-65.0","CKN_114","114","","","","","","null","<button class=""jspsych-btn""><img src=""stimuli/white_square.png"" style=""width: 200px;height: 200px;""></button>","null","brown","red","[""brown"",""red"",""high nameability""]","right-left","[""red"",""brown""]","2","high nameability","15","right","iti",""
"html-button-response","85","136047","0.0-66.0","CKN_114","114","","","","","","1133","","0","darkgreenblue","mustard","[""darkgreenblue"",""mustard"",""low nameability""]","right-left","[""mustard"",""darkgreenblue""]","2","low nameability","16","right","trigger",""
"html-button-response","86","136982","0.0-67.0-0.0","CKN_114","114","","","","","","929","<button class=""jspsych-btn""><img src=""stimuli/darkgreenblue.png"" style=""width: 200px;height: 200px;""></button>","1","darkgreenblue","mustard","[""darkgreenblue"",""mustard"",""low nameability""]","right-left","[""mustard"",""darkgreenblue""]","2","low nameability","16","right","response","1"
"html-audio-button-response","87","137194","0.0-67.0-1.0","CKN_114","114","","","","","","null","stimuli/bleep.m4a","null","darkgreenblue","mustard","[""darkgreenblue"",""mustard"",""low nameability""]","right-left","[""mustard"",""darkgreenblue""]","2","low nameability","16","right","audio_feedback","1"
"html-button-response","88","137730","0.0-68.0","CKN_114","114","","","","","","null","<button class=""jspsych-btn""><img src=""stimuli/white_square.png"" style=""width: 200px;height: 200px;""></button>","null","darkgreenblue","mustard","[""darkgreenblue"",""mustard"",""low nameability""]","right-left","[""mustard"",""darkgreenblue""]","2","low nameability","16","right","iti",""
"html-button-response","89","138438","0.0-69.0","CKN_114","114","","","","","","694","","0","turquoise","mustard","[""turquoise"",""mustard"",""low nameability""]","left-right","[""turquoise"",""mustard"",""low nameability""]","2","low nameability","17","left","trigger",""
"html-button-response","90","139561","0.0-70.0-0.0","CKN_114","114","","","","","","1117","<button class=""jspsych-btn""><img src=""stimuli/turquoise.png"" style=""width: 200px;height: 200px;""></button>","0","turquoise","mustard","[""turquoise"",""mustard"",""low nameability""]","left-right","[""turquoise"",""mustard"",""low nameability""]","2","low nameability","17","left","response","1"
"html-audio-button-response","91","139763","0.0-70.0-1.0","CKN_114","114","","","","","","null","stimuli/bleep.m4a","null","turquoise","mustard","[""turquoise"",""mustard"",""low nameability""]","left-right","[""turquoise"",""mustard"",""low nameability""]","2","low nameability","17","left","audio_feedback","1"
"html-button-response","92","140286","0.0-71.0","CKN_114","114","","","","","","null","<button class=""jspsych-btn""><img src=""stimuli/white_square.png"" style=""width: 200px;height: 200px;""></button>","null","turquoise","mustard","[""turquoise"",""mustard"",""low nameability""]","left-right","[""turquoise"",""mustard"",""low nameability""]","2","low nameability","17","left","iti",""
"html-button-response","93","141219","0.0-72.0","CKN_114","114","","","","","","922","","0","purple","blue","[""purple"",""blue"",""high nameability""]","left-right","[""purple"",""blue"",""high nameability""]","2","high nameability","18","left","trigger",""
"html-button-response","94","142007","0.0-73.0-0.0","CKN_114","114","","","","","","778","<button class=""jspsych-btn""><img src=""stimuli/purple.png"" style=""width: 200px;height: 200px;""></button>","0","purple","blue","[""purple"",""blue"",""high nameability""]","left-right","[""purple"",""blue"",""high nameability""]","2","high nameability","18","left","response","1"
"html-audio-button-response","95","142213","0.0-73.0-1.0","CKN_114","114","","","","","","null","stimuli/bleep.m4a","null","purple","blue","[""purple"",""blue"",""high nameability""]","left-right","[""purple"",""blue"",""high nameability""]","2","high nameability","18","left","audio_feedback","1"
"html-button-response","96","142735","0.0-74.0","CKN_114","114","","","","","","null","<button class=""jspsych-btn""><img src=""stimuli/white_square.png"" style=""width: 200px;height: 200px;""></button>","null","purple","blue","[""purple"",""blue"",""high nameability""]","left-right","[""purple"",""blue"",""high nameability""]","2","high nameability","18","left","iti",""
"html-button-response","97","143356","0.0-75.0","CKN_114","114","","","","","","607","","0","brown","purple","[""brown"",""purple"",""high nameability""]","right-left","[""purple"",""brown""]","2","high nameability","19","right","trigger",""
"html-button-response","98","144924","0.0-76.0-0.0","CKN_114","114","","","","","","1561","<button class=""jspsych-btn""><img src=""stimuli/brown.png"" style=""width: 200px;height: 200px;""></button>","1","brown","purple","[""brown"",""purple"",""high nameability""]","right-left","[""purple"",""brown""]","2","high nameability","19","right","response","1"
"html-audio-button-response","99","145128","0.0-76.0-1.0","CKN_114","114","","","","","","null","stimuli/bleep.m4a","null","brown","purple","[""brown"",""purple"",""high nameability""]","right-left","[""purple"",""brown""]","2","high nameability","19","right","audio_feedback","1"
"html-button-response","100","145643","0.0-77.0","CKN_114","114","","","","","","null","<button class=""jspsych-btn""><img src=""stimuli/white_square.png"" style=""width: 200px;height: 200px;""></button>","null","brown","purple","[""brown"",""purple"",""high nameability""]","right-left","[""purple"",""brown""]","2","high nameability","19","right","iti",""
"html-button-response","101","146622","0.0-78.0","CKN_114","114","","","","","","965","","0","mustard","lightred","[""mustard"",""lightred"",""low nameability""]","left-right","[""mustard"",""lightred"",""low nameability""]","2","low nameability","20","left","trigger",""
"html-button-response","102","148080","0.0-79.0-0.0","CKN_114","114","","","","","","1448","<button class=""jspsych-btn""><img src=""stimuli/mustard.png"" style=""width: 200px;height: 200px;""></button>","0","mustard","lightred","[""mustard"",""lightred"",""low nameability""]","left-right","[""mustard"",""lightred"",""low nameability""]","2","low nameability","20","left","response","1"
"html-audio-button-response","103","148282","0.0-79.0-1.0","CKN_114","114","","","","","","null","stimuli/bleep.m4a","null","mustard","lightred","[""mustard"",""lightred"",""low nameability""]","left-right","[""mustard"",""lightred"",""low nameability""]","2","low nameability","20","left","audio_feedback","1"
"html-button-response","104","148793","0.0-80.0","CKN_114","114","","","","","","null","<button class=""jspsych-btn""><img src=""stimuli/white_square.png"" style=""width: 200px;height: 200px;""></button>","null","mustard","lightred","[""mustard"",""lightred"",""low nameability""]","left-right","[""mustard"",""lightred"",""low nameability""]","2","low nameability","20","left","iti",""
"pavlovia","105","148885","0.0-81.0","CKN_114","114","","","","","","","","","","","","","","","","","","",""
"pavlovia","106","148898","0.0-82.0","CKN_114","114","","","","","","","","","","","","","","","","","","",""
"html-audio-button-response","107","154333","0.0-83.0","CKN_114","114","","","","","","5533","stimuli/tada.m4a","0","","","","","","","","","","",""
"html-button-response","108","157220","0.0-84.0","CKN_114","114","","","","","","2880","","0","","","","","","","","","","",""
"html-button-response","109","159599","0.0-85.0","CKN_114","114","","","","","","2372","","0","red","orange","[""red"",""orange"",""high nameability""]","left-right","[""red"",""orange"",""high nameability""]","3","high nameability","21","left","trigger",""
"html-button-response","110","160533","0.0-86.0-0.0","CKN_114","114","","","","","","922","<button class=""jspsych-btn""><img src=""stimuli/red.png"" style=""width: 200px;height: 200px;""></button>","0","red","orange","[""red"",""orange"",""high nameability""]","left-right","[""red"",""orange"",""high nameability""]","3","high nameability","21","left","response","1"
"html-audio-button-response","111","160742","0.0-86.0-1.0","CKN_114","114","","","","","","null","stimuli/bleep.m4a","null","red","orange","[""red"",""orange"",""high nameability""]","left-right","[""red"",""orange"",""high nameability""]","3","high nameability","21","left","audio_feedback","1"
"html-button-response","112","161276","0.0-87.0","CKN_114","114","","","","","","null","<button class=""jspsych-btn""><img src=""stimuli/white_square.png"" style=""width: 200px;height: 200px;""></button>","null","red","orange","[""red"",""orange"",""high nameability""]","left-right","[""red"",""orange"",""high nameability""]","3","high nameability","21","left","iti",""
"html-button-response","113","162763","0.0-88.0","CKN_114","114","","","","","","1457","","0","brown","yellow","[""brown"",""yellow"",""high nameability""]","right-left","[""yellow"",""brown""]","3","high nameability","22","right","trigger",""
"html-button-response","114","163903","0.0-89.0-0.0","CKN_114","114","","","","","","1135","<button class=""jspsych-btn""><img src=""stimuli/brown.png"" style=""width: 200px;height: 200px;""></button>","1","brown","yellow","[""brown"",""yellow"",""high nameability""]","right-left","[""yellow"",""brown""]","3","high nameability","22","right","response","1"
"html-audio-button-response","115","164109","0.0-89.0-1.0","CKN_114","114","","","","","","null","stimuli/bleep.m4a","null","brown","yellow","[""brown"",""yellow"",""high nameability""]","right-left","[""yellow"",""brown""]","3","high nameability","22","right","audio_feedback","1"
"html-button-response","116","164631","0.0-90.0","CKN_114","114","","","","","","null","<button class=""jspsych-btn""><img src=""stimuli/white_square.png"" style=""width: 200px;height: 200px;""></button>","null","brown","yellow","[""brown"",""yellow"",""high nameability""]","right-left","[""yellow"",""brown""]","3","high nameability","22","right","iti",""
"html-button-response","117","166152","0.0-91.0","CKN_114","114","","","","","","1509","","0","yellow","purple","[""yellow"",""purple"",""high nameability""]","left-right","[""yellow"",""purple"",""high nameability""]","3","high nameability","23","left","trigger",""
"html-button-response","118","166970","0.0-92.0-0.0","CKN_114","114","","","","","","812","<button class=""jspsych-btn""><img src=""stimuli/yellow.png"" style=""width: 200px;height: 200px;""></button>","0","yellow","purple","[""yellow"",""purple"",""high nameability""]","left-right","[""yellow"",""purple"",""high nameability""]","3","high nameability","23","left","response","1"
"html-audio-button-response","119","167175","0.0-92.0-1.0","CKN_114","114","","","","","","null","stimuli/bleep.m4a","null","yellow","purple","[""yellow"",""purple"",""high nameability""]","left-right","[""yellow"",""purple"",""high nameability""]","3","high nameability","23","left","audio_feedback","1"
"html-button-response","120","167693","0.0-93.0","CKN_114","114","","","","","","null","<button class=""jspsych-btn""><img src=""stimuli/white_square.png"" style=""width: 200px;height: 200px;""></button>","null","yellow","purple","[""yellow"",""purple"",""high nameability""]","left-right","[""yellow"",""purple"",""high nameability""]","3","high nameability","23","left","iti",""
"html-button-response","121","168800","0.0-94.0","CKN_114","114","","","","","","1095","","0","red","purple","[""red"",""purple"",""high nameability""]","right-left","[""purple"",""red""]","3","high nameability","24","right","trigger",""
"html-button-response","122","169819","0.0-95.0-0.0","CKN_114","114","","","","","","1011","<button class=""jspsych-btn""><img src=""stimuli/red.png"" style=""width: 200px;height: 200px;""></button>","1","red","purple","[""red"",""purple"",""high nameability""]","right-left","[""purple"",""red""]","3","high nameability","24","right","response","1"
"html-audio-button-response","123","170021","0.0-95.0-1.0","CKN_114","114","","","","","","null","stimuli/bleep.m4a","null","red","purple","[""red"",""purple"",""high nameability""]","right-left","[""purple"",""red""]","3","high nameability","24","right","audio_feedback","1"
"html-button-response","124","170533","0.0-96.0","CKN_114","114","","","","","","null","<button class=""jspsych-btn""><img src=""stimuli/white_square.png"" style=""width: 200px;height: 200px;""></button>","null","red","purple","[""red"",""purple"",""high nameability""]","right-left","[""purple"",""red""]","3","high nameability","24","right","iti",""
"html-button-response","125","173260","0.0-97.0","CKN_114","114","","","","","","2716","","0","blue","yellow","[""blue"",""yellow"",""high nameability""]","left-right","[""blue"",""yellow"",""high nameability""]","3","high nameability","25","left","trigger",""
"html-button-response","126","175538","0.0-98.0-0.0","CKN_114","114","","","","","","2265","<button class=""jspsych-btn""><img src=""stimuli/blue.png"" style=""width: 200px;height: 200px;""></button>","0","blue","yellow","[""blue"",""yellow"",""high nameability""]","left-right","[""blue"",""yellow"",""high nameability""]","3","high nameability","25","left","response","1"
"html-audio-button-response","127","175748","0.0-98.0-1.0","CKN_114","114","","","","","","null","stimuli/bleep.m4a","null","blue","yellow","[""blue"",""yellow"",""high nameability""]","left-right","[""blue"",""yellow"",""high nameability""]","3","high nameability","25","left","audio_feedback","1"
"html-button-response","128","176268","0.0-99.0","CKN_114","114","","","","","","null","<button class=""jspsych-btn""><img src=""stimuli/white_square.png"" style=""width: 200px;height: 200px;""></button>","null","blue","yellow","[""blue"",""yellow"",""high nameability""]","left-right","[""blue"",""yellow"",""high nameability""]","3","high nameability","25","left","iti",""
"html-button-response","129","177114","0.0-100.0","CKN_114","114","","","","","","824","","0","lightred","neonyellow","[""lightred"",""neonyellow"",""low nameability""]","left-right","[""lightred"",""neonyellow"",""low nameability""]","3","low nameability","26","left","trigger",""
"html-button-response","130","179616","0.0-101.0-0.0","CKN_114","114","","","","","","2490","<button class=""jspsych-btn""><img src=""stimuli/lightred.png"" style=""width: 200px;height: 200px;""></button>","0","lightred","neonyellow","[""lightred"",""neonyellow"",""low nameability""]","left-right","[""lightred"",""neonyellow"",""low nameability""]","3","low nameability","26","left","response","1"
"html-audio-button-response","131","179831","0.0-101.0-1.0","CKN_114","114","","","","","","null","stimuli/bleep.m4a","null","lightred","neonyellow","[""lightred"",""neonyellow"",""low nameability""]","left-right","[""lightred"",""neonyellow"",""low nameability""]","3","low nameability","26","left","audio_feedback","1"
"html-button-response","132","180359","0.0-102.0","CKN_114","114","","","","","","null","<button class=""jspsych-btn""><img src=""stimuli/white_square.png"" style=""width: 200px;height: 200px;""></button>","null","lightred","neonyellow","[""lightred"",""neonyellow"",""low nameability""]","left-right","[""lightred"",""neonyellow"",""low nameability""]","3","low nameability","26","left","iti",""
"html-button-response","133","181726","0.0-103.0","CKN_114","114","","","","","","1351","","0","brown","orange","[""brown"",""orange"",""high nameability""]","right-left","[""orange"",""brown""]","3","high nameability","27","right","trigger",""
"html-button-response","134","183017","0.0-104.0-0.0","CKN_114","114","","","","","","1279","<button class=""jspsych-btn""><img src=""stimuli/brown.png"" style=""width: 200px;height: 200px;""></button>","1","brown","orange","[""brown"",""orange"",""high nameability""]","right-left","[""orange"",""brown""]","3","high nameability","27","right","response","1"
"html-audio-button-response","135","183229","0.0-104.0-1.0","CKN_114","114","","","","","","null","stimuli/bleep.m4a","null","brown","orange","[""brown"",""orange"",""high nameability""]","right-left","[""orange"",""brown""]","3","high nameability","27","right","audio_feedback","1"
"html-button-response","136","183776","0.0-105.0","CKN_114","114","","","","","","null","<button class=""jspsych-btn""><img src=""stimuli/white_square.png"" style=""width: 200px;height: 200px;""></button>","null","brown","orange","[""brown"",""orange"",""high nameability""]","right-left","[""orange"",""brown""]","3","high nameability","27","right","iti",""
"html-button-response","137","184810","0.0-106.0","CKN_114","114","","","","","","1010","","0","darkgreenblue","turquoise","[""darkgreenblue"",""turquoise"",""low nameability""]","right-left","[""turquoise"",""darkgreenblue""]","3","low nameability","28","right","trigger",""
"html-button-response","138","186206","0.0-107.0-0.0","CKN_114","114","","","","","","1387","<button class=""jspsych-btn""><img src=""stimuli/darkgreenblue.png"" style=""width: 200px;height: 200px;""></button>","1","darkgreenblue","turquoise","[""darkgreenblue"",""turquoise"",""low nameability""]","right-left","[""turquoise"",""darkgreenblue""]","3","low nameability","28","right","response","1"
"html-audio-button-response","139","186412","0.0-107.0-1.0","CKN_114","114","","","","","","null","stimuli/bleep.m4a","null","darkgreenblue","turquoise","[""darkgreenblue"",""turquoise"",""low nameability""]","right-left","[""turquoise"",""darkgreenblue""]","3","low nameability","28","right","audio_feedback","1"
"html-button-response","140","186926","0.0-108.0","CKN_114","114","","","","","","null","<button class=""jspsych-btn""><img src=""stimuli/white_square.png"" style=""width: 200px;height: 200px;""></button>","null","darkgreenblue","turquoise","[""darkgreenblue"",""turquoise"",""low nameability""]","right-left","[""turquoise"",""darkgreenblue""]","3","low nameability","28","right","iti",""
"html-button-response","141","187993","0.0-109.0","CKN_114","114","","","","","","1043","","0","lightred","pink","[""lightred"",""pink"",""low nameability""]","left-right","[""lightred"",""pink"",""low nameability""]","3","low nameability","29","left","trigger",""
"html-button-response","142","188987","0.0-110.0-0.0","CKN_114","114","","","","","","980","<button class=""jspsych-btn""><img src=""stimuli/lightred.png"" style=""width: 200px;height: 200px;""></button>","0","lightred","pink","[""lightred"",""pink"",""low nameability""]","left-right","[""lightred"",""pink"",""low nameability""]","3","low nameability","29","left","response","1"
"html-audio-button-response","143","189201","0.0-110.0-1.0","CKN_114","114","","","","","","null","stimuli/bleep.m4a","null","lightred","pink","[""lightred"",""pink"",""low nameability""]","left-right","[""lightred"",""pink"",""low nameability""]","3","low nameability","29","left","audio_feedback","1"
"html-button-response","144","189717","0.0-111.0","CKN_114","114","","","","","","null","<button class=""jspsych-btn""><img src=""stimuli/white_square.png"" style=""width: 200px;height: 200px;""></button>","null","lightred","pink","[""lightred"",""pink"",""low nameability""]","left-right","[""lightred"",""pink"",""low nameability""]","3","low nameability","29","left","iti",""
"html-button-response","145","190660","0.0-112.0","CKN_114","114","","","","","","931","","0","mustard","turquoise","[""mustard"",""turquoise"",""low nameability""]","left-right","[""mustard"",""turquoise"",""low nameability""]","3","low nameability","30","left","trigger",""
"html-button-response","146","191632","0.0-113.0-0.0","CKN_114","114","","","","","","965","<button class=""jspsych-btn""><img src=""stimuli/mustard.png"" style=""width: 200px;height: 200px;""></button>","0","mustard","turquoise","[""mustard"",""turquoise"",""low nameability""]","left-right","[""mustard"",""turquoise"",""low nameability""]","3","low nameability","30","left","response","1"
"html-audio-button-response","147","191837","0.0-113.0-1.0","CKN_114","114","","","","","","null","stimuli/bleep.m4a","null","mustard","turquoise","[""mustard"",""turquoise"",""low nameability""]","left-right","[""mustard"",""turquoise"",""low nameability""]","3","low nameability","30","left","audio_feedback","1"
"html-button-response","148","192358","0.0-114.0","CKN_114","114","","","","","","null","<button class=""jspsych-btn""><img src=""stimuli/white_square.png"" style=""width: 200px;height: 200px;""></button>","null","mustard","turquoise","[""mustard"",""turquoise"",""low nameability""]","left-right","[""mustard"",""turquoise"",""low nameability""]","3","low nameability","30","left","iti",""
"pavlovia","149","192455","0.0-115.0","CKN_114","114","","","","","","","","","","","","","","","","","","",""
"pavlovia","150","192466","0.0-116.0","CKN_114","114","","","","","","","","","","","","","","","","","","",""
"html-audio-button-response","151","197094","0.0-117.0","CKN_114","114","","","","","","4733","stimuli/tada.m4a","0","","","","","","","","","","",""
"html-button-response","152","197817","0.0-118.0","CKN_114","114","","","","","","717","","0","","","","","","","","","","",""
"html-button-response","153","199483","0.0-119.0","CKN_114","114","","","","","","1655","","0","red","blue","[""red"",""blue"",""high nameability""]","right-left","[""blue"",""red""]","4","high nameability","31","right","trigger",""
"html-button-response","154","200469","0.0-120.0-0.0","CKN_114","114","","","","","","978","<button class=""jspsych-btn""><img src=""stimuli/red.png"" style=""width: 200px;height: 200px;""></button>","1","red","blue","[""red"",""blue"",""high nameability""]","right-left","[""blue"",""red""]","4","high nameability","31","right","response","1"
"html-audio-button-response","155","200676","0.0-120.0-1.0","CKN_114","114","","","","","","null","stimuli/bleep.m4a","null","red","blue","[""red"",""blue"",""high nameability""]","right-left","[""blue"",""red""]","4","high nameability","31","right","audio_feedback","1"
"html-button-response","156","201199","0.0-121.0","CKN_114","114","","","","","","null","<button class=""jspsych-btn""><img src=""stimuli/white_square.png"" style=""width: 200px;height: 200px;""></button>","null","red","blue","[""red"",""blue"",""high nameability""]","right-left","[""blue"",""red""]","4","high nameability","31","right","iti",""
"html-button-response","157","201709","0.0-122.0","CKN_114","114","","","","","","494","","0","mustard","darkgreenblue","[""mustard"",""darkgreenblue"",""low nameability""]","left-right","[""mustard"",""darkgreenblue"",""low nameability""]","4","low nameability","32","left","trigger",""
"html-button-response","158","202766","0.0-123.0-0.0","CKN_114","114","","","","","","1047","<button class=""jspsych-btn""><img src=""stimuli/mustard.png"" style=""width: 200px;height: 200px;""></button>","0","mustard","darkgreenblue","[""mustard"",""darkgreenblue"",""low nameability""]","left-right","[""mustard"",""darkgreenblue"",""low nameability""]","4","low nameability","32","left","response","1"
"html-audio-button-response","159","202972","0.0-123.0-1.0","CKN_114","114","","","","","","null","stimuli/bleep.m4a","null","mustard","darkgreenblue","[""mustard"",""darkgreenblue"",""low nameability""]","left-right","[""mustard"",""darkgreenblue"",""low nameability""]","4","low nameability","32","left","audio_feedback","1"
"html-button-response","160","203487","0.0-124.0","CKN_114","114","","","","","","null","<button class=""jspsych-btn""><img src=""stimuli/white_square.png"" style=""width: 200px;height: 200px;""></button>","null","mustard","darkgreenblue","[""mustard"",""darkgreenblue"",""low nameability""]","left-right","[""mustard"",""darkgreenblue"",""low nameability""]","4","low nameability","32","left","iti",""
"html-button-response","161","204329","0.0-125.0","CKN_114","114","","","","","","836","","0","purple","red","[""purple"",""red"",""high nameability""]","right-left","[""red"",""purple""]","4","high nameability","33","right","trigger",""
"html-button-response","162","205665","0.0-126.0-0.0","CKN_114","114","","","","","","1329","<button class=""jspsych-btn""><img src=""stimuli/purple.png"" style=""width: 200px;height: 200px;""></button>","1","purple","red","[""purple"",""red"",""high nameability""]","right-left","[""red"",""purple""]","4","high nameability","33","right","response","1"
"html-audio-button-response","163","205876","0.0-126.0-1.0","CKN_114","114","","","","","","null","stimuli/bleep.m4a","null","purple","red","[""purple"",""red"",""high nameability""]","right-left","[""red"",""purple""]","4","high nameability","33","right","audio_feedback","1"
"html-button-response","164","206406","0.0-127.0","CKN_114","114","","","","","","null","<button class=""jspsych-btn""><img src=""stimuli/white_square.png"" style=""width: 200px;height: 200px;""></button>","null","purple","red","[""purple"",""red"",""high nameability""]","right-left","[""red"",""purple""]","4","high nameability","33","right","iti",""
"html-button-response","165","208645","0.0-128.0","CKN_114","114","","","","","","2221","","0","blue","red","[""blue"",""red"",""high nameability""]","left-right","[""blue"",""red"",""high nameability""]","4","high nameability","34","left","trigger",""
"html-button-response","166","210396","0.0-129.0-0.0","CKN_114","114","","","","","","1743","<button class=""jspsych-btn""><img src=""stimuli/blue.png"" style=""width: 200px;height: 200px;""></button>","0","blue","red","[""blue"",""red"",""high nameability""]","left-right","[""blue"",""red"",""high nameability""]","4","high nameability","34","left","response","1"
"html-audio-button-response","167","210610","0.0-129.0-1.0","CKN_114","114","","","","","","null","stimuli/bleep.m4a","null","blue","red","[""blue"",""red"",""high nameability""]","left-right","[""blue"",""red"",""high nameability""]","4","high nameability","34","left","audio_feedback","1"
"html-button-response","168","211136","0.0-130.0","CKN_114","114","","","","","","null","<button class=""jspsych-btn""><img src=""stimuli/white_square.png"" style=""width: 200px;height: 200px;""></button>","null","blue","red","[""blue"",""red"",""high nameability""]","left-right","[""blue"",""red"",""high nameability""]","4","high nameability","34","left","iti",""
"html-button-response","169","212288","0.0-131.0","CKN_114","114","","","","","","1139","","0","purple","brown","[""purple"",""brown"",""high nameability""]","right-left","[""brown"",""purple""]","4","high nameability","35","right","trigger",""
"html-button-response","170","213408","0.0-132.0-0.0","CKN_114","114","","","","","","1113","<button class=""jspsych-btn""><img src=""stimuli/purple.png"" style=""width: 200px;height: 200px;""></button>","1","purple","brown","[""purple"",""brown"",""high nameability""]","right-left","[""brown"",""purple""]","4","high nameability","35","right","response","1"
"html-audio-button-response","171","213613","0.0-132.0-1.0","CKN_114","114","","","","","","null","stimuli/bleep.m4a","null","purple","brown","[""purple"",""brown"",""high nameability""]","right-left","[""brown"",""purple""]","4","high nameability","35","right","audio_feedback","1"
"html-button-response","172","214135","0.0-133.0","CKN_114","114","","","","","","null","<button class=""jspsych-btn""><img src=""stimuli/white_square.png"" style=""width: 200px;height: 200px;""></button>","null","purple","brown","[""purple"",""brown"",""high nameability""]","right-left","[""brown"",""purple""]","4","high nameability","35","right","iti",""
"html-button-response","173","215371","0.0-134.0","CKN_114","114","","","","","","1224","","0","orange","blue","[""orange"",""blue"",""high nameability""]","right-left","[""blue"",""orange""]","4","high nameability","36","right","trigger",""
"html-button-response","174","216325","0.0-135.0-0.0","CKN_114","114","","","","","","948","<button class=""jspsych-btn""><img src=""stimuli/orange.png"" style=""width: 200px;height: 200px;""></button>","1","orange","blue","[""orange"",""blue"",""high nameability""]","right-left","[""blue"",""orange""]","4","high nameability","36","right","response","1"
"html-audio-button-response","175","216530","0.0-135.0-1.0","CKN_114","114","","","","","","null","stimuli/bleep.m4a","null","orange","blue","[""orange"",""blue"",""high nameability""]","right-left","[""blue"",""orange""]","4","high nameability","36","right","audio_feedback","1"
"html-button-response","176","217044","0.0-136.0","CKN_114","114","","","","","","null","<button class=""jspsych-btn""><img src=""stimuli/white_square.png"" style=""width: 200px;height: 200px;""></button>","null","orange","blue","[""orange"",""blue"",""high nameability""]","right-left","[""blue"",""orange""]","4","high nameability","36","right","iti",""
"html-button-response","177","218018","0.0-137.0","CKN_114","114","","","","","","962","","0","pink","lightred","[""pink"",""lightred"",""low nameability""]","right-left","[""lightred"",""pink""]","4","low nameability","37","right","trigger",""
"html-button-response","178","219159","0.0-138.0-0.0","CKN_114","114","","","","","","1135","<button class=""jspsych-btn""><img src=""stimuli/pink.png"" style=""width: 200px;height: 200px;""></button>","1","pink","lightred","[""pink"",""lightred"",""low nameability""]","right-left","[""lightred"",""pink""]","4","low nameability","37","right","response","1"
"html-audio-button-response","179","219368","0.0-138.0-1.0","CKN_114","114","","","","","","null","stimuli/bleep.m4a","null","pink","lightred","[""pink"",""lightred"",""low nameability""]","right-left","[""lightred"",""pink""]","4","low nameability","37","right","audio_feedback","1"
"html-button-response","180","219918","0.0-139.0","CKN_114","114","","","","","","null","<button class=""jspsych-btn""><img src=""stimuli/white_square.png"" style=""width: 200px;height: 200px;""></button>","null","pink","lightred","[""pink"",""lightred"",""low nameability""]","right-left","[""lightred"",""pink""]","4","low nameability","37","right","iti",""
"html-button-response","181","221761","0.0-140.0","CKN_114","114","","","","","","1818","","0","purple","orange","[""purple"",""orange"",""high nameability""]","right-left","[""orange"",""purple""]","4","high nameability","38","right","trigger",""
"html-button-response","182","222627","0.0-141.0-0.0","CKN_114","114","","","","","","860","<button class=""jspsych-btn""><img src=""stimuli/purple.png"" style=""width: 200px;height: 200px;""></button>","1","purple","orange","[""purple"",""orange"",""high nameability""]","right-left","[""orange"",""purple""]","4","high nameability","38","right","response","1"
"html-audio-button-response","183","222828","0.0-141.0-1.0","CKN_114","114","","","","","","null","stimuli/bleep.m4a","null","purple","orange","[""purple"",""orange"",""high nameability""]","right-left","[""orange"",""purple""]","4","high nameability","38","right","audio_feedback","1"
"html-button-response","184","223354","0.0-142.0","CKN_114","114","","","","","","null","<button class=""jspsych-btn""><img src=""stimuli/white_square.png"" style=""width: 200px;height: 200px;""></button>","null","purple","orange","[""purple"",""orange"",""high nameability""]","right-left","[""orange"",""purple""]","4","high nameability","38","right","iti",""
"html-button-response","185","226521","0.0-143.0","CKN_114","114","","","","","","3151","","0","lightred","mustard","[""lightred"",""mustard"",""low nameability""]","right-left","[""mustard"",""lightred""]","4","low nameability","39","right","trigger",""
"html-button-response","186","227494","0.0-144.0-0.0","CKN_114","114","","","","","","966","<button class=""jspsych-btn""><img src=""stimuli/lightred.png"" style=""width: 200px;height: 200px;""></button>","1","lightred","mustard","[""lightred"",""mustard"",""low nameability""]","right-left","[""mustard"",""lightred""]","4","low nameability","39","right","response","1"
"html-audio-button-response","187","227701","0.0-144.0-1.0","CKN_114","114","","","","","","null","stimuli/bleep.m4a","null","lightred","mustard","[""lightred"",""mustard"",""low nameability""]","right-left","[""mustard"",""lightred""]","4","low nameability","39","right","audio_feedback","1"
"html-button-response","188","228217","0.0-145.0","CKN_114","114","","","","","","null","<button class=""jspsych-btn""><img src=""stimuli/white_square.png"" style=""width: 200px;height: 200px;""></button>","null","lightred","mustard","[""lightred"",""mustard"",""low nameability""]","right-left","[""mustard"",""lightred""]","4","low nameability","39","right","iti",""
"html-button-response","189","230108","0.0-146.0","CKN_114","114","","","","","","1874","","0","neonyellow","mustard","[""neonyellow"",""mustard"",""low nameability""]","left-right","[""neonyellow"",""mustard"",""low nameability""]","4","low nameability","40","left","trigger",""
"html-button-response","190","232814","0.0-147.0-0.0","CKN_114","114","","","","","","2699","<button class=""jspsych-btn""><img src=""stimuli/neonyellow.png"" style=""width: 200px;height: 200px;""></button>","0","neonyellow","mustard","[""neonyellow"",""mustard"",""low nameability""]","left-right","[""neonyellow"",""mustard"",""low nameability""]","4","low nameability","40","left","response","1"
"html-audio-button-response","191","233024","0.0-147.0-1.0","CKN_114","114","","","","","","null","stimuli/bleep.m4a","null","neonyellow","mustard","[""neonyellow"",""mustard"",""low nameability""]","left-right","[""neonyellow"",""mustard"",""low nameability""]","4","low nameability","40","left","audio_feedback","1"
"html-button-response","192","233532","0.0-148.0","CKN_114","114","","","","","","null","<button class=""jspsych-btn""><img src=""stimuli/white_square.png"" style=""width: 200px;height: 200px;""></button>","null","neonyellow","mustard","[""neonyellow"",""mustard"",""low nameability""]","left-right","[""neonyellow"",""mustard"",""low nameability""]","4","low nameability","40","left","iti",""
"pavlovia","193","233601","0.0-149.0","CKN_114","114","","","","","","","","","","","","","","","","","","",""
"pavlovia","194","233612","0.0-150.0","CKN_114","114","","","","","","","","","","","","","","","","","","",""
"html-audio-button-response","195","238838","0.0-151.0","CKN_114","114","","","","","","5288","stimuli/tada.m4a","0","","","","","","","","","","",""
"html-button-response","196","240068","0.0-152.0","CKN_114","114","","","","","","1220","","0","","","","","","","","","","",""
"html-button-response","197","241625","0.0-153.0","CKN_114","114","","","","","","1542","","0","turquoise","neonyellow","[""turquoise"",""neonyellow"",""low nameability""]","right-left","[""neonyellow"",""turquoise""]","5","low nameability","41","right","trigger",""
"html-button-response","198","242726","0.0-154.0-0.0","CKN_114","114","","","","","","1092","<button class=""jspsych-btn""><img src=""stimuli/turquoise.png"" style=""width: 200px;height: 200px;""></button>","1","turquoise","neonyellow","[""turquoise"",""neonyellow"",""low nameability""]","right-left","[""neonyellow"",""turquoise""]","5","low nameability","41","right","response","1"
"html-audio-button-response","199","242941","0.0-154.0-1.0","CKN_114","114","","","","","","null","stimuli/bleep.m4a","null","turquoise","neonyellow","[""turquoise"",""neonyellow"",""low nameability""]","right-left","[""neonyellow"",""turquoise""]","5","low nameability","41","right","audio_feedback","1"
"html-button-response","200","243466","0.0-155.0","CKN_114","114","","","","","","null","<button class=""jspsych-btn""><img src=""stimuli/white_square.png"" style=""width: 200px;height: 200px;""></button>","null","turquoise","neonyellow","[""turquoise"",""neonyellow"",""low nameability""]","right-left","[""neonyellow"",""turquoise""]","5","low nameability","41","right","iti",""
"html-button-response","201","244457","0.0-156.0","CKN_114","114","","","","","","963","","0","mustard","pink","[""mustard"",""pink"",""low nameability""]","right-left","[""pink"",""mustard""]","5","low nameability","42","right","trigger",""
"html-button-response","202","245401","0.0-157.0-0.0","CKN_114","114","","","","","","929","<button class=""jspsych-btn""><img src=""stimuli/mustard.png"" style=""width: 200px;height: 200px;""></button>","1","mustard","pink","[""mustard"",""pink"",""low nameability""]","right-left","[""pink"",""mustard""]","5","low nameability","42","right","response","1"
"html-audio-button-response","203","245615","0.0-157.0-1.0","CKN_114","114","","","","","","null","stimuli/bleep.m4a","null","mustard","pink","[""mustard"",""pink"",""low nameability""]","right-left","[""pink"",""mustard""]","5","low nameability","42","right","audio_feedback","1"
"html-button-response","204","246146","0.0-158.0","CKN_114","114","","","","","","null","<button class=""jspsych-btn""><img src=""stimuli/white_square.png"" style=""width: 200px;height: 200px;""></button>","null","mustard","pink","[""mustard"",""pink"",""low nameability""]","right-left","[""pink"",""mustard""]","5","low nameability","42","right","iti",""
"html-button-response","205","246833","0.0-159.0","CKN_114","114","","","","","","660","","0","orange","red","[""orange"",""red"",""high nameability""]","left-right","[""orange"",""red"",""high nameability""]","5","high nameability","43","left","trigger",""
"html-button-response","206","247879","0.0-160.0-0.0","CKN_114","114","","","","","","1034","<button class=""jspsych-btn""><img src=""stimuli/orange.png"" style=""width: 200px;height: 200px;""></button>","0","orange","red","[""orange"",""red"",""high nameability""]","left-right","[""orange"",""red"",""high nameability""]","5","high nameability","43","left","response","1"
"html-audio-button-response","207","248096","0.0-160.0-1.0","CKN_114","114","","","","","","null","stimuli/bleep.m4a","null","orange","red","[""orange"",""red"",""high nameability""]","left-right","[""orange"",""red"",""high nameability""]","5","high nameability","43","left","audio_feedback","1"
"html-button-response","208","248620","0.0-161.0","CKN_114","114","","","","","","null","<button class=""jspsych-btn""><img src=""stimuli/white_square.png"" style=""width: 200px;height: 200px;""></button>","null","orange","red","[""orange"",""red"",""high nameability""]","left-right","[""orange"",""red"",""high nameability""]","5","high nameability","43","left","iti",""
"html-button-response","209","249589","0.0-162.0","CKN_114","114","","","","","","956","","0","mustard","neonyellow","[""mustard"",""neonyellow"",""low nameability""]","right-left","[""neonyellow"",""mustard""]","5","low nameability","44","right","trigger",""
"html-button-response","210","250746","0.0-163.0-0.0","CKN_114","114","","","","","","1149","<button class=""jspsych-btn""><img src=""stimuli/mustard.png"" style=""width: 200px;height: 200px;""></button>","1","mustard","neonyellow","[""mustard"",""neonyellow"",""low nameability""]","right-left","[""neonyellow"",""mustard""]","5","low nameability","44","right","response","1"
"html-audio-button-response","211","250948","0.0-163.0-1.0","CKN_114","114","","","","","","null","stimuli/bleep.m4a","null","mustard","neonyellow","[""mustard"",""neonyellow"",""low nameability""]","right-left","[""neonyellow"",""mustard""]","5","low nameability","44","right","audio_feedback","1"
"html-button-response","212","251482","0.0-164.0","CKN_114","114","","","","","","null","<button class=""jspsych-btn""><img src=""stimuli/white_square.png"" style=""width: 200px;height: 200px;""></button>","null","mustard","neonyellow","[""mustard"",""neonyellow"",""low nameability""]","right-left","[""neonyellow"",""mustard""]","5","low nameability","44","right","iti",""
"html-button-response","213","252496","0.0-165.0","CKN_114","114","","","","","","997","","0","orange","yellow","[""orange"",""yellow"",""high nameability""]","left-right","[""orange"",""yellow"",""high nameability""]","5","high nameability","45","left","trigger",""
"html-button-response","214","253429","0.0-166.0-0.0","CKN_114","114","","","","","","924","<button class=""jspsych-btn""><img src=""stimuli/orange.png"" style=""width: 200px;height: 200px;""></button>","0","orange","yellow","[""orange"",""yellow"",""high nameability""]","left-right","[""orange"",""yellow"",""high nameability""]","5","high nameability","45","left","response","1"
"html-audio-button-response","215","253637","0.0-166.0-1.0","CKN_114","114","","","","","","null","stimuli/bleep.m4a","null","orange","yellow","[""orange"",""yellow"",""high nameability""]","left-right","[""orange"",""yellow"",""high nameability""]","5","high nameability","45","left","audio_feedback","1"
"html-button-response","216","254151","0.0-167.0","CKN_114","114","","","","","","null","<button class=""jspsych-btn""><img src=""stimuli/white_square.png"" style=""width: 200px;height: 200px;""></button>","null","orange","yellow","[""orange"",""yellow"",""high nameability""]","left-right","[""orange"",""yellow"",""high nameability""]","5","high nameability","45","left","iti",""
"html-button-response","217","254814","0.0-168.0","CKN_114","114","","","","","","648","","0","purple","yellow","[""purple"",""yellow"",""high nameability""]","right-left","[""yellow"",""purple""]","5","high nameability","46","right","trigger",""
"html-button-response","218","255843","0.0-169.0-0.0","CKN_114","114","","","","","","1021","<button class=""jspsych-btn""><img src=""stimuli/purple.png"" style=""width: 200px;height: 200px;""></button>","1","purple","yellow","[""purple"",""yellow"",""high nameability""]","right-left","[""yellow"",""purple""]","5","high nameability","46","right","response","1"
"html-audio-button-response","219","256045","0.0-169.0-1.0","CKN_114","114","","","","","","null","stimuli/bleep.m4a","null","purple","yellow","[""purple"",""yellow"",""high nameability""]","right-left","[""yellow"",""purple""]","5","high nameability","46","right","audio_feedback","1"
"html-button-response","220","256585","0.0-170.0","CKN_114","114","","","","","","null","<button class=""jspsych-btn""><img src=""stimuli/white_square.png"" style=""width: 200px;height: 200px;""></button>","null","purple","yellow","[""purple"",""yellow"",""high nameability""]","right-left","[""yellow"",""purple""]","5","high nameability","46","right","iti",""
"html-button-response","221","257261","0.0-171.0","CKN_114","114","","","","","","660","","0","blue","orange","[""blue"",""orange"",""high nameability""]","left-right","[""blue"",""orange"",""high nameability""]","5","high nameability","47","left","trigger",""
"html-button-response","222","258179","0.0-172.0-0.0","CKN_114","114","","","","","","910","<button class=""jspsych-btn""><img src=""stimuli/blue.png"" style=""width: 200px;height: 200px;""></button>","0","blue","orange","[""blue"",""orange"",""high nameability""]","left-right","[""blue"",""orange"",""high nameability""]","5","high nameability","47","left","response","1"
"html-audio-button-response","223","258381","0.0-172.0-1.0","CKN_114","114","","","","","","null","stimuli/bleep.m4a","null","blue","orange","[""blue"",""orange"",""high nameability""]","left-right","[""blue"",""orange"",""high nameability""]","5","high nameability","47","left","audio_feedback","1"
"html-button-response","224","258903","0.0-173.0","CKN_114","114","","","","","","null","<button class=""jspsych-btn""><img src=""stimuli/white_square.png"" style=""width: 200px;height: 200px;""></button>","null","blue","orange","[""blue"",""orange"",""high nameability""]","left-right","[""blue"",""orange"",""high nameability""]","5","high nameability","47","left","iti",""
"html-button-response","225","260876","0.0-174.0","CKN_114","114","","","","","","1957","","0","lightred","darkgreenblue","[""lightred"",""darkgreenblue"",""low nameability""]","left-right","[""lightred"",""darkgreenblue"",""low nameability""]","5","low nameability","48","left","trigger",""
"html-button-response","226","262457","0.0-175.0-0.0","CKN_114","114","","","","","","1575","<button class=""jspsych-btn""><img src=""stimuli/lightred.png"" style=""width: 200px;height: 200px;""></button>","0","lightred","darkgreenblue","[""lightred"",""darkgreenblue"",""low nameability""]","left-right","[""lightred"",""darkgreenblue"",""low nameability""]","5","low nameability","48","left","response","1"
"html-audio-button-response","227","262660","0.0-175.0-1.0","CKN_114","114","","","","","","null","stimuli/bleep.m4a","null","lightred","darkgreenblue","[""lightred"",""darkgreenblue"",""low nameability""]","left-right","[""lightred"",""darkgreenblue"",""low nameability""]","5","low nameability","48","left","audio_feedback","1"
"html-button-response","228","263172","0.0-176.0","CKN_114","114","","","","","","null","<button class=""jspsych-btn""><img src=""stimuli/white_square.png"" style=""width: 200px;height: 200px;""></button>","null","lightred","darkgreenblue","[""lightred"",""darkgreenblue"",""low nameability""]","left-right","[""lightred"",""darkgreenblue"",""low nameability""]","5","low nameability","48","left","iti",""
"html-button-response","229","263836","0.0-177.0","CKN_114","114","","","","","","649","","0","pink","mustard","[""pink"",""mustard"",""low nameability""]","right-left","[""mustard"",""pink""]","5","low nameability","49","right","trigger",""
"html-button-response","230","265156","0.0-178.0-0.0","CKN_114","114","","","","","","1311","<button class=""jspsych-btn""><img src=""stimuli/pink.png"" style=""width: 200px;height: 200px;""></button>","1","pink","mustard","[""pink"",""mustard"",""low nameability""]","right-left","[""mustard"",""pink""]","5","low nameability","49","right","response","1"
"html-audio-button-response","231","265365","0.0-178.0-1.0","CKN_114","114","","","","","","null","stimuli/bleep.m4a","null","pink","mustard","[""pink"",""mustard"",""low nameability""]","right-left","[""mustard"",""pink""]","5","low nameability","49","right","audio_feedback","1"
"html-button-response","232","265889","0.0-179.0","CKN_114","114","","","","","","null","<button class=""jspsych-btn""><img src=""stimuli/white_square.png"" style=""width: 200px;height: 200px;""></button>","null","pink","mustard","[""pink"",""mustard"",""low nameability""]","right-left","[""mustard"",""pink""]","5","low nameability","49","right","iti",""
"html-button-response","233","266869","0.0-180.0","CKN_114","114","","","","","","964","","0","darkgreenblue","lightred","[""darkgreenblue"",""lightred"",""low nameability""]","left-right","[""darkgreenblue"",""lightred"",""low nameability""]","5","low nameability","50","left","trigger",""
"html-button-response","234","267794","0.0-181.0-0.0","CKN_114","114","","","","","","919","<button class=""jspsych-btn""><img src=""stimuli/darkgreenblue.png"" style=""width: 200px;height: 200px;""></button>","0","darkgreenblue","lightred","[""darkgreenblue"",""lightred"",""low nameability""]","left-right","[""darkgreenblue"",""lightred"",""low nameability""]","5","low nameability","50","left","response","1"
"html-audio-button-response","235","267997","0.0-181.0-1.0","CKN_114","114","","","","","","null","stimuli/bleep.m4a","null","darkgreenblue","lightred","[""darkgreenblue"",""lightred"",""low nameability""]","left-right","[""darkgreenblue"",""lightred"",""low nameability""]","5","low nameability","50","left","audio_feedback","1"
"html-button-response","236","268510","0.0-182.0","CKN_114","114","","","","","","null","<button class=""jspsych-btn""><img src=""stimuli/white_square.png"" style=""width: 200px;height: 200px;""></button>","null","darkgreenblue","lightred","[""darkgreenblue"",""lightred"",""low nameability""]","left-right","[""darkgreenblue"",""lightred"",""low nameability""]","5","low nameability","50","left","iti",""
"pavlovia","237","268622","0.0-183.0","CKN_114","114","","","","","","","","","","","","","","","","","","",""
"pavlovia","238","268632","0.0-184.0","CKN_114","114","","","","","","","","","","","","","","","","","","",""
"html-audio-button-response","239","272740","0.0-185.0","CKN_114","114","","","","","","4227","stimuli/tada.m4a","0","","","","","","","","","","",""
"html-button-response","240","273528","0.0-186.0","CKN_114","114","","","","","","783","","0","","","","","","","","","","",""
"html-button-response","241","274680","0.0-187.0","CKN_114","114","","","","","","1147","","0","lightred","turquoise","[""lightred"",""turquoise"",""low nameability""]","left-right","[""lightred"",""turquoise"",""low nameability""]","6","low nameability","51","left","trigger",""
"html-button-response","242","275636","0.0-188.0-0.0","CKN_114","114","","","","","","947","<button class=""jspsych-btn""><img src=""stimuli/lightred.png"" style=""width: 200px;height: 200px;""></button>","0","lightred","turquoise","[""lightred"",""turquoise"",""low nameability""]","left-right","[""lightred"",""turquoise"",""low nameability""]","6","low nameability","51","left","response","1"
"html-audio-button-response","243","275846","0.0-188.0-1.0","CKN_114","114","","","","","","null","stimuli/bleep.m4a","null","lightred","turquoise","[""lightred"",""turquoise"",""low nameability""]","left-right","[""lightred"",""turquoise"",""low nameability""]","6","low nameability","51","left","audio_feedback","1"
"html-button-response","244","276364","0.0-189.0","CKN_114","114","","","","","","null","<button class=""jspsych-btn""><img src=""stimuli/white_square.png"" style=""width: 200px;height: 200px;""></button>","null","lightred","turquoise","[""lightred"",""turquoise"",""low nameability""]","left-right","[""lightred"",""turquoise"",""low nameability""]","6","low nameability","51","left","iti",""
"html-button-response","245","277902","0.0-190.0","CKN_114","114","","","","","","1520","","0","turquoise","pink","[""turquoise"",""pink"",""low nameability""]","left-right","[""turquoise"",""pink"",""low nameability""]","6","low nameability","52","left","trigger",""
"html-button-response","246","278753","0.0-191.0-0.0","CKN_114","114","","","","","","843","<button class=""jspsych-btn""><img src=""stimuli/turquoise.png"" style=""width: 200px;height: 200px;""></button>","0","turquoise","pink","[""turquoise"",""pink"",""low nameability""]","left-right","[""turquoise"",""pink"",""low nameability""]","6","low nameability","52","left","response","1"
"html-audio-button-response","247","278964","0.0-191.0-1.0","CKN_114","114","","","","","","null","stimuli/bleep.m4a","null","turquoise","pink","[""turquoise"",""pink"",""low nameability""]","left-right","[""turquoise"",""pink"",""low nameability""]","6","low nameability","52","left","audio_feedback","1"
"html-button-response","248","279496","0.0-192.0","CKN_114","114","","","","","","null","<button class=""jspsych-btn""><img src=""stimuli/white_square.png"" style=""width: 200px;height: 200px;""></button>","null","turquoise","pink","[""turquoise"",""pink"",""low nameability""]","left-right","[""turquoise"",""pink"",""low nameability""]","6","low nameability","52","left","iti",""
"html-button-response","249","281959","0.0-193.0","CKN_114","114","","","","","","2445","","0","yellow","red","[""yellow"",""red"",""high nameability""]","right-left","[""red"",""yellow""]","6","high nameability","53","right","trigger",""
"html-button-response","250","282881","0.0-194.0-0.0","CKN_114","114","","","","","","911","<button class=""jspsych-btn""><img src=""stimuli/yellow.png"" style=""width: 200px;height: 200px;""></button>","1","yellow","red","[""yellow"",""red"",""high nameability""]","right-left","[""red"",""yellow""]","6","high nameability","53","right","response","1"
"html-audio-button-response","251","283085","0.0-194.0-1.0","CKN_114","114","","","","","","null","stimuli/bleep.m4a","null","yellow","red","[""yellow"",""red"",""high nameability""]","right-left","[""red"",""yellow""]","6","high nameability","53","right","audio_feedback","1"
"html-button-response","252","283598","0.0-195.0","CKN_114","114","","","","","","null","<button class=""jspsych-btn""><img src=""stimuli/white_square.png"" style=""width: 200px;height: 200px;""></button>","null","yellow","red","[""yellow"",""red"",""high nameability""]","right-left","[""red"",""yellow""]","6","high nameability","53","right","iti",""
"html-button-response","253","284289","0.0-196.0","CKN_114","114","","","","","","680","","0","red","yellow","[""red"",""yellow"",""high nameability""]","right-left","[""yellow"",""red""]","6","high nameability","54","right","trigger",""
"html-button-response","254","285410","0.0-197.0-0.0","CKN_114","114","","","","","","1115","<button class=""jspsych-btn""><img src=""stimuli/red.png"" style=""width: 200px;height: 200px;""></button>","1","red","yellow","[""red"",""yellow"",""high nameability""]","right-left","[""yellow"",""red""]","6","high nameability","54","right","response","1"
"html-audio-button-response","255","285613","0.0-197.0-1.0","CKN_114","114","","","","","","null","stimuli/bleep.m4a","null","red","yellow","[""red"",""yellow"",""high nameability""]","right-left","[""yellow"",""red""]","6","high nameability","54","right","audio_feedback","1"
"html-button-response","256","286129","0.0-198.0","CKN_114","114","","","","","","null","<button class=""jspsych-btn""><img src=""stimuli/white_square.png"" style=""width: 200px;height: 200px;""></button>","null","red","yellow","[""red"",""yellow"",""high nameability""]","right-left","[""yellow"",""red""]","6","high nameability","54","right","iti",""
"html-button-response","257","286803","0.0-199.0","CKN_114","114","","","","","","660","","0","orange","brown","[""orange"",""brown"",""high nameability""]","left-right","[""orange"",""brown"",""high nameability""]","6","high nameability","55","left","trigger",""
"html-button-response","258","287979","0.0-200.0-0.0","CKN_114","114","","","","","","1169","<button class=""jspsych-btn""><img src=""stimuli/orange.png"" style=""width: 200px;height: 200px;""></button>","0","orange","brown","[""orange"",""brown"",""high nameability""]","left-right","[""orange"",""brown"",""high nameability""]","6","high nameability","55","left","response","1"
"html-audio-button-response","259","288181","0.0-200.0-1.0","CKN_114","114","","","","","","null","stimuli/bleep.m4a","null","orange","brown","[""orange"",""brown"",""high nameability""]","left-right","[""orange"",""brown"",""high nameability""]","6","high nameability","55","left","audio_feedback","1"
"html-button-response","260","288701","0.0-201.0","CKN_114","114","","","","","","null","<button class=""jspsych-btn""><img src=""stimuli/white_square.png"" style=""width: 200px;height: 200px;""></button>","null","orange","brown","[""orange"",""brown"",""high nameability""]","left-right","[""orange"",""brown"",""high nameability""]","6","high nameability","55","left","iti",""
"html-button-response","261","289651","0.0-202.0","CKN_114","114","","","","","","934","","0","turquoise","lightred","[""turquoise"",""lightred"",""low nameability""]","left-right","[""turquoise"",""lightred"",""low nameability""]","6","low nameability","56","left","trigger",""
"html-button-response","262","291287","0.0-203.0-0.0","CKN_114","114","","","","","","1627","<button class=""jspsych-btn""><img src=""stimuli/turquoise.png"" style=""width: 200px;height: 200px;""></button>","0","turquoise","lightred","[""turquoise"",""lightred"",""low nameability""]","left-right","[""turquoise"",""lightred"",""low nameability""]","6","low nameability","56","left","response","1"
"html-audio-button-response","263","291492","0.0-203.0-1.0","CKN_114","114","","","","","","null","stimuli/bleep.m4a","null","turquoise","lightred","[""turquoise"",""lightred"",""low nameability""]","left-right","[""turquoise"",""lightred"",""low nameability""]","6","low nameability","56","left","audio_feedback","1"
"html-button-response","264","292010","0.0-204.0","CKN_114","114","","","","","","null","<button class=""jspsych-btn""><img src=""stimuli/white_square.png"" style=""width: 200px;height: 200px;""></button>","null","turquoise","lightred","[""turquoise"",""lightred"",""low nameability""]","left-right","[""turquoise"",""lightred"",""low nameability""]","6","low nameability","56","left","iti",""
"html-button-response","265","294197","0.0-205.0","CKN_114","114","","","","","","2173","","0","yellow","brown","[""yellow"",""brown"",""high nameability""]","left-right","[""yellow"",""brown"",""high nameability""]","6","high nameability","57","left","trigger",""
"html-button-response","266","295013","0.0-206.0-0.0","CKN_114","114","","","","","","809","<button class=""jspsych-btn""><img src=""stimuli/yellow.png"" style=""width: 200px;height: 200px;""></button>","0","yellow","brown","[""yellow"",""brown"",""high nameability""]","left-right","[""yellow"",""brown"",""high nameability""]","6","high nameability","57","left","response","1"
"html-audio-button-response","267","295217","0.0-206.0-1.0","CKN_114","114","","","","","","null","stimuli/bleep.m4a","null","yellow","brown","[""yellow"",""brown"",""high nameability""]","left-right","[""yellow"",""brown"",""high nameability""]","6","high nameability","57","left","audio_feedback","1"
"html-button-response","268","295730","0.0-207.0","CKN_114","114","","","","","","null","<button class=""jspsych-btn""><img src=""stimuli/white_square.png"" style=""width: 200px;height: 200px;""></button>","null","yellow","brown","[""yellow"",""brown"",""high nameability""]","left-right","[""yellow"",""brown"",""high nameability""]","6","high nameability","57","left","iti",""
"html-button-response","269","296581","0.0-208.0","CKN_114","114","","","","","","836","","0","darkgreenblue","neonyellow","[""darkgreenblue"",""neonyellow"",""low nameability""]","right-left","[""neonyellow"",""darkgreenblue""]","6","low nameability","58","right","trigger",""
"html-button-response","270","297416","0.0-209.0-0.0","CKN_114","114","","","","","","827","<button class=""jspsych-btn""><img src=""stimuli/darkgreenblue.png"" style=""width: 200px;height: 200px;""></button>","0","darkgreenblue","neonyellow","[""darkgreenblue"",""neonyellow"",""low nameability""]","right-left","[""neonyellow"",""darkgreenblue""]","6","low nameability","58","right","response","0"
"html-audio-button-response","271","298062","0.0-209.0-1.0","CKN_114","114","","","","","","null","stimuli/boing.m4a","null","darkgreenblue","neonyellow","[""darkgreenblue"",""neonyellow"",""low nameability""]","right-left","[""neonyellow"",""darkgreenblue""]","6","low nameability","58","right","audio_feedback","0"
"html-button-response","272","299242","0.0-209.1-0.1","CKN_114","114","","","","","","1161","<button class=""jspsych-btn""><img src=""stimuli/darkgreenblue.png"" style=""width: 200px;height: 200px;""></button>","1","darkgreenblue","neonyellow","[""darkgreenblue"",""neonyellow"",""low nameability""]","right-left","[""neonyellow"",""darkgreenblue""]","6","low nameability","58","right","response","1"
"html-audio-button-response","273","299445","0.0-209.1-1.1","CKN_114","114","","","","","","null","stimuli/bleep.m4a","null","darkgreenblue","neonyellow","[""darkgreenblue"",""neonyellow"",""low nameability""]","right-left","[""neonyellow"",""darkgreenblue""]","6","low nameability","58","right","audio_feedback","1"
"html-button-response","274","299962","0.0-210.0","CKN_114","114","","","","","","null","<button class=""jspsych-btn""><img src=""stimuli/white_square.png"" style=""width: 200px;height: 200px;""></button>","null","darkgreenblue","neonyellow","[""darkgreenblue"",""neonyellow"",""low nameability""]","right-left","[""neonyellow"",""darkgreenblue""]","6","low nameability","58","right","iti",""
"html-button-response","275","300901","0.0-211.0","CKN_114","114","","","","","","925","","0","pink","neonyellow","[""pink"",""neonyellow"",""low nameability""]","left-right","[""pink"",""neonyellow"",""low nameability""]","6","low nameability","59","left","trigger",""
"html-button-response","276","302627","0.0-212.0-0.0","CKN_114","114","","","","","","1718","<button class=""jspsych-btn""><img src=""stimuli/pink.png"" style=""width: 200px;height: 200px;""></button>","0","pink","neonyellow","[""pink"",""neonyellow"",""low nameability""]","left-right","[""pink"",""neonyellow"",""low nameability""]","6","low nameability","59","left","response","1"
"html-audio-button-response","277","302828","0.0-212.0-1.0","CKN_114","114","","","","","","null","stimuli/bleep.m4a","null","pink","neonyellow","[""pink"",""neonyellow"",""low nameability""]","left-right","[""pink"",""neonyellow"",""low nameability""]","6","low nameability","59","left","audio_feedback","1"
"html-button-response","278","303351","0.0-213.0","CKN_114","114","","","","","","null","<button class=""jspsych-btn""><img src=""stimuli/white_square.png"" style=""width: 200px;height: 200px;""></button>","null","pink","neonyellow","[""pink"",""neonyellow"",""low nameability""]","left-right","[""pink"",""neonyellow"",""low nameability""]","6","low nameability","59","left","iti",""
"html-button-response","279","305166","0.0-214.0","CKN_114","114","","","","","","1798","","0","neonyellow","lightred","[""neonyellow"",""lightred"",""low nameability""]","left-right","[""neonyellow"",""lightred"",""low nameability""]","6","low nameability","60","left","trigger",""
"html-button-response","280","306654","0.0-215.0-0.0","CKN_114","114","","","","","","1474","<button class=""jspsych-btn""><img src=""stimuli/neonyellow.png"" style=""width: 200px;height: 200px;""></button>","0","neonyellow","lightred","[""neonyellow"",""lightred"",""low nameability""]","left-right","[""neonyellow"",""lightred"",""low nameability""]","6","low nameability","60","left","response","1"
"html-audio-button-response","281","306881","0.0-215.0-1.0","CKN_114","114","","","","","","null","stimuli/bleep.m4a","null","neonyellow","lightred","[""neonyellow"",""lightred"",""low nameability""]","left-right","[""neonyellow"",""lightred"",""low nameability""]","6","low nameability","60","left","audio_feedback","1"
"html-button-response","282","307422","0.0-216.0","CKN_114","114","","","","","","null","<button class=""jspsych-btn""><img src=""stimuli/white_square.png"" style=""width: 200px;height: 200px;""></button>","null","neonyellow","lightred","[""neonyellow"",""lightred"",""low nameability""]","left-right","[""neonyellow"",""lightred"",""low nameability""]","6","low nameability","60","left","iti",""
