"trial_type","trial_index","time_elapsed","internal_node_id","subject_id","seed","success","timeout","failed_images","failed_audio","failed_video","rt","stimulus","response","target","foil","choices","combination_order","choices_in_order","round","condition","trial_counter","target_location","trial_kind","correct"
"pavlovia","0","20","0.0-0.0","CKN_133","133","","","","","","","","","","","","","","","","","","",""
"preload","1","756","0.0-1.0","CKN_133","133","true","false","[]","[]","[]","","","","","","","","","","","","","",""
"fullscreen","2","4765","0.0-2.0","CKN_133","133","true","","","","","","","","","","","","","","","","","",""
"html-button-response","3","212033","0.0-3.0","CKN_133","133","","","","","","207249","","0","","","","","","","","","","",""
"html-button-response","4","220295","0.0-4.0","CKN_133","133","","","","","","8250","","0","star","square","[""square"",""star""]","left-right","[""square"",""star""]","1","practice","1","right","trigger",""
"html-button-response","5","226255","0.0-5.0-0.0","CKN_133","133","","","","","","5945","<button class=""jspsych-btn""><img src=""stimuli/star.png"" style=""width: 200px;height: 200px;""></button>","1","star","square","[""square"",""star""]","left-right","[""square"",""star""]","1","practice","1","right","response","1"
"html-audio-button-response","6","226484","0.0-5.0-1.0","CKN_133","133","","","","","","null","stimuli/bleep.m4a","null","star","square","[""square"",""star""]","left-right","[""square"",""star""]","1","practice","1","right","audio_feedback","1"
"html-button-response","7","227012","0.0-6.0","CKN_133","133","","","","","","null","<button class=""jspsych-btn""><img src=""stimuli/white_square.png"" style=""width: 200px;height: 200px;""></button>","null","star","square","[""square"",""star""]","left-right","[""square"",""star""]","1","practice","1","right","iti",""
"html-button-response","8","231671","0.0-7.0","CKN_133","133","","","","","","4635","","0","triangle","pentagram","[""triangle"",""pentagram""]","left-right","[""triangle"",""pentagram""]","1","practice","1","left","trigger",""
"html-button-response","9","240628","0.0-8.0-0.0","CKN_133","133","","","","","","8948","<button class=""jspsych-btn""><img src=""stimuli/triangle.png"" style=""width: 200px;height: 200px;""></button>","0","triangle","pentagram","[""triangle"",""pentagram""]","left-right","[""triangle"",""pentagram""]","1","practice","1","left","response","1"
"html-audio-button-response","10","240840","0.0-8.0-1.0","CKN_133","133","","","","","","null","stimuli/bleep.m4a","null","triangle","pentagram","[""triangle"",""pentagram""]","left-right","[""triangle"",""pentagram""]","1","practice","1","left","audio_feedback","1"
"html-button-response","11","241358","0.0-9.0","CKN_133","133","","","","","","null","<button class=""jspsych-btn""><img src=""stimuli/white_square.png"" style=""width: 200px;height: 200px;""></button>","null","triangle","pentagram","[""triangle"",""pentagram""]","left-right","[""triangle"",""pentagram""]","1","practice","1","left","iti",""
"html-button-response","12","243008","0.0-10.0","CKN_133","133","","","","","","1636","","0","diamond","rectangle","[""rectangle"",""diamond""]","left-right","[""rectangle"",""diamond""]","1","practice","1","right","trigger",""
"html-button-response","13","246363","0.0-11.0-0.0","CKN_133","133","","","","","","3341","<button class=""jspsych-btn""><img src=""stimuli/diamond.png"" style=""width: 200px;height: 200px;""></button>","1","diamond","rectangle","[""rectangle"",""diamond""]","left-right","[""rectangle"",""diamond""]","1","practice","1","right","response","1"
"html-audio-button-response","14","246574","0.0-11.0-1.0","CKN_133","133","","","","","","null","stimuli/bleep.m4a","null","diamond","rectangle","[""rectangle"",""diamond""]","left-right","[""rectangle"",""diamond""]","1","practice","1","right","audio_feedback","1"
"html-button-response","15","247089","0.0-12.0","CKN_133","133","","","","","","null","<button class=""jspsych-btn""><img src=""stimuli/white_square.png"" style=""width: 200px;height: 200px;""></button>","null","diamond","rectangle","[""rectangle"",""diamond""]","left-right","[""rectangle"",""diamond""]","1","practice","1","right","iti",""
"html-button-response","16","250564","0.0-13.0","CKN_133","133","","","","","","3460","","0","pentagram","star","[""pentagram"",""star""]","left-right","[""pentagram"",""star""]","1","practice","1","left","trigger",""
"html-button-response","17","254882","0.0-14.0-0.0","CKN_133","133","","","","","","4304","<button class=""jspsych-btn""><img src=""stimuli/pentagram.png"" style=""width: 200px;height: 200px;""></button>","0","pentagram","star","[""pentagram"",""star""]","left-right","[""pentagram"",""star""]","1","practice","1","left","response","1"
"html-audio-button-response","18","255087","0.0-14.0-1.0","CKN_133","133","","","","","","null","stimuli/bleep.m4a","null","pentagram","star","[""pentagram"",""star""]","left-right","[""pentagram"",""star""]","1","practice","1","left","audio_feedback","1"
"html-button-response","19","255611","0.0-15.0","CKN_133","133","","","","","","null","<button class=""jspsych-btn""><img src=""stimuli/white_square.png"" style=""width: 200px;height: 200px;""></button>","null","pentagram","star","[""pentagram"",""star""]","left-right","[""pentagram"",""star""]","1","practice","1","left","iti",""
"html-button-response","20","259423","0.0-16.0","CKN_133","133","","","","","","3787","","0","","","","","","","","","","",""
"html-button-response","21","262185","0.0-17.0","CKN_133","133","","","","","","2750","","0","darkgreenblue","pink","[""darkgreenblue"",""pink"",""low nameability""]","right-left","[""pink"",""darkgreenblue""]","1","low nameability","1","right","trigger",""
"html-button-response","22","265953","0.0-18.0-0.0","CKN_133","133","","","","","","3754","<button class=""jspsych-btn""><img src=""stimuli/darkgreenblue.png"" style=""width: 200px;height: 200px;""></button>","1","darkgreenblue","pink","[""darkgreenblue"",""pink"",""low nameability""]","right-left","[""pink"",""darkgreenblue""]","1","low nameability","1","right","response","1"
"html-audio-button-response","23","266160","0.0-18.0-1.0","CKN_133","133","","","","","","null","stimuli/bleep.m4a","null","darkgreenblue","pink","[""darkgreenblue"",""pink"",""low nameability""]","right-left","[""pink"",""darkgreenblue""]","1","low nameability","1","right","audio_feedback","1"
"html-button-response","24","266686","0.0-19.0","CKN_133","133","","","","","","null","<button class=""jspsych-btn""><img src=""stimuli/white_square.png"" style=""width: 200px;height: 200px;""></button>","null","darkgreenblue","pink","[""darkgreenblue"",""pink"",""low nameability""]","right-left","[""pink"",""darkgreenblue""]","1","low nameability","1","right","iti",""
"html-button-response","25","269591","0.0-20.0","CKN_133","133","","","","","","2892","","0","mustard","lightred","[""mustard"",""lightred"",""low nameability""]","left-right","[""mustard"",""lightred"",""low nameability""]","1","low nameability","2","left","trigger",""
"html-button-response","26","277357","0.0-21.0-0.0","CKN_133","133","","","","","","7757","<button class=""jspsych-btn""><img src=""stimuli/mustard.png"" style=""width: 200px;height: 200px;""></button>","0","mustard","lightred","[""mustard"",""lightred"",""low nameability""]","left-right","[""mustard"",""lightred"",""low nameability""]","1","low nameability","2","left","response","1"
"html-audio-button-response","27","277580","0.0-21.0-1.0","CKN_133","133","","","","","","null","stimuli/bleep.m4a","null","mustard","lightred","[""mustard"",""lightred"",""low nameability""]","left-right","[""mustard"",""lightred"",""low nameability""]","1","low nameability","2","left","audio_feedback","1"
"html-button-response","28","278123","0.0-22.0","CKN_133","133","","","","","","null","<button class=""jspsych-btn""><img src=""stimuli/white_square.png"" style=""width: 200px;height: 200px;""></button>","null","mustard","lightred","[""mustard"",""lightred"",""low nameability""]","left-right","[""mustard"",""lightred"",""low nameability""]","1","low nameability","2","left","iti",""
"html-button-response","29","279614","0.0-23.0","CKN_133","133","","","","","","1472","","0","red","yellow","[""red"",""yellow"",""high nameability""]","right-left","[""yellow"",""red""]","1","high nameability","3","right","trigger",""
"html-button-response","30","281894","0.0-24.0-0.0","CKN_133","133","","","","","","2262","<button class=""jspsych-btn""><img src=""stimuli/red.png"" style=""width: 200px;height: 200px;""></button>","1","red","yellow","[""red"",""yellow"",""high nameability""]","right-left","[""yellow"",""red""]","1","high nameability","3","right","response","1"
"html-audio-button-response","31","282120","0.0-24.0-1.0","CKN_133","133","","","","","","null","stimuli/bleep.m4a","null","red","yellow","[""red"",""yellow"",""high nameability""]","right-left","[""yellow"",""red""]","1","high nameability","3","right","audio_feedback","1"
"html-button-response","32","282650","0.0-25.0","CKN_133","133","","","","","","null","<button class=""jspsych-btn""><img src=""stimuli/white_square.png"" style=""width: 200px;height: 200px;""></button>","null","red","yellow","[""red"",""yellow"",""high nameability""]","right-left","[""yellow"",""red""]","1","high nameability","3","right","iti",""
"html-button-response","33","284770","0.0-26.0","CKN_133","133","","","","","","2107","","0","darkgreenblue","mustard","[""darkgreenblue"",""mustard"",""low nameability""]","left-right","[""darkgreenblue"",""mustard"",""low nameability""]","1","low nameability","4","left","trigger",""
"html-button-response","34","286274","0.0-27.0-0.0","CKN_133","133","","","","","","1490","<button class=""jspsych-btn""><img src=""stimuli/darkgreenblue.png"" style=""width: 200px;height: 200px;""></button>","0","darkgreenblue","mustard","[""darkgreenblue"",""mustard"",""low nameability""]","left-right","[""darkgreenblue"",""mustard"",""low nameability""]","1","low nameability","4","left","response","1"
"html-audio-button-response","35","286479","0.0-27.0-1.0","CKN_133","133","","","","","","null","stimuli/bleep.m4a","null","darkgreenblue","mustard","[""darkgreenblue"",""mustard"",""low nameability""]","left-right","[""darkgreenblue"",""mustard"",""low nameability""]","1","low nameability","4","left","audio_feedback","1"
"html-button-response","36","286994","0.0-28.0","CKN_133","133","","","","","","null","<button class=""jspsych-btn""><img src=""stimuli/white_square.png"" style=""width: 200px;height: 200px;""></button>","null","darkgreenblue","mustard","[""darkgreenblue"",""mustard"",""low nameability""]","left-right","[""darkgreenblue"",""mustard"",""low nameability""]","1","low nameability","4","left","iti",""
"html-button-response","37","288969","0.0-29.0","CKN_133","133","","","","","","1962","","0","purple","yellow","[""purple"",""yellow"",""high nameability""]","left-right","[""purple"",""yellow"",""high nameability""]","1","high nameability","5","left","trigger",""
"html-button-response","38","291285","0.0-30.0-0.0","CKN_133","133","","","","","","2303","<button class=""jspsych-btn""><img src=""stimuli/purple.png"" style=""width: 200px;height: 200px;""></button>","0","purple","yellow","[""purple"",""yellow"",""high nameability""]","left-right","[""purple"",""yellow"",""high nameability""]","1","high nameability","5","left","response","1"
"html-audio-button-response","39","291506","0.0-30.0-1.0","CKN_133","133","","","","","","null","stimuli/bleep.m4a","null","purple","yellow","[""purple"",""yellow"",""high nameability""]","left-right","[""purple"",""yellow"",""high nameability""]","1","high nameability","5","left","audio_feedback","1"
"html-button-response","40","292026","0.0-31.0","CKN_133","133","","","","","","null","<button class=""jspsych-btn""><img src=""stimuli/white_square.png"" style=""width: 200px;height: 200px;""></button>","null","purple","yellow","[""purple"",""yellow"",""high nameability""]","left-right","[""purple"",""yellow"",""high nameability""]","1","high nameability","5","left","iti",""
"html-button-response","41","293256","0.0-32.0","CKN_133","133","","","","","","1218","","0","blue","red","[""blue"",""red"",""high nameability""]","left-right","[""blue"",""red"",""high nameability""]","1","high nameability","6","left","trigger",""
"html-button-response","42","294579","0.0-33.0-0.0","CKN_133","133","","","","","","1311","<button class=""jspsych-btn""><img src=""stimuli/blue.png"" style=""width: 200px;height: 200px;""></button>","0","blue","red","[""blue"",""red"",""high nameability""]","left-right","[""blue"",""red"",""high nameability""]","1","high nameability","6","left","response","1"
"html-audio-button-response","43","294790","0.0-33.0-1.0","CKN_133","133","","","","","","null","stimuli/bleep.m4a","null","blue","red","[""blue"",""red"",""high nameability""]","left-right","[""blue"",""red"",""high nameability""]","1","high nameability","6","left","audio_feedback","1"
"html-button-response","44","295314","0.0-34.0","CKN_133","133","","","","","","null","<button class=""jspsych-btn""><img src=""stimuli/white_square.png"" style=""width: 200px;height: 200px;""></button>","null","blue","red","[""blue"",""red"",""high nameability""]","left-right","[""blue"",""red"",""high nameability""]","1","high nameability","6","left","iti",""
"html-button-response","45","297189","0.0-35.0","CKN_133","133","","","","","","1855","","0","blue","orange","[""blue"",""orange"",""high nameability""]","left-right","[""blue"",""orange"",""high nameability""]","1","high nameability","7","left","trigger",""
"html-button-response","46","298615","0.0-36.0-0.0","CKN_133","133","","","","","","1413","<button class=""jspsych-btn""><img src=""stimuli/blue.png"" style=""width: 200px;height: 200px;""></button>","0","blue","orange","[""blue"",""orange"",""high nameability""]","left-right","[""blue"",""orange"",""high nameability""]","1","high nameability","7","left","response","1"
"html-audio-button-response","47","298823","0.0-36.0-1.0","CKN_133","133","","","","","","null","stimuli/bleep.m4a","null","blue","orange","[""blue"",""orange"",""high nameability""]","left-right","[""blue"",""orange"",""high nameability""]","1","high nameability","7","left","audio_feedback","1"
"html-button-response","48","299347","0.0-37.0","CKN_133","133","","","","","","null","<button class=""jspsych-btn""><img src=""stimuli/white_square.png"" style=""width: 200px;height: 200px;""></button>","null","blue","orange","[""blue"",""orange"",""high nameability""]","left-right","[""blue"",""orange"",""high nameability""]","1","high nameability","7","left","iti",""
"html-button-response","49","300423","0.0-38.0","CKN_133","133","","","","","","1059","","0","mustard","turquoise","[""mustard"",""turquoise"",""low nameability""]","left-right","[""mustard"",""turquoise"",""low nameability""]","1","low nameability","8","left","trigger",""
"html-button-response","50","301763","0.0-39.0-0.0","CKN_133","133","","","","","","1332","<button class=""jspsych-btn""><img src=""stimuli/mustard.png"" style=""width: 200px;height: 200px;""></button>","0","mustard","turquoise","[""mustard"",""turquoise"",""low nameability""]","left-right","[""mustard"",""turquoise"",""low nameability""]","1","low nameability","8","left","response","1"
"html-audio-button-response","51","301967","0.0-39.0-1.0","CKN_133","133","","","","","","null","stimuli/bleep.m4a","null","mustard","turquoise","[""mustard"",""turquoise"",""low nameability""]","left-right","[""mustard"",""turquoise"",""low nameability""]","1","low nameability","8","left","audio_feedback","1"
"html-button-response","52","302484","0.0-40.0","CKN_133","133","","","","","","null","<button class=""jspsych-btn""><img src=""stimuli/white_square.png"" style=""width: 200px;height: 200px;""></button>","null","mustard","turquoise","[""mustard"",""turquoise"",""low nameability""]","left-right","[""mustard"",""turquoise"",""low nameability""]","1","low nameability","8","left","iti",""
"html-button-response","53","303453","0.0-41.0","CKN_133","133","","","","","","954","","0","lightred","mustard","[""lightred"",""mustard"",""low nameability""]","left-right","[""lightred"",""mustard"",""low nameability""]","1","low nameability","9","left","trigger",""
"html-button-response","54","304746","0.0-42.0-0.0","CKN_133","133","","","","","","1284","<button class=""jspsych-btn""><img src=""stimuli/lightred.png"" style=""width: 200px;height: 200px;""></button>","0","lightred","mustard","[""lightred"",""mustard"",""low nameability""]","left-right","[""lightred"",""mustard"",""low nameability""]","1","low nameability","9","left","response","1"
"html-audio-button-response","55","304969","0.0-42.0-1.0","CKN_133","133","","","","","","null","stimuli/bleep.m4a","null","lightred","mustard","[""lightred"",""mustard"",""low nameability""]","left-right","[""lightred"",""mustard"",""low nameability""]","1","low nameability","9","left","audio_feedback","1"
"html-button-response","56","305498","0.0-43.0","CKN_133","133","","","","","","null","<button class=""jspsych-btn""><img src=""stimuli/white_square.png"" style=""width: 200px;height: 200px;""></button>","null","lightred","mustard","[""lightred"",""mustard"",""low nameability""]","left-right","[""lightred"",""mustard"",""low nameability""]","1","low nameability","9","left","iti",""
"html-button-response","57","306392","0.0-44.0","CKN_133","133","","","","","","876","","0","red","purple","[""red"",""purple"",""high nameability""]","right-left","[""purple"",""red""]","1","high nameability","10","right","trigger",""
"html-button-response","58","309146","0.0-45.0-0.0","CKN_133","133","","","","","","2740","<button class=""jspsych-btn""><img src=""stimuli/red.png"" style=""width: 200px;height: 200px;""></button>","1","red","purple","[""red"",""purple"",""high nameability""]","right-left","[""purple"",""red""]","1","high nameability","10","right","response","1"
"html-audio-button-response","59","309359","0.0-45.0-1.0","CKN_133","133","","","","","","null","stimuli/bleep.m4a","null","red","purple","[""red"",""purple"",""high nameability""]","right-left","[""purple"",""red""]","1","high nameability","10","right","audio_feedback","1"
"html-button-response","60","309875","0.0-46.0","CKN_133","133","","","","","","null","<button class=""jspsych-btn""><img src=""stimuli/white_square.png"" style=""width: 200px;height: 200px;""></button>","null","red","purple","[""red"",""purple"",""high nameability""]","right-left","[""purple"",""red""]","1","high nameability","10","right","iti",""
"pavlovia","61","309944","0.0-47.0","CKN_133","133","","","","","","","","","","","","","","","","","","",""
"pavlovia","62","309955","0.0-48.0","CKN_133","133","","","","","","","","","","","","","","","","","","",""
"html-audio-button-response","63","316976","0.0-49.0","CKN_133","133","","","","","","7104","stimuli/tada.m4a","0","","","","","","","","","","",""
"html-button-response","64","318020","0.0-50.0","CKN_133","133","","","","","","1040","","0","","","","","","","","","","",""
"html-button-response","65","319315","0.0-51.0","CKN_133","133","","","","","","1286","","0","red","blue","[""red"",""blue"",""high nameability""]","right-left","[""blue"",""red""]","2","high nameability","11","right","trigger",""
"html-button-response","66","320926","0.0-52.0-0.0","CKN_133","133","","","","","","1601","<button class=""jspsych-btn""><img src=""stimuli/red.png"" style=""width: 200px;height: 200px;""></button>","1","red","blue","[""red"",""blue"",""high nameability""]","right-left","[""blue"",""red""]","2","high nameability","11","right","response","1"
"html-audio-button-response","67","321143","0.0-52.0-1.0","CKN_133","133","","","","","","null","stimuli/bleep.m4a","null","red","blue","[""red"",""blue"",""high nameability""]","right-left","[""blue"",""red""]","2","high nameability","11","right","audio_feedback","1"
"html-button-response","68","321660","0.0-53.0","CKN_133","133","","","","","","null","<button class=""jspsych-btn""><img src=""stimuli/white_square.png"" style=""width: 200px;height: 200px;""></button>","null","red","blue","[""red"",""blue"",""high nameability""]","right-left","[""blue"",""red""]","2","high nameability","11","right","iti",""
"html-button-response","69","322647","0.0-54.0","CKN_133","133","","","","","","973","","0","turquoise","neonyellow","[""turquoise"",""neonyellow"",""low nameability""]","right-left","[""neonyellow"",""turquoise""]","2","low nameability","12","right","trigger",""
"html-button-response","70","324690","0.0-55.0-0.0","CKN_133","133","","","","","","2035","<button class=""jspsych-btn""><img src=""stimuli/turquoise.png"" style=""width: 200px;height: 200px;""></button>","1","turquoise","neonyellow","[""turquoise"",""neonyellow"",""low nameability""]","right-left","[""neonyellow"",""turquoise""]","2","low nameability","12","right","response","1"
"html-audio-button-response","71","324896","0.0-55.0-1.0","CKN_133","133","","","","","","null","stimuli/bleep.m4a","null","turquoise","neonyellow","[""turquoise"",""neonyellow"",""low nameability""]","right-left","[""neonyellow"",""turquoise""]","2","low nameability","12","right","audio_feedback","1"
"html-button-response","72","325413","0.0-56.0","CKN_133","133","","","","","","null","<button class=""jspsych-btn""><img src=""stimuli/white_square.png"" style=""width: 200px;height: 200px;""></button>","null","turquoise","neonyellow","[""turquoise"",""neonyellow"",""low nameability""]","right-left","[""neonyellow"",""turquoise""]","2","low nameability","12","right","iti",""
"html-button-response","73","326287","0.0-57.0","CKN_133","133","","","","","","861","","0","yellow","orange","[""yellow"",""orange"",""high nameability""]","left-right","[""yellow"",""orange"",""high nameability""]","2","high nameability","13","left","trigger",""
"html-button-response","74","329434","0.0-58.0-0.0","CKN_133","133","","","","","","3134","<button class=""jspsych-btn""><img src=""stimuli/yellow.png"" style=""width: 200px;height: 200px;""></button>","0","yellow","orange","[""yellow"",""orange"",""high nameability""]","left-right","[""yellow"",""orange"",""high nameability""]","2","high nameability","13","left","response","1"
"html-audio-button-response","75","329647","0.0-58.0-1.0","CKN_133","133","","","","","","null","stimuli/bleep.m4a","null","yellow","orange","[""yellow"",""orange"",""high nameability""]","left-right","[""yellow"",""orange"",""high nameability""]","2","high nameability","13","left","audio_feedback","1"
"html-button-response","76","330173","0.0-59.0","CKN_133","133","","","","","","null","<button class=""jspsych-btn""><img src=""stimuli/white_square.png"" style=""width: 200px;height: 200px;""></button>","null","yellow","orange","[""yellow"",""orange"",""high nameability""]","left-right","[""yellow"",""orange"",""high nameability""]","2","high nameability","13","left","iti",""
"html-button-response","77","332076","0.0-60.0","CKN_133","133","","","","","","1889","","0","pink","lightred","[""pink"",""lightred"",""low nameability""]","right-left","[""lightred"",""pink""]","2","low nameability","14","right","trigger",""
"html-button-response","78","333666","0.0-61.0-0.0","CKN_133","133","","","","","","1570","<button class=""jspsych-btn""><img src=""stimuli/pink.png"" style=""width: 200px;height: 200px;""></button>","1","pink","lightred","[""pink"",""lightred"",""low nameability""]","right-left","[""lightred"",""pink""]","2","low nameability","14","right","response","1"
"html-audio-button-response","79","333881","0.0-61.0-1.0","CKN_133","133","","","","","","null","stimuli/bleep.m4a","null","pink","lightred","[""pink"",""lightred"",""low nameability""]","right-left","[""lightred"",""pink""]","2","low nameability","14","right","audio_feedback","1"
"html-button-response","80","334405","0.0-62.0","CKN_133","133","","","","","","null","<button class=""jspsych-btn""><img src=""stimuli/white_square.png"" style=""width: 200px;height: 200px;""></button>","null","pink","lightred","[""pink"",""lightred"",""low nameability""]","right-left","[""lightred"",""pink""]","2","low nameability","14","right","iti",""
"html-button-response","81","335145","0.0-63.0","CKN_133","133","","","","","","706","","0","orange","yellow","[""orange"",""yellow"",""high nameability""]","left-right","[""orange"",""yellow"",""high nameability""]","2","high nameability","15","left","trigger",""
"html-button-response","82","336341","0.0-64.0-0.0","CKN_133","133","","","","","","1176","<button class=""jspsych-btn""><img src=""stimuli/orange.png"" style=""width: 200px;height: 200px;""></button>","0","orange","yellow","[""orange"",""yellow"",""high nameability""]","left-right","[""orange"",""yellow"",""high nameability""]","2","high nameability","15","left","response","1"
"html-audio-button-response","83","336566","0.0-64.0-1.0","CKN_133","133","","","","","","null","stimuli/bleep.m4a","null","orange","yellow","[""orange"",""yellow"",""high nameability""]","left-right","[""orange"",""yellow"",""high nameability""]","2","high nameability","15","left","audio_feedback","1"
"html-button-response","84","337101","0.0-65.0","CKN_133","133","","","","","","null","<button class=""jspsych-btn""><img src=""stimuli/white_square.png"" style=""width: 200px;height: 200px;""></button>","null","orange","yellow","[""orange"",""yellow"",""high nameability""]","left-right","[""orange"",""yellow"",""high nameability""]","2","high nameability","15","left","iti",""
"html-button-response","85","337997","0.0-66.0","CKN_133","133","","","","","","864","","0","pink","mustard","[""pink"",""mustard"",""low nameability""]","right-left","[""mustard"",""pink""]","2","low nameability","16","right","trigger",""
"html-button-response","86","339002","0.0-67.0-0.0","CKN_133","133","","","","","","990","<button class=""jspsych-btn""><img src=""stimuli/pink.png"" style=""width: 200px;height: 200px;""></button>","1","pink","mustard","[""pink"",""mustard"",""low nameability""]","right-left","[""mustard"",""pink""]","2","low nameability","16","right","response","1"
"html-audio-button-response","87","339216","0.0-67.0-1.0","CKN_133","133","","","","","","null","stimuli/bleep.m4a","null","pink","mustard","[""pink"",""mustard"",""low nameability""]","right-left","[""mustard"",""pink""]","2","low nameability","16","right","audio_feedback","1"
"html-button-response","88","339745","0.0-68.0","CKN_133","133","","","","","","null","<button class=""jspsych-btn""><img src=""stimuli/white_square.png"" style=""width: 200px;height: 200px;""></button>","null","pink","mustard","[""pink"",""mustard"",""low nameability""]","right-left","[""mustard"",""pink""]","2","low nameability","16","right","iti",""
"html-button-response","89","341484","0.0-69.0","CKN_133","133","","","","","","1724","","0","neonyellow","darkgreenblue","[""neonyellow"",""darkgreenblue"",""low nameability""]","left-right","[""neonyellow"",""darkgreenblue"",""low nameability""]","2","low nameability","17","left","trigger",""
"html-button-response","90","343340","0.0-70.0-0.0","CKN_133","133","","","","","","1847","<button class=""jspsych-btn""><img src=""stimuli/neonyellow.png"" style=""width: 200px;height: 200px;""></button>","0","neonyellow","darkgreenblue","[""neonyellow"",""darkgreenblue"",""low nameability""]","left-right","[""neonyellow"",""darkgreenblue"",""low nameability""]","2","low nameability","17","left","response","1"
"html-audio-button-response","91","343558","0.0-70.0-1.0","CKN_133","133","","","","","","null","stimuli/bleep.m4a","null","neonyellow","darkgreenblue","[""neonyellow"",""darkgreenblue"",""low nameability""]","left-right","[""neonyellow"",""darkgreenblue"",""low nameability""]","2","low nameability","17","left","audio_feedback","1"
"html-button-response","92","344106","0.0-71.0","CKN_133","133","","","","","","null","<button class=""jspsych-btn""><img src=""stimuli/white_square.png"" style=""width: 200px;height: 200px;""></button>","null","neonyellow","darkgreenblue","[""neonyellow"",""darkgreenblue"",""low nameability""]","left-right","[""neonyellow"",""darkgreenblue"",""low nameability""]","2","low nameability","17","left","iti",""
"html-button-response","93","345092","0.0-72.0","CKN_133","133","","","","","","957","","0","neonyellow","pink","[""neonyellow"",""pink"",""low nameability""]","right-left","[""pink"",""neonyellow""]","2","low nameability","18","right","trigger",""
"html-button-response","94","347053","0.0-73.0-0.0","CKN_133","133","","","","","","1953","<button class=""jspsych-btn""><img src=""stimuli/neonyellow.png"" style=""width: 200px;height: 200px;""></button>","1","neonyellow","pink","[""neonyellow"",""pink"",""low nameability""]","right-left","[""pink"",""neonyellow""]","2","low nameability","18","right","response","1"
"html-audio-button-response","95","347263","0.0-73.0-1.0","CKN_133","133","","","","","","null","stimuli/bleep.m4a","null","neonyellow","pink","[""neonyellow"",""pink"",""low nameability""]","right-left","[""pink"",""neonyellow""]","2","low nameability","18","right","audio_feedback","1"
"html-button-response","96","347785","0.0-74.0","CKN_133","133","","","","","","null","<button class=""jspsych-btn""><img src=""stimuli/white_square.png"" style=""width: 200px;height: 200px;""></button>","null","neonyellow","pink","[""neonyellow"",""pink"",""low nameability""]","right-left","[""pink"",""neonyellow""]","2","low nameability","18","right","iti",""
"html-button-response","97","349183","0.0-75.0","CKN_133","133","","","","","","1381","","0","neonyellow","turquoise","[""neonyellow"",""turquoise"",""low nameability""]","left-right","[""neonyellow"",""turquoise"",""low nameability""]","2","low nameability","19","left","trigger",""
"html-button-response","98","350978","0.0-76.0-0.0","CKN_133","133","","","","","","1784","<button class=""jspsych-btn""><img src=""stimuli/neonyellow.png"" style=""width: 200px;height: 200px;""></button>","0","neonyellow","turquoise","[""neonyellow"",""turquoise"",""low nameability""]","left-right","[""neonyellow"",""turquoise"",""low nameability""]","2","low nameability","19","left","response","1"
"html-audio-button-response","99","351183","0.0-76.0-1.0","CKN_133","133","","","","","","null","stimuli/bleep.m4a","null","neonyellow","turquoise","[""neonyellow"",""turquoise"",""low nameability""]","left-right","[""neonyellow"",""turquoise"",""low nameability""]","2","low nameability","19","left","audio_feedback","1"
"html-button-response","100","351703","0.0-77.0","CKN_133","133","","","","","","null","<button class=""jspsych-btn""><img src=""stimuli/white_square.png"" style=""width: 200px;height: 200px;""></button>","null","neonyellow","turquoise","[""neonyellow"",""turquoise"",""low nameability""]","left-right","[""neonyellow"",""turquoise"",""low nameability""]","2","low nameability","19","left","iti",""
"html-button-response","101","352877","0.0-78.0","CKN_133","133","","","","","","1156","","0","blue","purple","[""blue"",""purple"",""high nameability""]","right-left","[""purple"",""blue""]","2","high nameability","20","right","trigger",""
"html-button-response","102","354378","0.0-79.0-0.0","CKN_133","133","","","","","","1490","<button class=""jspsych-btn""><img src=""stimuli/blue.png"" style=""width: 200px;height: 200px;""></button>","1","blue","purple","[""blue"",""purple"",""high nameability""]","right-left","[""purple"",""blue""]","2","high nameability","20","right","response","1"
"html-audio-button-response","103","354592","0.0-79.0-1.0","CKN_133","133","","","","","","null","stimuli/bleep.m4a","null","blue","purple","[""blue"",""purple"",""high nameability""]","right-left","[""purple"",""blue""]","2","high nameability","20","right","audio_feedback","1"
"html-button-response","104","355109","0.0-80.0","CKN_133","133","","","","","","null","<button class=""jspsych-btn""><img src=""stimuli/white_square.png"" style=""width: 200px;height: 200px;""></button>","null","blue","purple","[""blue"",""purple"",""high nameability""]","right-left","[""purple"",""blue""]","2","high nameability","20","right","iti",""
"pavlovia","105","355209","0.0-81.0","CKN_133","133","","","","","","","","","","","","","","","","","","",""
"pavlovia","106","355224","0.0-82.0","CKN_133","133","","","","","","","","","","","","","","","","","","",""
"html-audio-button-response","107","360221","0.0-83.0","CKN_133","133","","","","","","5115","stimuli/tada.m4a","0","","","","","","","","","","",""
"html-button-response","108","360757","0.0-84.0","CKN_133","133","","","","","","531","","0","","","","","","","","","","",""
"html-button-response","109","361806","0.0-85.0","CKN_133","133","","","","","","1044","","0","purple","blue","[""purple"",""blue"",""high nameability""]","right-left","[""blue"",""purple""]","3","high nameability","21","right","trigger",""
"html-button-response","110","363073","0.0-86.0-0.0","CKN_133","133","","","","","","1257","<button class=""jspsych-btn""><img src=""stimuli/purple.png"" style=""width: 200px;height: 200px;""></button>","1","purple","blue","[""purple"",""blue"",""high nameability""]","right-left","[""blue"",""purple""]","3","high nameability","21","right","response","1"
"html-audio-button-response","111","363278","0.0-86.0-1.0","CKN_133","133","","","","","","null","stimuli/bleep.m4a","null","purple","blue","[""purple"",""blue"",""high nameability""]","right-left","[""blue"",""purple""]","3","high nameability","21","right","audio_feedback","1"
"html-button-response","112","363792","0.0-87.0","CKN_133","133","","","","","","null","<button class=""jspsych-btn""><img src=""stimuli/white_square.png"" style=""width: 200px;height: 200px;""></button>","null","purple","blue","[""purple"",""blue"",""high nameability""]","right-left","[""blue"",""purple""]","3","high nameability","21","right","iti",""
"html-button-response","113","364595","0.0-88.0","CKN_133","133","","","","","","775","","0","mustard","pink","[""mustard"",""pink"",""low nameability""]","right-left","[""pink"",""mustard""]","3","low nameability","22","right","trigger",""
"html-button-response","114","365876","0.0-89.0-0.0","CKN_133","133","","","","","","1270","<button class=""jspsych-btn""><img src=""stimuli/mustard.png"" style=""width: 200px;height: 200px;""></button>","1","mustard","pink","[""mustard"",""pink"",""low nameability""]","right-left","[""pink"",""mustard""]","3","low nameability","22","right","response","1"
"html-audio-button-response","115","366086","0.0-89.0-1.0","CKN_133","133","","","","","","null","stimuli/bleep.m4a","null","mustard","pink","[""mustard"",""pink"",""low nameability""]","right-left","[""pink"",""mustard""]","3","low nameability","22","right","audio_feedback","1"
"html-button-response","116","366607","0.0-90.0","CKN_133","133","","","","","","null","<button class=""jspsych-btn""><img src=""stimuli/white_square.png"" style=""width: 200px;height: 200px;""></button>","null","mustard","pink","[""mustard"",""pink"",""low nameability""]","right-left","[""pink"",""mustard""]","3","low nameability","22","right","iti",""
"html-button-response","117","369693","0.0-91.0","CKN_133","133","","","","","","3071","","0","pink","darkgreenblue","[""pink"",""darkgreenblue"",""low nameability""]","right-left","[""darkgreenblue"",""pink""]","3","low nameability","23","right","trigger",""
"html-button-response","118","372079","0.0-92.0-0.0","CKN_133","133","","","","","","2378","<button class=""jspsych-btn""><img src=""stimuli/pink.png"" style=""width: 200px;height: 200px;""></button>","1","pink","darkgreenblue","[""pink"",""darkgreenblue"",""low nameability""]","right-left","[""darkgreenblue"",""pink""]","3","low nameability","23","right","response","1"
"html-audio-button-response","119","372294","0.0-92.0-1.0","CKN_133","133","","","","","","null","stimuli/bleep.m4a","null","pink","darkgreenblue","[""pink"",""darkgreenblue"",""low nameability""]","right-left","[""darkgreenblue"",""pink""]","3","low nameability","23","right","audio_feedback","1"
"html-button-response","120","372808","0.0-93.0","CKN_133","133","","","","","","null","<button class=""jspsych-btn""><img src=""stimuli/white_square.png"" style=""width: 200px;height: 200px;""></button>","null","pink","darkgreenblue","[""pink"",""darkgreenblue"",""low nameability""]","right-left","[""darkgreenblue"",""pink""]","3","low nameability","23","right","iti",""
"html-button-response","121","373566","0.0-94.0","CKN_133","133","","","","","","742","","0","turquoise","lightred","[""turquoise"",""lightred"",""low nameability""]","left-right","[""turquoise"",""lightred"",""low nameability""]","3","low nameability","24","left","trigger",""
"html-button-response","122","375187","0.0-95.0-0.0","CKN_133","133","","","","","","1611","<button class=""jspsych-btn""><img src=""stimuli/turquoise.png"" style=""width: 200px;height: 200px;""></button>","0","turquoise","lightred","[""turquoise"",""lightred"",""low nameability""]","left-right","[""turquoise"",""lightred"",""low nameability""]","3","low nameability","24","left","response","1"
"html-audio-button-response","123","375399","0.0-95.0-1.0","CKN_133","133","","","","","","null","stimuli/bleep.m4a","null","turquoise","lightred","[""turquoise"",""lightred"",""low nameability""]","left-right","[""turquoise"",""lightred"",""low nameability""]","3","low nameability","24","left","audio_feedback","1"
"html-button-response","124","375910","0.0-96.0","CKN_133","133","","","","","","null","<button class=""jspsych-btn""><img src=""stimuli/white_square.png"" style=""width: 200px;height: 200px;""></button>","null","turquoise","lightred","[""turquoise"",""lightred"",""low nameability""]","left-right","[""turquoise"",""lightred"",""low nameability""]","3","low nameability","24","left","iti",""
"html-button-response","125","376871","0.0-97.0","CKN_133","133","","","","","","949","","0","mustard","neonyellow","[""mustard"",""neonyellow"",""low nameability""]","left-right","[""mustard"",""neonyellow"",""low nameability""]","3","low nameability","25","left","trigger",""
"html-button-response","126","377938","0.0-98.0-0.0","CKN_133","133","","","","","","1055","<button class=""jspsych-btn""><img src=""stimuli/mustard.png"" style=""width: 200px;height: 200px;""></button>","0","mustard","neonyellow","[""mustard"",""neonyellow"",""low nameability""]","left-right","[""mustard"",""neonyellow"",""low nameability""]","3","low nameability","25","left","response","1"
"html-audio-button-response","127","378152","0.0-98.0-1.0","CKN_133","133","","","","","","null","stimuli/bleep.m4a","null","mustard","neonyellow","[""mustard"",""neonyellow"",""low nameability""]","left-right","[""mustard"",""neonyellow"",""low nameability""]","3","low nameability","25","left","audio_feedback","1"
"html-button-response","128","378670","0.0-99.0","CKN_133","133","","","","","","null","<button class=""jspsych-btn""><img src=""stimuli/white_square.png"" style=""width: 200px;height: 200px;""></button>","null","mustard","neonyellow","[""mustard"",""neonyellow"",""low nameability""]","left-right","[""mustard"",""neonyellow"",""low nameability""]","3","low nameability","25","left","iti",""
"html-button-response","129","379489","0.0-100.0","CKN_133","133","","","","","","806","","0","purple","brown","[""purple"",""brown"",""high nameability""]","right-left","[""brown"",""purple""]","3","high nameability","26","right","trigger",""
"html-button-response","130","380864","0.0-101.0-0.0","CKN_133","133","","","","","","1364","<button class=""jspsych-btn""><img src=""stimuli/purple.png"" style=""width: 200px;height: 200px;""></button>","1","purple","brown","[""purple"",""brown"",""high nameability""]","right-left","[""brown"",""purple""]","3","high nameability","26","right","response","1"
"html-audio-button-response","131","381071","0.0-101.0-1.0","CKN_133","133","","","","","","null","stimuli/bleep.m4a","null","purple","brown","[""purple"",""brown"",""high nameability""]","right-left","[""brown"",""purple""]","3","high nameability","26","right","audio_feedback","1"
"html-button-response","132","381589","0.0-102.0","CKN_133","133","","","","","","null","<button class=""jspsych-btn""><img src=""stimuli/white_square.png"" style=""width: 200px;height: 200px;""></button>","null","purple","brown","[""purple"",""brown"",""high nameability""]","right-left","[""brown"",""purple""]","3","high nameability","26","right","iti",""
"html-button-response","133","382541","0.0-103.0","CKN_133","133","","","","","","940","","0","yellow","brown","[""yellow"",""brown"",""high nameability""]","left-right","[""yellow"",""brown"",""high nameability""]","3","high nameability","27","left","trigger",""
"html-button-response","134","384952","0.0-104.0-0.0","CKN_133","133","","","","","","2403","<button class=""jspsych-btn""><img src=""stimuli/yellow.png"" style=""width: 200px;height: 200px;""></button>","0","yellow","brown","[""yellow"",""brown"",""high nameability""]","left-right","[""yellow"",""brown"",""high nameability""]","3","high nameability","27","left","response","1"
"html-audio-button-response","135","385159","0.0-104.0-1.0","CKN_133","133","","","","","","null","stimuli/bleep.m4a","null","yellow","brown","[""yellow"",""brown"",""high nameability""]","left-right","[""yellow"",""brown"",""high nameability""]","3","high nameability","27","left","audio_feedback","1"
"html-button-response","136","385673","0.0-105.0","CKN_133","133","","","","","","null","<button class=""jspsych-btn""><img src=""stimuli/white_square.png"" style=""width: 200px;height: 200px;""></button>","null","yellow","brown","[""yellow"",""brown"",""high nameability""]","left-right","[""yellow"",""brown"",""high nameability""]","3","high nameability","27","left","iti",""
"html-button-response","137","388130","0.0-106.0","CKN_133","133","","","","","","2445","","0","lightred","pink","[""lightred"",""pink"",""low nameability""]","right-left","[""pink"",""lightred""]","3","low nameability","28","right","trigger",""
"html-button-response","138","389322","0.0-107.0-0.0","CKN_133","133","","","","","","1183","<button class=""jspsych-btn""><img src=""stimuli/lightred.png"" style=""width: 200px;height: 200px;""></button>","1","lightred","pink","[""lightred"",""pink"",""low nameability""]","right-left","[""pink"",""lightred""]","3","low nameability","28","right","response","1"
"html-audio-button-response","139","389533","0.0-107.0-1.0","CKN_133","133","","","","","","null","stimuli/bleep.m4a","null","lightred","pink","[""lightred"",""pink"",""low nameability""]","right-left","[""pink"",""lightred""]","3","low nameability","28","right","audio_feedback","1"
"html-button-response","140","390044","0.0-108.0","CKN_133","133","","","","","","null","<button class=""jspsych-btn""><img src=""stimuli/white_square.png"" style=""width: 200px;height: 200px;""></button>","null","lightred","pink","[""lightred"",""pink"",""low nameability""]","right-left","[""pink"",""lightred""]","3","low nameability","28","right","iti",""
"html-button-response","141","392226","0.0-109.0","CKN_133","133","","","","","","2168","","0","lightred","darkgreenblue","[""lightred"",""darkgreenblue"",""low nameability""]","left-right","[""lightred"",""darkgreenblue"",""low nameability""]","3","low nameability","29","left","trigger",""
"html-button-response","142","393437","0.0-110.0-0.0","CKN_133","133","","","","","","1195","<button class=""jspsych-btn""><img src=""stimuli/lightred.png"" style=""width: 200px;height: 200px;""></button>","0","lightred","darkgreenblue","[""lightred"",""darkgreenblue"",""low nameability""]","left-right","[""lightred"",""darkgreenblue"",""low nameability""]","3","low nameability","29","left","response","1"
"html-audio-button-response","143","393656","0.0-110.0-1.0","CKN_133","133","","","","","","null","stimuli/bleep.m4a","null","lightred","darkgreenblue","[""lightred"",""darkgreenblue"",""low nameability""]","left-right","[""lightred"",""darkgreenblue"",""low nameability""]","3","low nameability","29","left","audio_feedback","1"
"html-button-response","144","394182","0.0-111.0","CKN_133","133","","","","","","null","<button class=""jspsych-btn""><img src=""stimuli/white_square.png"" style=""width: 200px;height: 200px;""></button>","null","lightred","darkgreenblue","[""lightred"",""darkgreenblue"",""low nameability""]","left-right","[""lightred"",""darkgreenblue"",""low nameability""]","3","low nameability","29","left","iti",""
"html-button-response","145","395273","0.0-112.0","CKN_133","133","","","","","","1077","","0","turquoise","mustard","[""turquoise"",""mustard"",""low nameability""]","right-left","[""mustard"",""turquoise""]","3","low nameability","30","right","trigger",""
"html-button-response","146","396653","0.0-113.0-0.0","CKN_133","133","","","","","","1363","<button class=""jspsych-btn""><img src=""stimuli/turquoise.png"" style=""width: 200px;height: 200px;""></button>","1","turquoise","mustard","[""turquoise"",""mustard"",""low nameability""]","right-left","[""mustard"",""turquoise""]","3","low nameability","30","right","response","1"
"html-audio-button-response","147","396882","0.0-113.0-1.0","CKN_133","133","","","","","","null","stimuli/bleep.m4a","null","turquoise","mustard","[""turquoise"",""mustard"",""low nameability""]","right-left","[""mustard"",""turquoise""]","3","low nameability","30","right","audio_feedback","1"
"html-button-response","148","397430","0.0-114.0","CKN_133","133","","","","","","null","<button class=""jspsych-btn""><img src=""stimuli/white_square.png"" style=""width: 200px;height: 200px;""></button>","null","turquoise","mustard","[""turquoise"",""mustard"",""low nameability""]","right-left","[""mustard"",""turquoise""]","3","low nameability","30","right","iti",""
"pavlovia","149","397543","0.0-115.0","CKN_133","133","","","","","","","","","","","","","","","","","","",""
"pavlovia","150","397562","0.0-116.0","CKN_133","133","","","","","","","","","","","","","","","","","","",""
"html-audio-button-response","151","402315","0.0-117.0","CKN_133","133","","","","","","4883","stimuli/tada.m4a","0","","","","","","","","","","",""
"html-button-response","152","402843","0.0-118.0","CKN_133","133","","","","","","519","","0","","","","","","","","","","",""
"html-button-response","153","403932","0.0-119.0","CKN_133","133","","","","","","1074","","0","darkgreenblue","neonyellow","[""darkgreenblue"",""neonyellow"",""low nameability""]","left-right","[""darkgreenblue"",""neonyellow"",""low nameability""]","4","low nameability","31","left","trigger",""
"html-button-response","154","405250","0.0-120.0-0.0","CKN_133","133","","","","","","1304","<button class=""jspsych-btn""><img src=""stimuli/darkgreenblue.png"" style=""width: 200px;height: 200px;""></button>","0","darkgreenblue","neonyellow","[""darkgreenblue"",""neonyellow"",""low nameability""]","left-right","[""darkgreenblue"",""neonyellow"",""low nameability""]","4","low nameability","31","left","response","1"
"html-audio-button-response","155","405469","0.0-120.0-1.0","CKN_133","133","","","","","","null","stimuli/bleep.m4a","null","darkgreenblue","neonyellow","[""darkgreenblue"",""neonyellow"",""low nameability""]","left-right","[""darkgreenblue"",""neonyellow"",""low nameability""]","4","low nameability","31","left","audio_feedback","1"
"html-button-response","156","405987","0.0-121.0","CKN_133","133","","","","","","null","<button class=""jspsych-btn""><img src=""stimuli/white_square.png"" style=""width: 200px;height: 200px;""></button>","null","darkgreenblue","neonyellow","[""darkgreenblue"",""neonyellow"",""low nameability""]","left-right","[""darkgreenblue"",""neonyellow"",""low nameability""]","4","low nameability","31","left","iti",""
"html-button-response","157","406871","0.0-122.0","CKN_133","133","","","","","","865","","0","darkgreenblue","lightred","[""darkgreenblue"",""lightred"",""low nameability""]","left-right","[""darkgreenblue"",""lightred"",""low nameability""]","4","low nameability","32","left","trigger",""
"html-button-response","158","409001","0.0-123.0-0.0","CKN_133","133","","","","","","2115","<button class=""jspsych-btn""><img src=""stimuli/darkgreenblue.png"" style=""width: 200px;height: 200px;""></button>","0","darkgreenblue","lightred","[""darkgreenblue"",""lightred"",""low nameability""]","left-right","[""darkgreenblue"",""lightred"",""low nameability""]","4","low nameability","32","left","response","1"
"html-audio-button-response","159","409221","0.0-123.0-1.0","CKN_133","133","","","","","","null","stimuli/bleep.m4a","null","darkgreenblue","lightred","[""darkgreenblue"",""lightred"",""low nameability""]","left-right","[""darkgreenblue"",""lightred"",""low nameability""]","4","low nameability","32","left","audio_feedback","1"
"html-button-response","160","409755","0.0-124.0","CKN_133","133","","","","","","null","<button class=""jspsych-btn""><img src=""stimuli/white_square.png"" style=""width: 200px;height: 200px;""></button>","null","darkgreenblue","lightred","[""darkgreenblue"",""lightred"",""low nameability""]","left-right","[""darkgreenblue"",""lightred"",""low nameability""]","4","low nameability","32","left","iti",""
"html-button-response","161","412401","0.0-125.0","CKN_133","133","","","","","","2624","","0","purple","red","[""purple"",""red"",""high nameability""]","left-right","[""purple"",""red"",""high nameability""]","4","high nameability","33","left","trigger",""
"html-button-response","162","413449","0.0-126.0-0.0","CKN_133","133","","","","","","1033","<button class=""jspsych-btn""><img src=""stimuli/purple.png"" style=""width: 200px;height: 200px;""></button>","0","purple","red","[""purple"",""red"",""high nameability""]","left-right","[""purple"",""red"",""high nameability""]","4","high nameability","33","left","response","1"
"html-audio-button-response","163","413683","0.0-126.0-1.0","CKN_133","133","","","","","","null","stimuli/bleep.m4a","null","purple","red","[""purple"",""red"",""high nameability""]","left-right","[""purple"",""red"",""high nameability""]","4","high nameability","33","left","audio_feedback","1"
"html-button-response","164","414203","0.0-127.0","CKN_133","133","","","","","","null","<button class=""jspsych-btn""><img src=""stimuli/white_square.png"" style=""width: 200px;height: 200px;""></button>","null","purple","red","[""purple"",""red"",""high nameability""]","left-right","[""purple"",""red"",""high nameability""]","4","high nameability","33","left","iti",""
"html-button-response","165","416219","0.0-128.0","CKN_133","133","","","","","","1998","","0","brown","yellow","[""brown"",""yellow"",""high nameability""]","right-left","[""yellow"",""brown""]","4","high nameability","34","right","trigger",""
"html-button-response","166","417510","0.0-129.0-0.0","CKN_133","133","","","","","","1280","<button class=""jspsych-btn""><img src=""stimuli/brown.png"" style=""width: 200px;height: 200px;""></button>","1","brown","yellow","[""brown"",""yellow"",""high nameability""]","right-left","[""yellow"",""brown""]","4","high nameability","34","right","response","1"
"html-audio-button-response","167","417730","0.0-129.0-1.0","CKN_133","133","","","","","","null","stimuli/bleep.m4a","null","brown","yellow","[""brown"",""yellow"",""high nameability""]","right-left","[""yellow"",""brown""]","4","high nameability","34","right","audio_feedback","1"
"html-button-response","168","418275","0.0-130.0","CKN_133","133","","","","","","null","<button class=""jspsych-btn""><img src=""stimuli/white_square.png"" style=""width: 200px;height: 200px;""></button>","null","brown","yellow","[""brown"",""yellow"",""high nameability""]","right-left","[""yellow"",""brown""]","4","high nameability","34","right","iti",""
"html-button-response","169","420135","0.0-131.0","CKN_133","133","","","","","","1842","","0","blue","brown","[""blue"",""brown"",""high nameability""]","left-right","[""blue"",""brown"",""high nameability""]","4","high nameability","35","left","trigger",""
"html-button-response","170","421201","0.0-132.0-0.0","CKN_133","133","","","","","","1056","<button class=""jspsych-btn""><img src=""stimuli/blue.png"" style=""width: 200px;height: 200px;""></button>","0","blue","brown","[""blue"",""brown"",""high nameability""]","left-right","[""blue"",""brown"",""high nameability""]","4","high nameability","35","left","response","1"
"html-audio-button-response","171","421418","0.0-132.0-1.0","CKN_133","133","","","","","","null","stimuli/bleep.m4a","null","blue","brown","[""blue"",""brown"",""high nameability""]","left-right","[""blue"",""brown"",""high nameability""]","4","high nameability","35","left","audio_feedback","1"
"html-button-response","172","421944","0.0-133.0","CKN_133","133","","","","","","null","<button class=""jspsych-btn""><img src=""stimuli/white_square.png"" style=""width: 200px;height: 200px;""></button>","null","blue","brown","[""blue"",""brown"",""high nameability""]","left-right","[""blue"",""brown"",""high nameability""]","4","high nameability","35","left","iti",""
"html-button-response","173","422847","0.0-134.0","CKN_133","133","","","","","","891","","0","blue","yellow","[""blue"",""yellow"",""high nameability""]","right-left","[""yellow"",""blue""]","4","high nameability","36","right","trigger",""
"html-button-response","174","427298","0.0-135.0-0.0","CKN_133","133","","","","","","4441","<button class=""jspsych-btn""><img src=""stimuli/blue.png"" style=""width: 200px;height: 200px;""></button>","1","blue","yellow","[""blue"",""yellow"",""high nameability""]","right-left","[""yellow"",""blue""]","4","high nameability","36","right","response","1"
"html-audio-button-response","175","427519","0.0-135.0-1.0","CKN_133","133","","","","","","null","stimuli/bleep.m4a","null","blue","yellow","[""blue"",""yellow"",""high nameability""]","right-left","[""yellow"",""blue""]","4","high nameability","36","right","audio_feedback","1"
"html-button-response","176","428031","0.0-136.0","CKN_133","133","","","","","","79","<button class=""jspsych-btn""><img src=""stimuli/white_square.png"" style=""width: 200px;height: 200px;""></button>","1","blue","yellow","[""blue"",""yellow"",""high nameability""]","right-left","[""yellow"",""blue""]","4","high nameability","36","right","iti",""
"html-button-response","177","429324","0.0-137.0","CKN_133","133","","","","","","1283","","0","orange","purple","[""orange"",""purple"",""high nameability""]","right-left","[""purple"",""orange""]","4","high nameability","37","right","trigger",""
"html-button-response","178","432249","0.0-138.0-0.0","CKN_133","133","","","","","","2912","<button class=""jspsych-btn""><img src=""stimuli/orange.png"" style=""width: 200px;height: 200px;""></button>","1","orange","purple","[""orange"",""purple"",""high nameability""]","right-left","[""purple"",""orange""]","4","high nameability","37","right","response","1"
"html-audio-button-response","179","432455","0.0-138.0-1.0","CKN_133","133","","","","","","null","stimuli/bleep.m4a","null","orange","purple","[""orange"",""purple"",""high nameability""]","right-left","[""purple"",""orange""]","4","high nameability","37","right","audio_feedback","1"
"html-button-response","180","432994","0.0-139.0","CKN_133","133","","","","","","null","<button class=""jspsych-btn""><img src=""stimuli/white_square.png"" style=""width: 200px;height: 200px;""></button>","null","orange","purple","[""orange"",""purple"",""high nameability""]","right-left","[""purple"",""orange""]","4","high nameability","37","right","iti",""
"html-button-response","181","434018","0.0-140.0","CKN_133","133","","","","","","1002","","0","orange","red","[""orange"",""red"",""high nameability""]","left-right","[""orange"",""red"",""high nameability""]","4","high nameability","38","left","trigger",""
"html-button-response","182","435101","0.0-141.0-0.0","CKN_133","133","","","","","","1074","<button class=""jspsych-btn""><img src=""stimuli/orange.png"" style=""width: 200px;height: 200px;""></button>","0","orange","red","[""orange"",""red"",""high nameability""]","left-right","[""orange"",""red"",""high nameability""]","4","high nameability","38","left","response","1"
"html-audio-button-response","183","435327","0.0-141.0-1.0","CKN_133","133","","","","","","null","stimuli/bleep.m4a","null","orange","red","[""orange"",""red"",""high nameability""]","left-right","[""orange"",""red"",""high nameability""]","4","high nameability","38","left","audio_feedback","1"
"html-button-response","184","435841","0.0-142.0","CKN_133","133","","","","","","null","<button class=""jspsych-btn""><img src=""stimuli/white_square.png"" style=""width: 200px;height: 200px;""></button>","null","orange","red","[""orange"",""red"",""high nameability""]","left-right","[""orange"",""red"",""high nameability""]","4","high nameability","38","left","iti",""
"html-button-response","185","437502","0.0-143.0","CKN_133","133","","","","","","1649","","0","yellow","purple","[""yellow"",""purple"",""high nameability""]","left-right","[""yellow"",""purple"",""high nameability""]","4","high nameability","39","left","trigger",""
"html-button-response","186","439284","0.0-144.0-0.0","CKN_133","133","","","","","","1771","<button class=""jspsych-btn""><img src=""stimuli/yellow.png"" style=""width: 200px;height: 200px;""></button>","0","yellow","purple","[""yellow"",""purple"",""high nameability""]","left-right","[""yellow"",""purple"",""high nameability""]","4","high nameability","39","left","response","1"
"html-audio-button-response","187","439500","0.0-144.0-1.0","CKN_133","133","","","","","","null","stimuli/bleep.m4a","null","yellow","purple","[""yellow"",""purple"",""high nameability""]","left-right","[""yellow"",""purple"",""high nameability""]","4","high nameability","39","left","audio_feedback","1"
"html-button-response","188","440019","0.0-145.0","CKN_133","133","","","","","","null","<button class=""jspsych-btn""><img src=""stimuli/white_square.png"" style=""width: 200px;height: 200px;""></button>","null","yellow","purple","[""yellow"",""purple"",""high nameability""]","left-right","[""yellow"",""purple"",""high nameability""]","4","high nameability","39","left","iti",""
"html-button-response","189","441063","0.0-146.0","CKN_133","133","","","","","","1028","","0","pink","neonyellow","[""pink"",""neonyellow"",""low nameability""]","left-right","[""pink"",""neonyellow"",""low nameability""]","4","low nameability","40","left","trigger",""
"html-button-response","190","443293","0.0-147.0-0.0","CKN_133","133","","","","","","2220","<button class=""jspsych-btn""><img src=""stimuli/pink.png"" style=""width: 200px;height: 200px;""></button>","0","pink","neonyellow","[""pink"",""neonyellow"",""low nameability""]","left-right","[""pink"",""neonyellow"",""low nameability""]","4","low nameability","40","left","response","1"
"html-audio-button-response","191","443503","0.0-147.0-1.0","CKN_133","133","","","","","","null","stimuli/bleep.m4a","null","pink","neonyellow","[""pink"",""neonyellow"",""low nameability""]","left-right","[""pink"",""neonyellow"",""low nameability""]","4","low nameability","40","left","audio_feedback","1"
"html-button-response","192","444020","0.0-148.0","CKN_133","133","","","","","","null","<button class=""jspsych-btn""><img src=""stimuli/white_square.png"" style=""width: 200px;height: 200px;""></button>","null","pink","neonyellow","[""pink"",""neonyellow"",""low nameability""]","left-right","[""pink"",""neonyellow"",""low nameability""]","4","low nameability","40","left","iti",""
"pavlovia","193","444137","0.0-149.0","CKN_133","133","","","","","","","","","","","","","","","","","","",""
"pavlovia","194","444155","0.0-150.0","CKN_133","133","","","","","","","","","","","","","","","","","","",""
"html-audio-button-response","195","449587","0.0-151.0","CKN_133","133","","","","","","5568","stimuli/tada.m4a","0","","","","","","","","","","",""
"html-button-response","196","450113","0.0-152.0","CKN_133","133","","","","","","516","","0","","","","","","","","","","",""
"html-button-response","197","451126","0.0-153.0","CKN_133","133","","","","","","1007","","0","brown","purple","[""brown"",""purple"",""high nameability""]","left-right","[""brown"",""purple"",""high nameability""]","5","high nameability","41","left","trigger",""
"html-button-response","198","452041","0.0-154.0-0.0","CKN_133","133","","","","","","905","<button class=""jspsych-btn""><img src=""stimuli/brown.png"" style=""width: 200px;height: 200px;""></button>","0","brown","purple","[""brown"",""purple"",""high nameability""]","left-right","[""brown"",""purple"",""high nameability""]","5","high nameability","41","left","response","1"
"html-audio-button-response","199","452259","0.0-154.0-1.0","CKN_133","133","","","","","","null","stimuli/bleep.m4a","null","brown","purple","[""brown"",""purple"",""high nameability""]","left-right","[""brown"",""purple"",""high nameability""]","5","high nameability","41","left","audio_feedback","1"
"html-button-response","200","452789","0.0-155.0","CKN_133","133","","","","","","null","<button class=""jspsych-btn""><img src=""stimuli/white_square.png"" style=""width: 200px;height: 200px;""></button>","null","brown","purple","[""brown"",""purple"",""high nameability""]","left-right","[""brown"",""purple"",""high nameability""]","5","high nameability","41","left","iti",""
"html-button-response","201","453424","0.0-156.0","CKN_133","133","","","","","","623","","0","pink","turquoise","[""pink"",""turquoise"",""low nameability""]","left-right","[""pink"",""turquoise"",""low nameability""]","5","low nameability","42","left","trigger",""
"html-button-response","202","454329","0.0-157.0-0.0","CKN_133","133","","","","","","896","<button class=""jspsych-btn""><img src=""stimuli/pink.png"" style=""width: 200px;height: 200px;""></button>","0","pink","turquoise","[""pink"",""turquoise"",""low nameability""]","left-right","[""pink"",""turquoise"",""low nameability""]","5","low nameability","42","left","response","1"
"html-audio-button-response","203","454534","0.0-157.0-1.0","CKN_133","133","","","","","","null","stimuli/bleep.m4a","null","pink","turquoise","[""pink"",""turquoise"",""low nameability""]","left-right","[""pink"",""turquoise"",""low nameability""]","5","low nameability","42","left","audio_feedback","1"
"html-button-response","204","455053","0.0-158.0","CKN_133","133","","","","","","null","<button class=""jspsych-btn""><img src=""stimuli/white_square.png"" style=""width: 200px;height: 200px;""></button>","null","pink","turquoise","[""pink"",""turquoise"",""low nameability""]","left-right","[""pink"",""turquoise"",""low nameability""]","5","low nameability","42","left","iti",""
"html-button-response","205","455867","0.0-159.0","CKN_133","133","","","","","","802","","0","orange","blue","[""orange"",""blue"",""high nameability""]","right-left","[""blue"",""orange""]","5","high nameability","43","right","trigger",""
"html-button-response","206","456817","0.0-160.0-0.0","CKN_133","133","","","","","","940","<button class=""jspsych-btn""><img src=""stimuli/orange.png"" style=""width: 200px;height: 200px;""></button>","1","orange","blue","[""orange"",""blue"",""high nameability""]","right-left","[""blue"",""orange""]","5","high nameability","43","right","response","1"
"html-audio-button-response","207","457028","0.0-160.0-1.0","CKN_133","133","","","","","","null","stimuli/bleep.m4a","null","orange","blue","[""orange"",""blue"",""high nameability""]","right-left","[""blue"",""orange""]","5","high nameability","43","right","audio_feedback","1"
"html-button-response","208","457561","0.0-161.0","CKN_133","133","","","","","","null","<button class=""jspsych-btn""><img src=""stimuli/white_square.png"" style=""width: 200px;height: 200px;""></button>","null","orange","blue","[""orange"",""blue"",""high nameability""]","right-left","[""blue"",""orange""]","5","high nameability","43","right","iti",""
"html-button-response","209","458356","0.0-162.0","CKN_133","133","","","","","","780","","0","darkgreenblue","turquoise","[""darkgreenblue"",""turquoise"",""low nameability""]","right-left","[""turquoise"",""darkgreenblue""]","5","low nameability","44","right","trigger",""
"html-button-response","210","459796","0.0-163.0-0.0","CKN_133","133","","","","","","1434","<button class=""jspsych-btn""><img src=""stimuli/darkgreenblue.png"" style=""width: 200px;height: 200px;""></button>","1","darkgreenblue","turquoise","[""darkgreenblue"",""turquoise"",""low nameability""]","right-left","[""turquoise"",""darkgreenblue""]","5","low nameability","44","right","response","1"
"html-audio-button-response","211","460000","0.0-163.0-1.0","CKN_133","133","","","","","","null","stimuli/bleep.m4a","null","darkgreenblue","turquoise","[""darkgreenblue"",""turquoise"",""low nameability""]","right-left","[""turquoise"",""darkgreenblue""]","5","low nameability","44","right","audio_feedback","1"
"html-button-response","212","460526","0.0-164.0","CKN_133","133","","","","","","null","<button class=""jspsych-btn""><img src=""stimuli/white_square.png"" style=""width: 200px;height: 200px;""></button>","null","darkgreenblue","turquoise","[""darkgreenblue"",""turquoise"",""low nameability""]","right-left","[""turquoise"",""darkgreenblue""]","5","low nameability","44","right","iti",""
"html-button-response","213","461290","0.0-165.0","CKN_133","133","","","","","","746","","0","brown","blue","[""brown"",""blue"",""high nameability""]","left-right","[""brown"",""blue"",""high nameability""]","5","high nameability","45","left","trigger",""
"html-button-response","214","462633","0.0-166.0-0.0","CKN_133","133","","","","","","1321","<button class=""jspsych-btn""><img src=""stimuli/brown.png"" style=""width: 200px;height: 200px;""></button>","0","brown","blue","[""brown"",""blue"",""high nameability""]","left-right","[""brown"",""blue"",""high nameability""]","5","high nameability","45","left","response","1"
"html-audio-button-response","215","462855","0.0-166.0-1.0","CKN_133","133","","","","","","null","stimuli/bleep.m4a","null","brown","blue","[""brown"",""blue"",""high nameability""]","left-right","[""brown"",""blue"",""high nameability""]","5","high nameability","45","left","audio_feedback","1"
"html-button-response","216","463376","0.0-167.0","CKN_133","133","","","","","","null","<button class=""jspsych-btn""><img src=""stimuli/white_square.png"" style=""width: 200px;height: 200px;""></button>","null","brown","blue","[""brown"",""blue"",""high nameability""]","left-right","[""brown"",""blue"",""high nameability""]","5","high nameability","45","left","iti",""
"html-button-response","217","464149","0.0-168.0","CKN_133","133","","","","","","748","","0","turquoise","darkgreenblue","[""turquoise"",""darkgreenblue"",""low nameability""]","left-right","[""turquoise"",""darkgreenblue"",""low nameability""]","5","low nameability","46","left","trigger",""
"html-button-response","218","467916","0.0-169.0-0.0","CKN_133","133","","","","","","3750","<button class=""jspsych-btn""><img src=""stimuli/turquoise.png"" style=""width: 200px;height: 200px;""></button>","0","turquoise","darkgreenblue","[""turquoise"",""darkgreenblue"",""low nameability""]","left-right","[""turquoise"",""darkgreenblue"",""low nameability""]","5","low nameability","46","left","response","1"
"html-audio-button-response","219","468143","0.0-169.0-1.0","CKN_133","133","","","","","","null","stimuli/bleep.m4a","null","turquoise","darkgreenblue","[""turquoise"",""darkgreenblue"",""low nameability""]","left-right","[""turquoise"",""darkgreenblue"",""low nameability""]","5","low nameability","46","left","audio_feedback","1"
"html-button-response","220","468663","0.0-170.0","CKN_133","133","","","","","","null","<button class=""jspsych-btn""><img src=""stimuli/white_square.png"" style=""width: 200px;height: 200px;""></button>","null","turquoise","darkgreenblue","[""turquoise"",""darkgreenblue"",""low nameability""]","left-right","[""turquoise"",""darkgreenblue"",""low nameability""]","5","low nameability","46","left","iti",""
"html-button-response","221","469623","0.0-171.0","CKN_133","133","","","","","","930","","0","mustard","darkgreenblue","[""mustard"",""darkgreenblue"",""low nameability""]","right-left","[""darkgreenblue"",""mustard""]","5","low nameability","47","right","trigger",""
"html-button-response","222","470966","0.0-172.0-0.0","CKN_133","133","","","","","","1328","<button class=""jspsych-btn""><img src=""stimuli/mustard.png"" style=""width: 200px;height: 200px;""></button>","1","mustard","darkgreenblue","[""mustard"",""darkgreenblue"",""low nameability""]","right-left","[""darkgreenblue"",""mustard""]","5","low nameability","47","right","response","1"
"html-audio-button-response","223","471182","0.0-172.0-1.0","CKN_133","133","","","","","","null","stimuli/bleep.m4a","null","mustard","darkgreenblue","[""mustard"",""darkgreenblue"",""low nameability""]","right-left","[""darkgreenblue"",""mustard""]","5","low nameability","47","right","audio_feedback","1"
"html-button-response","224","471719","0.0-173.0","CKN_133","133","","","","","","null","<button class=""jspsych-btn""><img src=""stimuli/white_square.png"" style=""width: 200px;height: 200px;""></button>","null","mustard","darkgreenblue","[""mustard"",""darkgreenblue"",""low nameability""]","right-left","[""darkgreenblue"",""mustard""]","5","low nameability","47","right","iti",""
"html-button-response","225","472651","0.0-174.0","CKN_133","133","","","","","","914","","0","lightred","turquoise","[""lightred"",""turquoise"",""low nameability""]","right-left","[""turquoise"",""lightred""]","5","low nameability","48","right","trigger",""
"html-button-response","226","473704","0.0-175.0-0.0","CKN_133","133","","","","","","1043","<button class=""jspsych-btn""><img src=""stimuli/lightred.png"" style=""width: 200px;height: 200px;""></button>","1","lightred","turquoise","[""lightred"",""turquoise"",""low nameability""]","right-left","[""turquoise"",""lightred""]","5","low nameability","48","right","response","1"
"html-audio-button-response","227","473911","0.0-175.0-1.0","CKN_133","133","","","","","","null","stimuli/bleep.m4a","null","lightred","turquoise","[""lightred"",""turquoise"",""low nameability""]","right-left","[""turquoise"",""lightred""]","5","low nameability","48","right","audio_feedback","1"
"html-button-response","228","474438","0.0-176.0","CKN_133","133","","","","","","null","<button class=""jspsych-btn""><img src=""stimuli/white_square.png"" style=""width: 200px;height: 200px;""></button>","null","lightred","turquoise","[""lightred"",""turquoise"",""low nameability""]","right-left","[""turquoise"",""lightred""]","5","low nameability","48","right","iti",""
"html-button-response","229","475378","0.0-177.0","CKN_133","133","","","","","","903","","0","red","brown","[""red"",""brown"",""high nameability""]","right-left","[""brown"",""red""]","5","high nameability","49","right","trigger",""
"html-button-response","230","476313","0.0-178.0-0.0","CKN_133","133","","","","","","924","<button class=""jspsych-btn""><img src=""stimuli/red.png"" style=""width: 200px;height: 200px;""></button>","1","red","brown","[""red"",""brown"",""high nameability""]","right-left","[""brown"",""red""]","5","high nameability","49","right","response","1"
"html-audio-button-response","231","476520","0.0-178.0-1.0","CKN_133","133","","","","","","null","stimuli/bleep.m4a","null","red","brown","[""red"",""brown"",""high nameability""]","right-left","[""brown"",""red""]","5","high nameability","49","right","audio_feedback","1"
"html-button-response","232","477056","0.0-179.0","CKN_133","133","","","","","","null","<button class=""jspsych-btn""><img src=""stimuli/white_square.png"" style=""width: 200px;height: 200px;""></button>","null","red","brown","[""red"",""brown"",""high nameability""]","right-left","[""brown"",""red""]","5","high nameability","49","right","iti",""
"html-button-response","233","479609","0.0-180.0","CKN_133","133","","","","","","2540","","0","brown","red","[""brown"",""red"",""high nameability""]","right-left","[""red"",""brown""]","5","high nameability","50","right","trigger",""
"html-button-response","234","480960","0.0-181.0-0.0","CKN_133","133","","","","","","1344","<button class=""jspsych-btn""><img src=""stimuli/brown.png"" style=""width: 200px;height: 200px;""></button>","1","brown","red","[""brown"",""red"",""high nameability""]","right-left","[""red"",""brown""]","5","high nameability","50","right","response","1"
"html-audio-button-response","235","481168","0.0-181.0-1.0","CKN_133","133","","","","","","null","stimuli/bleep.m4a","null","brown","red","[""brown"",""red"",""high nameability""]","right-left","[""red"",""brown""]","5","high nameability","50","right","audio_feedback","1"
"html-button-response","236","481691","0.0-182.0","CKN_133","133","","","","","","null","<button class=""jspsych-btn""><img src=""stimuli/white_square.png"" style=""width: 200px;height: 200px;""></button>","null","brown","red","[""brown"",""red"",""high nameability""]","right-left","[""red"",""brown""]","5","high nameability","50","right","iti",""
"pavlovia","237","481781","0.0-183.0","CKN_133","133","","","","","","","","","","","","","","","","","","",""
"pavlovia","238","481798","0.0-184.0","CKN_133","133","","","","","","","","","","","","","","","","","","",""
"html-audio-button-response","239","487164","0.0-185.0","CKN_133","133","","","","","","5472","stimuli/tada.m4a","0","","","","","","","","","","",""
"html-button-response","240","488045","0.0-186.0","CKN_133","133","","","","","","874","","0","","","","","","","","","","",""
"html-button-response","241","489189","0.0-187.0","CKN_133","133","","","","","","1138","","0","lightred","neonyellow","[""lightred"",""neonyellow"",""low nameability""]","left-right","[""lightred"",""neonyellow"",""low nameability""]","6","low nameability","51","left","trigger",""
"html-button-response","242","490629","0.0-188.0-0.0","CKN_133","133","","","","","","1429","<button class=""jspsych-btn""><img src=""stimuli/lightred.png"" style=""width: 200px;height: 200px;""></button>","0","lightred","neonyellow","[""lightred"",""neonyellow"",""low nameability""]","left-right","[""lightred"",""neonyellow"",""low nameability""]","6","low nameability","51","left","response","1"
"html-audio-button-response","243","490847","0.0-188.0-1.0","CKN_133","133","","","","","","null","stimuli/bleep.m4a","null","lightred","neonyellow","[""lightred"",""neonyellow"",""low nameability""]","left-right","[""lightred"",""neonyellow"",""low nameability""]","6","low nameability","51","left","audio_feedback","1"
"html-button-response","244","491367","0.0-189.0","CKN_133","133","","","","","","null","<button class=""jspsych-btn""><img src=""stimuli/white_square.png"" style=""width: 200px;height: 200px;""></button>","null","lightred","neonyellow","[""lightred"",""neonyellow"",""low nameability""]","left-right","[""lightred"",""neonyellow"",""low nameability""]","6","low nameability","51","left","iti",""
"html-button-response","245","492113","0.0-190.0","CKN_133","133","","","","","","722","","0","neonyellow","mustard","[""neonyellow"",""mustard"",""low nameability""]","right-left","[""mustard"",""neonyellow""]","6","low nameability","52","right","trigger",""
"html-button-response","246","493093","0.0-191.0-0.0","CKN_133","133","","","","","","971","<button class=""jspsych-btn""><img src=""stimuli/neonyellow.png"" style=""width: 200px;height: 200px;""></button>","1","neonyellow","mustard","[""neonyellow"",""mustard"",""low nameability""]","right-left","[""mustard"",""neonyellow""]","6","low nameability","52","right","response","1"
"html-audio-button-response","247","493303","0.0-191.0-1.0","CKN_133","133","","","","","","null","stimuli/bleep.m4a","null","neonyellow","mustard","[""neonyellow"",""mustard"",""low nameability""]","right-left","[""mustard"",""neonyellow""]","6","low nameability","52","right","audio_feedback","1"
"html-button-response","248","493818","0.0-192.0","CKN_133","133","","","","","","null","<button class=""jspsych-btn""><img src=""stimuli/white_square.png"" style=""width: 200px;height: 200px;""></button>","null","neonyellow","mustard","[""neonyellow"",""mustard"",""low nameability""]","right-left","[""mustard"",""neonyellow""]","6","low nameability","52","right","iti",""
"html-button-response","249","494706","0.0-193.0","CKN_133","133","","","","","","864","","0","brown","orange","[""brown"",""orange"",""high nameability""]","right-left","[""orange"",""brown""]","6","high nameability","53","right","trigger",""
"html-button-response","250","495908","0.0-194.0-0.0","CKN_133","133","","","","","","1187","<button class=""jspsych-btn""><img src=""stimuli/brown.png"" style=""width: 200px;height: 200px;""></button>","1","brown","orange","[""brown"",""orange"",""high nameability""]","right-left","[""orange"",""brown""]","6","high nameability","53","right","response","1"
"html-audio-button-response","251","496118","0.0-194.0-1.0","CKN_133","133","","","","","","null","stimuli/bleep.m4a","null","brown","orange","[""brown"",""orange"",""high nameability""]","right-left","[""orange"",""brown""]","6","high nameability","53","right","audio_feedback","1"
"html-button-response","252","496628","0.0-195.0","CKN_133","133","","","","","","null","<button class=""jspsych-btn""><img src=""stimuli/white_square.png"" style=""width: 200px;height: 200px;""></button>","null","brown","orange","[""brown"",""orange"",""high nameability""]","right-left","[""orange"",""brown""]","6","high nameability","53","right","iti",""
"html-button-response","253","498469","0.0-196.0","CKN_133","133","","","","","","1827","","0","yellow","red","[""yellow"",""red"",""high nameability""]","right-left","[""red"",""yellow""]","6","high nameability","54","right","trigger",""
"html-button-response","254","500167","0.0-197.0-0.0","CKN_133","133","","","","","","1690","<button class=""jspsych-btn""><img src=""stimuli/yellow.png"" style=""width: 200px;height: 200px;""></button>","1","yellow","red","[""yellow"",""red"",""high nameability""]","right-left","[""red"",""yellow""]","6","high nameability","54","right","response","1"
"html-audio-button-response","255","500375","0.0-197.0-1.0","CKN_133","133","","","","","","null","stimuli/bleep.m4a","null","yellow","red","[""yellow"",""red"",""high nameability""]","right-left","[""red"",""yellow""]","6","high nameability","54","right","audio_feedback","1"
"html-button-response","256","500886","0.0-198.0","CKN_133","133","","","","","","null","<button class=""jspsych-btn""><img src=""stimuli/white_square.png"" style=""width: 200px;height: 200px;""></button>","null","yellow","red","[""yellow"",""red"",""high nameability""]","right-left","[""red"",""yellow""]","6","high nameability","54","right","iti",""
"html-button-response","257","501853","0.0-199.0","CKN_133","133","","","","","","949","","0","purple","orange","[""purple"",""orange"",""high nameability""]","left-right","[""purple"",""orange"",""high nameability""]","6","high nameability","55","left","trigger",""
"html-button-response","258","502865","0.0-200.0-0.0","CKN_133","133","","","","","","1004","<button class=""jspsych-btn""><img src=""stimuli/purple.png"" style=""width: 200px;height: 200px;""></button>","1","purple","orange","[""purple"",""orange"",""high nameability""]","left-right","[""purple"",""orange"",""high nameability""]","6","high nameability","55","left","response","0"
"html-audio-button-response","259","503490","0.0-200.0-1.0","CKN_133","133","","","","","","null","stimuli/boing.m4a","null","purple","orange","[""purple"",""orange"",""high nameability""]","left-right","[""purple"",""orange"",""high nameability""]","6","high nameability","55","left","audio_feedback","0"
"html-button-response","260","504207","0.0-200.1-0.1","CKN_133","133","","","","","","690","<button class=""jspsych-btn""><img src=""stimuli/purple.png"" style=""width: 200px;height: 200px;""></button>","0","purple","orange","[""purple"",""orange"",""high nameability""]","left-right","[""purple"",""orange"",""high nameability""]","6","high nameability","55","left","response","1"
"html-audio-button-response","261","504415","0.0-200.1-1.1","CKN_133","133","","","","","","null","stimuli/bleep.m4a","null","purple","orange","[""purple"",""orange"",""high nameability""]","left-right","[""purple"",""orange"",""high nameability""]","6","high nameability","55","left","audio_feedback","1"
"html-button-response","262","504932","0.0-201.0","CKN_133","133","","","","","","null","<button class=""jspsych-btn""><img src=""stimuli/white_square.png"" style=""width: 200px;height: 200px;""></button>","null","purple","orange","[""purple"",""orange"",""high nameability""]","left-right","[""purple"",""orange"",""high nameability""]","6","high nameability","55","left","iti",""
"html-button-response","263","505870","0.0-202.0","CKN_133","133","","","","","","923","","0","red","orange","[""red"",""orange"",""high nameability""]","right-left","[""orange"",""red""]","6","high nameability","56","right","trigger",""
"html-button-response","264","507322","0.0-203.0-0.0","CKN_133","133","","","","","","1441","<button class=""jspsych-btn""><img src=""stimuli/red.png"" style=""width: 200px;height: 200px;""></button>","1","red","orange","[""red"",""orange"",""high nameability""]","right-left","[""orange"",""red""]","6","high nameability","56","right","response","1"
"html-audio-button-response","265","507526","0.0-203.0-1.0","CKN_133","133","","","","","","null","stimuli/bleep.m4a","null","red","orange","[""red"",""orange"",""high nameability""]","right-left","[""orange"",""red""]","6","high nameability","56","right","audio_feedback","1"
"html-button-response","266","508032","0.0-204.0","CKN_133","133","","","","","","null","<button class=""jspsych-btn""><img src=""stimuli/white_square.png"" style=""width: 200px;height: 200px;""></button>","null","red","orange","[""red"",""orange"",""high nameability""]","right-left","[""orange"",""red""]","6","high nameability","56","right","iti",""
"html-button-response","267","510673","0.0-205.0","CKN_133","133","","","","","","2631","","0","turquoise","pink","[""turquoise"",""pink"",""low nameability""]","left-right","[""turquoise"",""pink"",""low nameability""]","6","low nameability","57","left","trigger",""
"html-button-response","268","512456","0.0-206.0-0.0","CKN_133","133","","","","","","1773","<button class=""jspsych-btn""><img src=""stimuli/turquoise.png"" style=""width: 200px;height: 200px;""></button>","0","turquoise","pink","[""turquoise"",""pink"",""low nameability""]","left-right","[""turquoise"",""pink"",""low nameability""]","6","low nameability","57","left","response","1"
"html-audio-button-response","269","512664","0.0-206.0-1.0","CKN_133","133","","","","","","null","stimuli/bleep.m4a","null","turquoise","pink","[""turquoise"",""pink"",""low nameability""]","left-right","[""turquoise"",""pink"",""low nameability""]","6","low nameability","57","left","audio_feedback","1"
"html-button-response","270","513184","0.0-207.0","CKN_133","133","","","","","","null","<button class=""jspsych-btn""><img src=""stimuli/white_square.png"" style=""width: 200px;height: 200px;""></button>","null","turquoise","pink","[""turquoise"",""pink"",""low nameability""]","left-right","[""turquoise"",""pink"",""low nameability""]","6","low nameability","57","left","iti",""
"html-button-response","271","514114","0.0-208.0","CKN_133","133","","","","","","920","","0","neonyellow","lightred","[""neonyellow"",""lightred"",""low nameability""]","right-left","[""lightred"",""neonyellow""]","6","low nameability","58","right","trigger",""
"html-button-response","272","515161","0.0-209.0-0.0","CKN_133","133","","","","","","1038","<button class=""jspsych-btn""><img src=""stimuli/neonyellow.png"" style=""width: 200px;height: 200px;""></button>","1","neonyellow","lightred","[""neonyellow"",""lightred"",""low nameability""]","right-left","[""lightred"",""neonyellow""]","6","low nameability","58","right","response","1"
"html-audio-button-response","273","515366","0.0-209.0-1.0","CKN_133","133","","","","","","null","stimuli/bleep.m4a","null","neonyellow","lightred","[""neonyellow"",""lightred"",""low nameability""]","right-left","[""lightred"",""neonyellow""]","6","low nameability","58","right","audio_feedback","1"
"html-button-response","274","515879","0.0-210.0","CKN_133","133","","","","","","null","<button class=""jspsych-btn""><img src=""stimuli/white_square.png"" style=""width: 200px;height: 200px;""></button>","null","neonyellow","lightred","[""neonyellow"",""lightred"",""low nameability""]","right-left","[""lightred"",""neonyellow""]","6","low nameability","58","right","iti",""
"html-button-response","275","516655","0.0-211.0","CKN_133","133","","","","","","760","","0","yellow","blue","[""yellow"",""blue"",""high nameability""]","right-left","[""blue"",""yellow""]","6","high nameability","59","right","trigger",""
"html-button-response","276","518715","0.0-212.0-0.0","CKN_133","133","","","","","","2051","<button class=""jspsych-btn""><img src=""stimuli/yellow.png"" style=""width: 200px;height: 200px;""></button>","1","yellow","blue","[""yellow"",""blue"",""high nameability""]","right-left","[""blue"",""yellow""]","6","high nameability","59","right","response","1"
"html-audio-button-response","277","518921","0.0-212.0-1.0","CKN_133","133","","","","","","null","stimuli/bleep.m4a","null","yellow","blue","[""yellow"",""blue"",""high nameability""]","right-left","[""blue"",""yellow""]","6","high nameability","59","right","audio_feedback","1"
"html-button-response","278","519442","0.0-213.0","CKN_133","133","","","","","","null","<button class=""jspsych-btn""><img src=""stimuli/white_square.png"" style=""width: 200px;height: 200px;""></button>","null","yellow","blue","[""yellow"",""blue"",""high nameability""]","right-left","[""blue"",""yellow""]","6","high nameability","59","right","iti",""
"html-button-response","279","521814","0.0-214.0","CKN_133","133","","","","","","2349","","0","orange","brown","[""orange"",""brown"",""high nameability""]","left-right","[""orange"",""brown"",""high nameability""]","6","high nameability","60","left","trigger",""
"html-button-response","280","524059","0.0-215.0-0.0","CKN_133","133","","","","","","2236","<button class=""jspsych-btn""><img src=""stimuli/orange.png"" style=""width: 200px;height: 200px;""></button>","0","orange","brown","[""orange"",""brown"",""high nameability""]","left-right","[""orange"",""brown"",""high nameability""]","6","high nameability","60","left","response","1"
"html-audio-button-response","281","524279","0.0-215.0-1.0","CKN_133","133","","","","","","null","stimuli/bleep.m4a","null","orange","brown","[""orange"",""brown"",""high nameability""]","left-right","[""orange"",""brown"",""high nameability""]","6","high nameability","60","left","audio_feedback","1"
"html-button-response","282","524788","0.0-216.0","CKN_133","133","","","","","","null","<button class=""jspsych-btn""><img src=""stimuli/white_square.png"" style=""width: 200px;height: 200px;""></button>","null","orange","brown","[""orange"",""brown"",""high nameability""]","left-right","[""orange"",""brown"",""high nameability""]","6","high nameability","60","left","iti",""
