"trial_type","trial_index","time_elapsed","internal_node_id","subject_id","seed","success","timeout","failed_images","failed_audio","failed_video","rt","stimulus","response","target","foil","choices","combination_order","choices_in_order","round","condition","trial_counter","target_location","trial_kind","correct"
"pavlovia","0","20","0.0-0.0","CKN_122","122","","","","","","","","","","","","","","","","","","",""
"preload","1","989","0.0-1.0","CKN_122","122","true","false","[]","[]","[]","","","","","","","","","","","","","",""
"fullscreen","2","2630","0.0-2.0","CKN_122","122","true","","","","","","","","","","","","","","","","","",""
"html-button-response","3","38096","0.0-3.0","CKN_122","122","","","","","","35451","","0","","","","","","","","","","",""
"html-button-response","4","48145","0.0-4.0","CKN_122","122","","","","","","10040","","0","star","square","[""square"",""star""]","left-right","[""square"",""star""]","1","practice","1","right","trigger",""
"html-button-response","5","54461","0.0-5.0-0.0","CKN_122","122","","","","","","6301","<button class=""jspsych-btn""><img src=""stimuli/star.png"" style=""width: 200px;height: 200px;""></button>","1","star","square","[""square"",""star""]","left-right","[""square"",""star""]","1","practice","1","right","response","1"
"html-audio-button-response","6","54682","0.0-5.0-1.0","CKN_122","122","","","","","","null","stimuli/bleep.m4a","null","star","square","[""square"",""star""]","left-right","[""square"",""star""]","1","practice","1","right","audio_feedback","1"
"html-button-response","7","55208","0.0-6.0","CKN_122","122","","","","","","null","<button class=""jspsych-btn""><img src=""stimuli/white_square.png"" style=""width: 200px;height: 200px;""></button>","null","star","square","[""square"",""star""]","left-right","[""square"",""star""]","1","practice","1","right","iti",""
"html-button-response","8","57446","0.0-7.0","CKN_122","122","","","","","","2215","","0","triangle","pentagram","[""triangle"",""pentagram""]","left-right","[""triangle"",""pentagram""]","1","practice","1","left","trigger",""
"html-button-response","9","67661","0.0-8.0-0.0","CKN_122","122","","","","","","10204","<button class=""jspsych-btn""><img src=""stimuli/triangle.png"" style=""width: 200px;height: 200px;""></button>","0","triangle","pentagram","[""triangle"",""pentagram""]","left-right","[""triangle"",""pentagram""]","1","practice","1","left","response","1"
"html-audio-button-response","10","67873","0.0-8.0-1.0","CKN_122","122","","","","","","null","stimuli/bleep.m4a","null","triangle","pentagram","[""triangle"",""pentagram""]","left-right","[""triangle"",""pentagram""]","1","practice","1","left","audio_feedback","1"
"html-button-response","11","68402","0.0-9.0","CKN_122","122","","","","","","null","<button class=""jspsych-btn""><img src=""stimuli/white_square.png"" style=""width: 200px;height: 200px;""></button>","null","triangle","pentagram","[""triangle"",""pentagram""]","left-right","[""triangle"",""pentagram""]","1","practice","1","left","iti",""
"html-button-response","12","69821","0.0-10.0","CKN_122","122","","","","","","1404","","0","diamond","rectangle","[""rectangle"",""diamond""]","left-right","[""rectangle"",""diamond""]","1","practice","1","right","trigger",""
"html-button-response","13","72507","0.0-11.0-0.0","CKN_122","122","","","","","","2679","<button class=""jspsych-btn""><img src=""stimuli/diamond.png"" style=""width: 200px;height: 200px;""></button>","1","diamond","rectangle","[""rectangle"",""diamond""]","left-right","[""rectangle"",""diamond""]","1","practice","1","right","response","1"
"html-audio-button-response","14","72711","0.0-11.0-1.0","CKN_122","122","","","","","","null","stimuli/bleep.m4a","null","diamond","rectangle","[""rectangle"",""diamond""]","left-right","[""rectangle"",""diamond""]","1","practice","1","right","audio_feedback","1"
"html-button-response","15","73233","0.0-12.0","CKN_122","122","","","","","","null","<button class=""jspsych-btn""><img src=""stimuli/white_square.png"" style=""width: 200px;height: 200px;""></button>","null","diamond","rectangle","[""rectangle"",""diamond""]","left-right","[""rectangle"",""diamond""]","1","practice","1","right","iti",""
"html-button-response","16","76142","0.0-13.0","CKN_122","122","","","","","","2894","","0","pentagram","star","[""pentagram"",""star""]","left-right","[""pentagram"",""star""]","1","practice","1","left","trigger",""
"html-button-response","17","79146","0.0-14.0-0.0","CKN_122","122","","","","","","2997","<button class=""jspsych-btn""><img src=""stimuli/pentagram.png"" style=""width: 200px;height: 200px;""></button>","0","pentagram","star","[""pentagram"",""star""]","left-right","[""pentagram"",""star""]","1","practice","1","left","response","1"
"html-audio-button-response","18","79352","0.0-14.0-1.0","CKN_122","122","","","","","","null","stimuli/bleep.m4a","null","pentagram","star","[""pentagram"",""star""]","left-right","[""pentagram"",""star""]","1","practice","1","left","audio_feedback","1"
"html-button-response","19","79882","0.0-15.0","CKN_122","122","","","","","","null","<button class=""jspsych-btn""><img src=""stimuli/white_square.png"" style=""width: 200px;height: 200px;""></button>","null","pentagram","star","[""pentagram"",""star""]","left-right","[""pentagram"",""star""]","1","practice","1","left","iti",""
"html-button-response","20","84306","0.0-16.0","CKN_122","122","","","","","","4414","","0","","","","","","","","","","",""
"html-button-response","21","86500","0.0-17.0","CKN_122","122","","","","","","2191","","0","turquoise","darkgreenblue","[""turquoise"",""darkgreenblue"",""low nameability""]","right-left","[""darkgreenblue"",""turquoise""]","1","low nameability","1","right","trigger",""
"html-button-response","22","92671","0.0-18.0-0.0","CKN_122","122","","","","","","6159","<button class=""jspsych-btn""><img src=""stimuli/turquoise.png"" style=""width: 200px;height: 200px;""></button>","1","turquoise","darkgreenblue","[""turquoise"",""darkgreenblue"",""low nameability""]","right-left","[""darkgreenblue"",""turquoise""]","1","low nameability","1","right","response","1"
"html-audio-button-response","23","92903","0.0-18.0-1.0","CKN_122","122","","","","","","null","stimuli/bleep.m4a","null","turquoise","darkgreenblue","[""turquoise"",""darkgreenblue"",""low nameability""]","right-left","[""darkgreenblue"",""turquoise""]","1","low nameability","1","right","audio_feedback","1"
"html-button-response","24","93422","0.0-19.0","CKN_122","122","","","","","","null","<button class=""jspsych-btn""><img src=""stimuli/white_square.png"" style=""width: 200px;height: 200px;""></button>","null","turquoise","darkgreenblue","[""turquoise"",""darkgreenblue"",""low nameability""]","right-left","[""darkgreenblue"",""turquoise""]","1","low nameability","1","right","iti",""
"html-button-response","25","95947","0.0-20.0","CKN_122","122","","","","","","2513","","0","neonyellow","pink","[""neonyellow"",""pink"",""low nameability""]","left-right","[""neonyellow"",""pink"",""low nameability""]","1","low nameability","2","left","trigger",""
"html-button-response","26","100601","0.0-21.0-0.0","CKN_122","122","","","","","","4646","<button class=""jspsych-btn""><img src=""stimuli/neonyellow.png"" style=""width: 200px;height: 200px;""></button>","0","neonyellow","pink","[""neonyellow"",""pink"",""low nameability""]","left-right","[""neonyellow"",""pink"",""low nameability""]","1","low nameability","2","left","response","1"
"html-audio-button-response","27","100810","0.0-21.0-1.0","CKN_122","122","","","","","","null","stimuli/bleep.m4a","null","neonyellow","pink","[""neonyellow"",""pink"",""low nameability""]","left-right","[""neonyellow"",""pink"",""low nameability""]","1","low nameability","2","left","audio_feedback","1"
"html-button-response","28","101330","0.0-22.0","CKN_122","122","","","","","","null","<button class=""jspsych-btn""><img src=""stimuli/white_square.png"" style=""width: 200px;height: 200px;""></button>","null","neonyellow","pink","[""neonyellow"",""pink"",""low nameability""]","left-right","[""neonyellow"",""pink"",""low nameability""]","1","low nameability","2","left","iti",""
"html-button-response","29","104386","0.0-23.0","CKN_122","122","","","","","","3032","","0","mustard","pink","[""mustard"",""pink"",""low nameability""]","right-left","[""pink"",""mustard""]","1","low nameability","3","right","trigger",""
"html-button-response","30","106484","0.0-24.0-0.0","CKN_122","122","","","","","","2092","<button class=""jspsych-btn""><img src=""stimuli/mustard.png"" style=""width: 200px;height: 200px;""></button>","1","mustard","pink","[""mustard"",""pink"",""low nameability""]","right-left","[""pink"",""mustard""]","1","low nameability","3","right","response","1"
"html-audio-button-response","31","106687","0.0-24.0-1.0","CKN_122","122","","","","","","null","stimuli/bleep.m4a","null","mustard","pink","[""mustard"",""pink"",""low nameability""]","right-left","[""pink"",""mustard""]","1","low nameability","3","right","audio_feedback","1"
"html-button-response","32","107202","0.0-25.0","CKN_122","122","","","","","","null","<button class=""jspsych-btn""><img src=""stimuli/white_square.png"" style=""width: 200px;height: 200px;""></button>","null","mustard","pink","[""mustard"",""pink"",""low nameability""]","right-left","[""pink"",""mustard""]","1","low nameability","3","right","iti",""
"html-button-response","33","109000","0.0-26.0","CKN_122","122","","","","","","1787","","0","orange","yellow","[""orange"",""yellow"",""high nameability""]","left-right","[""orange"",""yellow"",""high nameability""]","1","high nameability","4","left","trigger",""
"html-button-response","34","110540","0.0-27.0-0.0","CKN_122","122","","","","","","1532","<button class=""jspsych-btn""><img src=""stimuli/orange.png"" style=""width: 200px;height: 200px;""></button>","0","orange","yellow","[""orange"",""yellow"",""high nameability""]","left-right","[""orange"",""yellow"",""high nameability""]","1","high nameability","4","left","response","1"
"html-audio-button-response","35","110752","0.0-27.0-1.0","CKN_122","122","","","","","","null","stimuli/bleep.m4a","null","orange","yellow","[""orange"",""yellow"",""high nameability""]","left-right","[""orange"",""yellow"",""high nameability""]","1","high nameability","4","left","audio_feedback","1"
"html-button-response","36","111270","0.0-28.0","CKN_122","122","","","","","","null","<button class=""jspsych-btn""><img src=""stimuli/white_square.png"" style=""width: 200px;height: 200px;""></button>","null","orange","yellow","[""orange"",""yellow"",""high nameability""]","left-right","[""orange"",""yellow"",""high nameability""]","1","high nameability","4","left","iti",""
"html-button-response","37","113201","0.0-29.0","CKN_122","122","","","","","","1918","","0","darkgreenblue","turquoise","[""darkgreenblue"",""turquoise"",""low nameability""]","right-left","[""turquoise"",""darkgreenblue""]","1","low nameability","5","right","trigger",""
"html-button-response","38","114643","0.0-30.0-0.0","CKN_122","122","","","","","","1436","<button class=""jspsych-btn""><img src=""stimuli/darkgreenblue.png"" style=""width: 200px;height: 200px;""></button>","1","darkgreenblue","turquoise","[""darkgreenblue"",""turquoise"",""low nameability""]","right-left","[""turquoise"",""darkgreenblue""]","1","low nameability","5","right","response","1"
"html-audio-button-response","39","114861","0.0-30.0-1.0","CKN_122","122","","","","","","null","stimuli/bleep.m4a","null","darkgreenblue","turquoise","[""darkgreenblue"",""turquoise"",""low nameability""]","right-left","[""turquoise"",""darkgreenblue""]","1","low nameability","5","right","audio_feedback","1"
"html-button-response","40","115371","0.0-31.0","CKN_122","122","","","","","","null","<button class=""jspsych-btn""><img src=""stimuli/white_square.png"" style=""width: 200px;height: 200px;""></button>","null","darkgreenblue","turquoise","[""darkgreenblue"",""turquoise"",""low nameability""]","right-left","[""turquoise"",""darkgreenblue""]","1","low nameability","5","right","iti",""
"html-button-response","41","116802","0.0-32.0","CKN_122","122","","","","","","1418","","0","mustard","lightred","[""mustard"",""lightred"",""low nameability""]","left-right","[""mustard"",""lightred"",""low nameability""]","1","low nameability","6","left","trigger",""
"html-button-response","42","118218","0.0-33.0-0.0","CKN_122","122","","","","","","1410","<button class=""jspsych-btn""><img src=""stimuli/mustard.png"" style=""width: 200px;height: 200px;""></button>","0","mustard","lightred","[""mustard"",""lightred"",""low nameability""]","left-right","[""mustard"",""lightred"",""low nameability""]","1","low nameability","6","left","response","1"
"html-audio-button-response","43","118431","0.0-33.0-1.0","CKN_122","122","","","","","","null","stimuli/bleep.m4a","null","mustard","lightred","[""mustard"",""lightred"",""low nameability""]","left-right","[""mustard"",""lightred"",""low nameability""]","1","low nameability","6","left","audio_feedback","1"
"html-button-response","44","118946","0.0-34.0","CKN_122","122","","","","","","null","<button class=""jspsych-btn""><img src=""stimuli/white_square.png"" style=""width: 200px;height: 200px;""></button>","null","mustard","lightred","[""mustard"",""lightred"",""low nameability""]","left-right","[""mustard"",""lightred"",""low nameability""]","1","low nameability","6","left","iti",""
"html-button-response","45","124824","0.0-35.0","CKN_122","122","","","","","","5865","","0","neonyellow","darkgreenblue","[""neonyellow"",""darkgreenblue"",""low nameability""]","right-left","[""darkgreenblue"",""neonyellow""]","1","low nameability","7","right","trigger",""
"html-button-response","46","126526","0.0-36.0-0.0","CKN_122","122","","","","","","1695","<button class=""jspsych-btn""><img src=""stimuli/neonyellow.png"" style=""width: 200px;height: 200px;""></button>","1","neonyellow","darkgreenblue","[""neonyellow"",""darkgreenblue"",""low nameability""]","right-left","[""darkgreenblue"",""neonyellow""]","1","low nameability","7","right","response","1"
"html-audio-button-response","47","126729","0.0-36.0-1.0","CKN_122","122","","","","","","null","stimuli/bleep.m4a","null","neonyellow","darkgreenblue","[""neonyellow"",""darkgreenblue"",""low nameability""]","right-left","[""darkgreenblue"",""neonyellow""]","1","low nameability","7","right","audio_feedback","1"
"html-button-response","48","127240","0.0-37.0","CKN_122","122","","","","","","null","<button class=""jspsych-btn""><img src=""stimuli/white_square.png"" style=""width: 200px;height: 200px;""></button>","null","neonyellow","darkgreenblue","[""neonyellow"",""darkgreenblue"",""low nameability""]","right-left","[""darkgreenblue"",""neonyellow""]","1","low nameability","7","right","iti",""
"html-button-response","49","131137","0.0-38.0","CKN_122","122","","","","","","3892","","0","lightred","pink","[""lightred"",""pink"",""low nameability""]","right-left","[""pink"",""lightred""]","1","low nameability","8","right","trigger",""
"html-button-response","50","132176","0.0-39.0-0.0","CKN_122","122","","","","","","1033","<button class=""jspsych-btn""><img src=""stimuli/lightred.png"" style=""width: 200px;height: 200px;""></button>","1","lightred","pink","[""lightred"",""pink"",""low nameability""]","right-left","[""pink"",""lightred""]","1","low nameability","8","right","response","1"
"html-audio-button-response","51","132381","0.0-39.0-1.0","CKN_122","122","","","","","","null","stimuli/bleep.m4a","null","lightred","pink","[""lightred"",""pink"",""low nameability""]","right-left","[""pink"",""lightred""]","1","low nameability","8","right","audio_feedback","1"
"html-button-response","52","132896","0.0-40.0","CKN_122","122","","","","","","null","<button class=""jspsych-btn""><img src=""stimuli/white_square.png"" style=""width: 200px;height: 200px;""></button>","null","lightred","pink","[""lightred"",""pink"",""low nameability""]","right-left","[""pink"",""lightred""]","1","low nameability","8","right","iti",""
"html-button-response","53","137632","0.0-41.0","CKN_122","122","","","","","","4723","","0","lightred","darkgreenblue","[""lightred"",""darkgreenblue"",""low nameability""]","left-right","[""lightred"",""darkgreenblue"",""low nameability""]","1","low nameability","9","left","trigger",""
"html-button-response","54","141897","0.0-42.0-0.0","CKN_122","122","","","","","","4259","<button class=""jspsych-btn""><img src=""stimuli/lightred.png"" style=""width: 200px;height: 200px;""></button>","0","lightred","darkgreenblue","[""lightred"",""darkgreenblue"",""low nameability""]","left-right","[""lightred"",""darkgreenblue"",""low nameability""]","1","low nameability","9","left","response","1"
"html-audio-button-response","55","142106","0.0-42.0-1.0","CKN_122","122","","","","","","null","stimuli/bleep.m4a","null","lightred","darkgreenblue","[""lightred"",""darkgreenblue"",""low nameability""]","left-right","[""lightred"",""darkgreenblue"",""low nameability""]","1","low nameability","9","left","audio_feedback","1"
"html-button-response","56","142643","0.0-43.0","CKN_122","122","","","","","","null","<button class=""jspsych-btn""><img src=""stimuli/white_square.png"" style=""width: 200px;height: 200px;""></button>","null","lightred","darkgreenblue","[""lightred"",""darkgreenblue"",""low nameability""]","left-right","[""lightred"",""darkgreenblue"",""low nameability""]","1","low nameability","9","left","iti",""
"html-button-response","57","146212","0.0-44.0","CKN_122","122","","","","","","3556","","0","blue","orange","[""blue"",""orange"",""high nameability""]","right-left","[""orange"",""blue""]","1","high nameability","10","right","trigger",""
"html-button-response","58","148076","0.0-45.0-0.0","CKN_122","122","","","","","","1858","<button class=""jspsych-btn""><img src=""stimuli/blue.png"" style=""width: 200px;height: 200px;""></button>","1","blue","orange","[""blue"",""orange"",""high nameability""]","right-left","[""orange"",""blue""]","1","high nameability","10","right","response","1"
"html-audio-button-response","59","148287","0.0-45.0-1.0","CKN_122","122","","","","","","null","stimuli/bleep.m4a","null","blue","orange","[""blue"",""orange"",""high nameability""]","right-left","[""orange"",""blue""]","1","high nameability","10","right","audio_feedback","1"
"html-button-response","60","148815","0.0-46.0","CKN_122","122","","","","","","null","<button class=""jspsych-btn""><img src=""stimuli/white_square.png"" style=""width: 200px;height: 200px;""></button>","null","blue","orange","[""blue"",""orange"",""high nameability""]","right-left","[""orange"",""blue""]","1","high nameability","10","right","iti",""
"pavlovia","61","148899","0.0-47.0","CKN_122","122","","","","","","","","","","","","","","","","","","",""
"pavlovia","62","148913","0.0-48.0","CKN_122","122","","","","","","","","","","","","","","","","","","",""
"html-audio-button-response","63","154093","0.0-49.0","CKN_122","122","","","","","","5277","stimuli/tada.m4a","0","","","","","","","","","","",""
"html-button-response","64","155527","0.0-50.0","CKN_122","122","","","","","","1431","","0","","","","","","","","","","",""
"html-button-response","65","156879","0.0-51.0","CKN_122","122","","","","","","1347","","0","yellow","blue","[""yellow"",""blue"",""high nameability""]","left-right","[""yellow"",""blue"",""high nameability""]","2","high nameability","11","left","trigger",""
"html-button-response","66","158246","0.0-52.0-0.0","CKN_122","122","","","","","","1362","<button class=""jspsych-btn""><img src=""stimuli/yellow.png"" style=""width: 200px;height: 200px;""></button>","0","yellow","blue","[""yellow"",""blue"",""high nameability""]","left-right","[""yellow"",""blue"",""high nameability""]","2","high nameability","11","left","response","1"
"html-audio-button-response","67","158447","0.0-52.0-1.0","CKN_122","122","","","","","","null","stimuli/bleep.m4a","null","yellow","blue","[""yellow"",""blue"",""high nameability""]","left-right","[""yellow"",""blue"",""high nameability""]","2","high nameability","11","left","audio_feedback","1"
"html-button-response","68","158955","0.0-53.0","CKN_122","122","","","","","","null","<button class=""jspsych-btn""><img src=""stimuli/white_square.png"" style=""width: 200px;height: 200px;""></button>","null","yellow","blue","[""yellow"",""blue"",""high nameability""]","left-right","[""yellow"",""blue"",""high nameability""]","2","high nameability","11","left","iti",""
"html-button-response","69","161585","0.0-54.0","CKN_122","122","","","","","","2626","","0","red","brown","[""red"",""brown"",""high nameability""]","right-left","[""brown"",""red""]","2","high nameability","12","right","trigger",""
"html-button-response","70","162517","0.0-55.0-0.0","CKN_122","122","","","","","","924","<button class=""jspsych-btn""><img src=""stimuli/red.png"" style=""width: 200px;height: 200px;""></button>","1","red","brown","[""red"",""brown"",""high nameability""]","right-left","[""brown"",""red""]","2","high nameability","12","right","response","1"
"html-audio-button-response","71","162720","0.0-55.0-1.0","CKN_122","122","","","","","","null","stimuli/bleep.m4a","null","red","brown","[""red"",""brown"",""high nameability""]","right-left","[""brown"",""red""]","2","high nameability","12","right","audio_feedback","1"
"html-button-response","72","163234","0.0-56.0","CKN_122","122","","","","","","null","<button class=""jspsych-btn""><img src=""stimuli/white_square.png"" style=""width: 200px;height: 200px;""></button>","null","red","brown","[""red"",""brown"",""high nameability""]","right-left","[""brown"",""red""]","2","high nameability","12","right","iti",""
"html-button-response","73","165870","0.0-57.0","CKN_122","122","","","","","","2623","","0","pink","lightred","[""pink"",""lightred"",""low nameability""]","right-left","[""lightred"",""pink""]","2","low nameability","13","right","trigger",""
"html-button-response","74","166774","0.0-58.0-0.0","CKN_122","122","","","","","","896","<button class=""jspsych-btn""><img src=""stimuli/pink.png"" style=""width: 200px;height: 200px;""></button>","1","pink","lightred","[""pink"",""lightred"",""low nameability""]","right-left","[""lightred"",""pink""]","2","low nameability","13","right","response","1"
"html-audio-button-response","75","166975","0.0-58.0-1.0","CKN_122","122","","","","","","null","stimuli/bleep.m4a","null","pink","lightred","[""pink"",""lightred"",""low nameability""]","right-left","[""lightred"",""pink""]","2","low nameability","13","right","audio_feedback","1"
"html-button-response","76","167490","0.0-59.0","CKN_122","122","","","","","","null","<button class=""jspsych-btn""><img src=""stimuli/white_square.png"" style=""width: 200px;height: 200px;""></button>","null","pink","lightred","[""pink"",""lightred"",""low nameability""]","right-left","[""lightred"",""pink""]","2","low nameability","13","right","iti",""
"html-button-response","77","170171","0.0-60.0","CKN_122","122","","","","","","2672","","0","blue","brown","[""blue"",""brown"",""high nameability""]","right-left","[""brown"",""blue""]","2","high nameability","14","right","trigger",""
"html-button-response","78","171127","0.0-61.0-0.0","CKN_122","122","","","","","","951","<button class=""jspsych-btn""><img src=""stimuli/blue.png"" style=""width: 200px;height: 200px;""></button>","1","blue","brown","[""blue"",""brown"",""high nameability""]","right-left","[""brown"",""blue""]","2","high nameability","14","right","response","1"
"html-audio-button-response","79","171328","0.0-61.0-1.0","CKN_122","122","","","","","","null","stimuli/bleep.m4a","null","blue","brown","[""blue"",""brown"",""high nameability""]","right-left","[""brown"",""blue""]","2","high nameability","14","right","audio_feedback","1"
"html-button-response","80","171842","0.0-62.0","CKN_122","122","","","","","","null","<button class=""jspsych-btn""><img src=""stimuli/white_square.png"" style=""width: 200px;height: 200px;""></button>","null","blue","brown","[""blue"",""brown"",""high nameability""]","right-left","[""brown"",""blue""]","2","high nameability","14","right","iti",""
"html-button-response","81","178681","0.0-63.0","CKN_122","122","","","","","","6825","","0","darkgreenblue","pink","[""darkgreenblue"",""pink"",""low nameability""]","left-right","[""darkgreenblue"",""pink"",""low nameability""]","2","low nameability","15","left","trigger",""
"html-button-response","82","182424","0.0-64.0-0.0","CKN_122","122","","","","","","3738","<button class=""jspsych-btn""><img src=""stimuli/darkgreenblue.png"" style=""width: 200px;height: 200px;""></button>","0","darkgreenblue","pink","[""darkgreenblue"",""pink"",""low nameability""]","left-right","[""darkgreenblue"",""pink"",""low nameability""]","2","low nameability","15","left","response","1"
"html-audio-button-response","83","182623","0.0-64.0-1.0","CKN_122","122","","","","","","null","stimuli/bleep.m4a","null","darkgreenblue","pink","[""darkgreenblue"",""pink"",""low nameability""]","left-right","[""darkgreenblue"",""pink"",""low nameability""]","2","low nameability","15","left","audio_feedback","1"
"html-button-response","84","183144","0.0-65.0","CKN_122","122","","","","","","null","<button class=""jspsych-btn""><img src=""stimuli/white_square.png"" style=""width: 200px;height: 200px;""></button>","null","darkgreenblue","pink","[""darkgreenblue"",""pink"",""low nameability""]","left-right","[""darkgreenblue"",""pink"",""low nameability""]","2","low nameability","15","left","iti",""
"html-button-response","85","185732","0.0-66.0","CKN_122","122","","","","","","2576","","0","turquoise","neonyellow","[""turquoise"",""neonyellow"",""low nameability""]","right-left","[""neonyellow"",""turquoise""]","2","low nameability","16","right","trigger",""
"html-button-response","86","186810","0.0-67.0-0.0","CKN_122","122","","","","","","1072","<button class=""jspsych-btn""><img src=""stimuli/turquoise.png"" style=""width: 200px;height: 200px;""></button>","1","turquoise","neonyellow","[""turquoise"",""neonyellow"",""low nameability""]","right-left","[""neonyellow"",""turquoise""]","2","low nameability","16","right","response","1"
"html-audio-button-response","87","187024","0.0-67.0-1.0","CKN_122","122","","","","","","null","stimuli/bleep.m4a","null","turquoise","neonyellow","[""turquoise"",""neonyellow"",""low nameability""]","right-left","[""neonyellow"",""turquoise""]","2","low nameability","16","right","audio_feedback","1"
"html-button-response","88","187544","0.0-68.0","CKN_122","122","","","","","","null","<button class=""jspsych-btn""><img src=""stimuli/white_square.png"" style=""width: 200px;height: 200px;""></button>","null","turquoise","neonyellow","[""turquoise"",""neonyellow"",""low nameability""]","right-left","[""neonyellow"",""turquoise""]","2","low nameability","16","right","iti",""
"html-button-response","89","189730","0.0-69.0","CKN_122","122","","","","","","2172","","0","brown","purple","[""brown"",""purple"",""high nameability""]","left-right","[""brown"",""purple"",""high nameability""]","2","high nameability","17","left","trigger",""
"html-button-response","90","192137","0.0-70.0-0.0","CKN_122","122","","","","","","2400","<button class=""jspsych-btn""><img src=""stimuli/brown.png"" style=""width: 200px;height: 200px;""></button>","0","brown","purple","[""brown"",""purple"",""high nameability""]","left-right","[""brown"",""purple"",""high nameability""]","2","high nameability","17","left","response","1"
"html-audio-button-response","91","192345","0.0-70.0-1.0","CKN_122","122","","","","","","null","stimuli/bleep.m4a","null","brown","purple","[""brown"",""purple"",""high nameability""]","left-right","[""brown"",""purple"",""high nameability""]","2","high nameability","17","left","audio_feedback","1"
"html-button-response","92","192854","0.0-71.0","CKN_122","122","","","","","","null","<button class=""jspsych-btn""><img src=""stimuli/white_square.png"" style=""width: 200px;height: 200px;""></button>","null","brown","purple","[""brown"",""purple"",""high nameability""]","left-right","[""brown"",""purple"",""high nameability""]","2","high nameability","17","left","iti",""
"html-button-response","93","194093","0.0-72.0","CKN_122","122","","","","","","1232","","0","darkgreenblue","lightred","[""darkgreenblue"",""lightred"",""low nameability""]","right-left","[""lightred"",""darkgreenblue""]","2","low nameability","18","right","trigger",""
"html-button-response","94","197942","0.0-73.0-0.0","CKN_122","122","","","","","","3838","<button class=""jspsych-btn""><img src=""stimuli/darkgreenblue.png"" style=""width: 200px;height: 200px;""></button>","1","darkgreenblue","lightred","[""darkgreenblue"",""lightred"",""low nameability""]","right-left","[""lightred"",""darkgreenblue""]","2","low nameability","18","right","response","1"
"html-audio-button-response","95","198144","0.0-73.0-1.0","CKN_122","122","","","","","","null","stimuli/bleep.m4a","null","darkgreenblue","lightred","[""darkgreenblue"",""lightred"",""low nameability""]","right-left","[""lightred"",""darkgreenblue""]","2","low nameability","18","right","audio_feedback","1"
"html-button-response","96","198669","0.0-74.0","CKN_122","122","","","","","","null","<button class=""jspsych-btn""><img src=""stimuli/white_square.png"" style=""width: 200px;height: 200px;""></button>","null","darkgreenblue","lightred","[""darkgreenblue"",""lightred"",""low nameability""]","right-left","[""lightred"",""darkgreenblue""]","2","low nameability","18","right","iti",""
"html-button-response","97","205926","0.0-75.0","CKN_122","122","","","","","","7245","","0","purple","yellow","[""purple"",""yellow"",""high nameability""]","left-right","[""purple"",""yellow"",""high nameability""]","2","high nameability","19","left","trigger",""
"html-button-response","98","210941","0.0-76.0-0.0","CKN_122","122","","","","","","5009","<button class=""jspsych-btn""><img src=""stimuli/purple.png"" style=""width: 200px;height: 200px;""></button>","0","purple","yellow","[""purple"",""yellow"",""high nameability""]","left-right","[""purple"",""yellow"",""high nameability""]","2","high nameability","19","left","response","1"
"html-audio-button-response","99","211150","0.0-76.0-1.0","CKN_122","122","","","","","","null","stimuli/bleep.m4a","null","purple","yellow","[""purple"",""yellow"",""high nameability""]","left-right","[""purple"",""yellow"",""high nameability""]","2","high nameability","19","left","audio_feedback","1"
"html-button-response","100","211667","0.0-77.0","CKN_122","122","","","","","","null","<button class=""jspsych-btn""><img src=""stimuli/white_square.png"" style=""width: 200px;height: 200px;""></button>","null","purple","yellow","[""purple"",""yellow"",""high nameability""]","left-right","[""purple"",""yellow"",""high nameability""]","2","high nameability","19","left","iti",""
"html-button-response","101","216256","0.0-78.0","CKN_122","122","","","","","","4569","","0","mustard","neonyellow","[""mustard"",""neonyellow"",""low nameability""]","left-right","[""mustard"",""neonyellow"",""low nameability""]","2","low nameability","20","left","trigger",""
"html-button-response","102","219423","0.0-79.0-0.0","CKN_122","122","","","","","","3154","<button class=""jspsych-btn""><img src=""stimuli/mustard.png"" style=""width: 200px;height: 200px;""></button>","0","mustard","neonyellow","[""mustard"",""neonyellow"",""low nameability""]","left-right","[""mustard"",""neonyellow"",""low nameability""]","2","low nameability","20","left","response","1"
"html-audio-button-response","103","219634","0.0-79.0-1.0","CKN_122","122","","","","","","null","stimuli/bleep.m4a","null","mustard","neonyellow","[""mustard"",""neonyellow"",""low nameability""]","left-right","[""mustard"",""neonyellow"",""low nameability""]","2","low nameability","20","left","audio_feedback","1"
"html-button-response","104","220161","0.0-80.0","CKN_122","122","","","","","","null","<button class=""jspsych-btn""><img src=""stimuli/white_square.png"" style=""width: 200px;height: 200px;""></button>","null","mustard","neonyellow","[""mustard"",""neonyellow"",""low nameability""]","left-right","[""mustard"",""neonyellow"",""low nameability""]","2","low nameability","20","left","iti",""
"pavlovia","105","220285","0.0-81.0","CKN_122","122","","","","","","","","","","","","","","","","","","",""
"pavlovia","106","220300","0.0-82.0","CKN_122","122","","","","","","","","","","","","","","","","","","",""
"html-audio-button-response","107","223671","0.0-83.0","CKN_122","122","","","","","","3507","stimuli/tada.m4a","0","","","","","","","","","","",""
"html-button-response","108","224736","0.0-84.0","CKN_122","122","","","","","","1056","","0","","","","","","","","","","",""
"html-button-response","109","227828","0.0-85.0","CKN_122","122","","","","","","3084","","0","purple","orange","[""purple"",""orange"",""high nameability""]","right-left","[""orange"",""purple""]","3","high nameability","21","right","trigger",""
"html-button-response","110","228886","0.0-86.0-0.0","CKN_122","122","","","","","","1050","<button class=""jspsych-btn""><img src=""stimuli/purple.png"" style=""width: 200px;height: 200px;""></button>","1","purple","orange","[""purple"",""orange"",""high nameability""]","right-left","[""orange"",""purple""]","3","high nameability","21","right","response","1"
"html-audio-button-response","111","229099","0.0-86.0-1.0","CKN_122","122","","","","","","null","stimuli/bleep.m4a","null","purple","orange","[""purple"",""orange"",""high nameability""]","right-left","[""orange"",""purple""]","3","high nameability","21","right","audio_feedback","1"
"html-button-response","112","229629","0.0-87.0","CKN_122","122","","","","","","null","<button class=""jspsych-btn""><img src=""stimuli/white_square.png"" style=""width: 200px;height: 200px;""></button>","null","purple","orange","[""purple"",""orange"",""high nameability""]","right-left","[""orange"",""purple""]","3","high nameability","21","right","iti",""
"html-button-response","113","235023","0.0-88.0","CKN_122","122","","","","","","5380","","0","orange","red","[""orange"",""red"",""high nameability""]","left-right","[""orange"",""red"",""high nameability""]","3","high nameability","22","left","trigger",""
"html-button-response","114","236362","0.0-89.0-0.0","CKN_122","122","","","","","","1332","<button class=""jspsych-btn""><img src=""stimuli/orange.png"" style=""width: 200px;height: 200px;""></button>","0","orange","red","[""orange"",""red"",""high nameability""]","left-right","[""orange"",""red"",""high nameability""]","3","high nameability","22","left","response","1"
"html-audio-button-response","115","236567","0.0-89.0-1.0","CKN_122","122","","","","","","null","stimuli/bleep.m4a","null","orange","red","[""orange"",""red"",""high nameability""]","left-right","[""orange"",""red"",""high nameability""]","3","high nameability","22","left","audio_feedback","1"
"html-button-response","116","237081","0.0-90.0","CKN_122","122","","","","","","null","<button class=""jspsych-btn""><img src=""stimuli/white_square.png"" style=""width: 200px;height: 200px;""></button>","null","orange","red","[""orange"",""red"",""high nameability""]","left-right","[""orange"",""red"",""high nameability""]","3","high nameability","22","left","iti",""
"html-button-response","117","238236","0.0-91.0","CKN_122","122","","","","","","1140","","0","blue","yellow","[""blue"",""yellow"",""high nameability""]","right-left","[""yellow"",""blue""]","3","high nameability","23","right","trigger",""
"html-button-response","118","241543","0.0-92.0-0.0","CKN_122","122","","","","","","3297","<button class=""jspsych-btn""><img src=""stimuli/blue.png"" style=""width: 200px;height: 200px;""></button>","1","blue","yellow","[""blue"",""yellow"",""high nameability""]","right-left","[""yellow"",""blue""]","3","high nameability","23","right","response","1"
"html-audio-button-response","119","241742","0.0-92.0-1.0","CKN_122","122","","","","","","null","stimuli/bleep.m4a","null","blue","yellow","[""blue"",""yellow"",""high nameability""]","right-left","[""yellow"",""blue""]","3","high nameability","23","right","audio_feedback","1"
"html-button-response","120","242257","0.0-93.0","CKN_122","122","","","","","","null","<button class=""jspsych-btn""><img src=""stimuli/white_square.png"" style=""width: 200px;height: 200px;""></button>","null","blue","yellow","[""blue"",""yellow"",""high nameability""]","right-left","[""yellow"",""blue""]","3","high nameability","23","right","iti",""
"html-button-response","121","244372","0.0-94.0","CKN_122","122","","","","","","2100","","0","darkgreenblue","neonyellow","[""darkgreenblue"",""neonyellow"",""low nameability""]","right-left","[""neonyellow"",""darkgreenblue""]","3","low nameability","24","right","trigger",""
"html-button-response","122","245363","0.0-95.0-0.0","CKN_122","122","","","","","","981","<button class=""jspsych-btn""><img src=""stimuli/darkgreenblue.png"" style=""width: 200px;height: 200px;""></button>","1","darkgreenblue","neonyellow","[""darkgreenblue"",""neonyellow"",""low nameability""]","right-left","[""neonyellow"",""darkgreenblue""]","3","low nameability","24","right","response","1"
"html-audio-button-response","123","245574","0.0-95.0-1.0","CKN_122","122","","","","","","null","stimuli/bleep.m4a","null","darkgreenblue","neonyellow","[""darkgreenblue"",""neonyellow"",""low nameability""]","right-left","[""neonyellow"",""darkgreenblue""]","3","low nameability","24","right","audio_feedback","1"
"html-button-response","124","246109","0.0-96.0","CKN_122","122","","","","","","null","<button class=""jspsych-btn""><img src=""stimuli/white_square.png"" style=""width: 200px;height: 200px;""></button>","null","darkgreenblue","neonyellow","[""darkgreenblue"",""neonyellow"",""low nameability""]","right-left","[""neonyellow"",""darkgreenblue""]","3","low nameability","24","right","iti",""
"html-button-response","125","247751","0.0-97.0","CKN_122","122","","","","","","1621","","0","purple","brown","[""purple"",""brown"",""high nameability""]","left-right","[""purple"",""brown"",""high nameability""]","3","high nameability","25","left","trigger",""
"html-button-response","126","248746","0.0-98.0-0.0","CKN_122","122","","","","","","988","<button class=""jspsych-btn""><img src=""stimuli/purple.png"" style=""width: 200px;height: 200px;""></button>","1","purple","brown","[""purple"",""brown"",""high nameability""]","left-right","[""purple"",""brown"",""high nameability""]","3","high nameability","25","left","response","0"
"html-audio-button-response","127","249370","0.0-98.0-1.0","CKN_122","122","","","","","","null","stimuli/boing.m4a","null","purple","brown","[""purple"",""brown"",""high nameability""]","left-right","[""purple"",""brown"",""high nameability""]","3","high nameability","25","left","audio_feedback","0"
"html-button-response","128","253307","0.0-98.1-0.1","CKN_122","122","","","","","","3905","<button class=""jspsych-btn""><img src=""stimuli/purple.png"" style=""width: 200px;height: 200px;""></button>","0","purple","brown","[""purple"",""brown"",""high nameability""]","left-right","[""purple"",""brown"",""high nameability""]","3","high nameability","25","left","response","1"
"html-audio-button-response","129","253511","0.0-98.1-1.1","CKN_122","122","","","","","","null","stimuli/bleep.m4a","null","purple","brown","[""purple"",""brown"",""high nameability""]","left-right","[""purple"",""brown"",""high nameability""]","3","high nameability","25","left","audio_feedback","1"
"html-button-response","130","254025","0.0-99.0","CKN_122","122","","","","","","null","<button class=""jspsych-btn""><img src=""stimuli/white_square.png"" style=""width: 200px;height: 200px;""></button>","null","purple","brown","[""purple"",""brown"",""high nameability""]","left-right","[""purple"",""brown"",""high nameability""]","3","high nameability","25","left","iti",""
"html-button-response","131","259143","0.0-100.0","CKN_122","122","","","","","","5108","","0","red","blue","[""red"",""blue"",""high nameability""]","right-left","[""blue"",""red""]","3","high nameability","26","right","trigger",""
"html-button-response","132","260170","0.0-101.0-0.0","CKN_122","122","","","","","","1021","<button class=""jspsych-btn""><img src=""stimuli/red.png"" style=""width: 200px;height: 200px;""></button>","1","red","blue","[""red"",""blue"",""high nameability""]","right-left","[""blue"",""red""]","3","high nameability","26","right","response","1"
"html-audio-button-response","133","260375","0.0-101.0-1.0","CKN_122","122","","","","","","null","stimuli/bleep.m4a","null","red","blue","[""red"",""blue"",""high nameability""]","right-left","[""blue"",""red""]","3","high nameability","26","right","audio_feedback","1"
"html-button-response","134","260901","0.0-102.0","CKN_122","122","","","","","","null","<button class=""jspsych-btn""><img src=""stimuli/white_square.png"" style=""width: 200px;height: 200px;""></button>","null","red","blue","[""red"",""blue"",""high nameability""]","right-left","[""blue"",""red""]","3","high nameability","26","right","iti",""
"html-button-response","135","264061","0.0-103.0","CKN_122","122","","","","","","3145","","0","orange","purple","[""orange"",""purple"",""high nameability""]","left-right","[""orange"",""purple"",""high nameability""]","3","high nameability","27","left","trigger",""
"html-button-response","136","268261","0.0-104.0-0.0","CKN_122","122","","","","","","4192","<button class=""jspsych-btn""><img src=""stimuli/orange.png"" style=""width: 200px;height: 200px;""></button>","0","orange","purple","[""orange"",""purple"",""high nameability""]","left-right","[""orange"",""purple"",""high nameability""]","3","high nameability","27","left","response","1"
"html-audio-button-response","137","268462","0.0-104.0-1.0","CKN_122","122","","","","","","null","stimuli/bleep.m4a","null","orange","purple","[""orange"",""purple"",""high nameability""]","left-right","[""orange"",""purple"",""high nameability""]","3","high nameability","27","left","audio_feedback","1"
"html-button-response","138","268979","0.0-105.0","CKN_122","122","","","","","","null","<button class=""jspsych-btn""><img src=""stimuli/white_square.png"" style=""width: 200px;height: 200px;""></button>","null","orange","purple","[""orange"",""purple"",""high nameability""]","left-right","[""orange"",""purple"",""high nameability""]","3","high nameability","27","left","iti",""
"html-button-response","139","270499","0.0-106.0","CKN_122","122","","","","","","1504","","0","mustard","turquoise","[""mustard"",""turquoise"",""low nameability""]","left-right","[""mustard"",""turquoise"",""low nameability""]","3","low nameability","28","left","trigger",""
"html-button-response","140","274023","0.0-107.0-0.0","CKN_122","122","","","","","","3518","<button class=""jspsych-btn""><img src=""stimuli/mustard.png"" style=""width: 200px;height: 200px;""></button>","0","mustard","turquoise","[""mustard"",""turquoise"",""low nameability""]","left-right","[""mustard"",""turquoise"",""low nameability""]","3","low nameability","28","left","response","1"
"html-audio-button-response","141","274230","0.0-107.0-1.0","CKN_122","122","","","","","","null","stimuli/bleep.m4a","null","mustard","turquoise","[""mustard"",""turquoise"",""low nameability""]","left-right","[""mustard"",""turquoise"",""low nameability""]","3","low nameability","28","left","audio_feedback","1"
"html-button-response","142","274744","0.0-108.0","CKN_122","122","","","","","","null","<button class=""jspsych-btn""><img src=""stimuli/white_square.png"" style=""width: 200px;height: 200px;""></button>","null","mustard","turquoise","[""mustard"",""turquoise"",""low nameability""]","left-right","[""mustard"",""turquoise"",""low nameability""]","3","low nameability","28","left","iti",""
"html-button-response","143","276848","0.0-109.0","CKN_122","122","","","","","","2089","","0","orange","blue","[""orange"",""blue"",""high nameability""]","right-left","[""blue"",""orange""]","3","high nameability","29","right","trigger",""
"html-button-response","144","278307","0.0-110.0-0.0","CKN_122","122","","","","","","1445","<button class=""jspsych-btn""><img src=""stimuli/orange.png"" style=""width: 200px;height: 200px;""></button>","1","orange","blue","[""orange"",""blue"",""high nameability""]","right-left","[""blue"",""orange""]","3","high nameability","29","right","response","1"
"html-audio-button-response","145","278531","0.0-110.0-1.0","CKN_122","122","","","","","","null","stimuli/bleep.m4a","null","orange","blue","[""orange"",""blue"",""high nameability""]","right-left","[""blue"",""orange""]","3","high nameability","29","right","audio_feedback","1"
"html-button-response","146","279061","0.0-111.0","CKN_122","122","","","","","","null","<button class=""jspsych-btn""><img src=""stimuli/white_square.png"" style=""width: 200px;height: 200px;""></button>","null","orange","blue","[""orange"",""blue"",""high nameability""]","right-left","[""blue"",""orange""]","3","high nameability","29","right","iti",""
"html-button-response","147","280424","0.0-112.0","CKN_122","122","","","","","","1338","","0","yellow","orange","[""yellow"",""orange"",""high nameability""]","right-left","[""orange"",""yellow""]","3","high nameability","30","right","trigger",""
"html-button-response","148","281455","0.0-113.0-0.0","CKN_122","122","","","","","","1014","<button class=""jspsych-btn""><img src=""stimuli/yellow.png"" style=""width: 200px;height: 200px;""></button>","1","yellow","orange","[""yellow"",""orange"",""high nameability""]","right-left","[""orange"",""yellow""]","3","high nameability","30","right","response","1"
"html-audio-button-response","149","281675","0.0-113.0-1.0","CKN_122","122","","","","","","null","stimuli/bleep.m4a","null","yellow","orange","[""yellow"",""orange"",""high nameability""]","right-left","[""orange"",""yellow""]","3","high nameability","30","right","audio_feedback","1"
"html-button-response","150","282208","0.0-114.0","CKN_122","122","","","","","","null","<button class=""jspsych-btn""><img src=""stimuli/white_square.png"" style=""width: 200px;height: 200px;""></button>","null","yellow","orange","[""yellow"",""orange"",""high nameability""]","right-left","[""orange"",""yellow""]","3","high nameability","30","right","iti",""
"pavlovia","151","282324","0.0-115.0","CKN_122","122","","","","","","","","","","","","","","","","","","",""
"pavlovia","152","282336","0.0-116.0","CKN_122","122","","","","","","","","","","","","","","","","","","",""
"html-audio-button-response","153","286326","0.0-117.0","CKN_122","122","","","","","","4120","stimuli/tada.m4a","0","","","","","","","","","","",""
"html-button-response","154","286893","0.0-118.0","CKN_122","122","","","","","","558","","0","","","","","","","","","","",""
"html-button-response","155","289554","0.0-119.0","CKN_122","122","","","","","","2655","","0","yellow","brown","[""yellow"",""brown"",""high nameability""]","left-right","[""yellow"",""brown"",""high nameability""]","4","high nameability","31","left","trigger",""
"html-button-response","156","292544","0.0-120.0-0.0","CKN_122","122","","","","","","2983","<button class=""jspsych-btn""><img src=""stimuli/yellow.png"" style=""width: 200px;height: 200px;""></button>","0","yellow","brown","[""yellow"",""brown"",""high nameability""]","left-right","[""yellow"",""brown"",""high nameability""]","4","high nameability","31","left","response","1"
"html-audio-button-response","157","292750","0.0-120.0-1.0","CKN_122","122","","","","","","null","stimuli/bleep.m4a","null","yellow","brown","[""yellow"",""brown"",""high nameability""]","left-right","[""yellow"",""brown"",""high nameability""]","4","high nameability","31","left","audio_feedback","1"
"html-button-response","158","293274","0.0-121.0","CKN_122","122","","","","","","null","<button class=""jspsych-btn""><img src=""stimuli/white_square.png"" style=""width: 200px;height: 200px;""></button>","null","yellow","brown","[""yellow"",""brown"",""high nameability""]","left-right","[""yellow"",""brown"",""high nameability""]","4","high nameability","31","left","iti",""
"html-button-response","159","294403","0.0-122.0","CKN_122","122","","","","","","1115","","0","purple","blue","[""purple"",""blue"",""high nameability""]","left-right","[""purple"",""blue"",""high nameability""]","4","high nameability","32","left","trigger",""
"html-button-response","160","295525","0.0-123.0-0.0","CKN_122","122","","","","","","1117","<button class=""jspsych-btn""><img src=""stimuli/purple.png"" style=""width: 200px;height: 200px;""></button>","0","purple","blue","[""purple"",""blue"",""high nameability""]","left-right","[""purple"",""blue"",""high nameability""]","4","high nameability","32","left","response","1"
"html-audio-button-response","161","295736","0.0-123.0-1.0","CKN_122","122","","","","","","null","stimuli/bleep.m4a","null","purple","blue","[""purple"",""blue"",""high nameability""]","left-right","[""purple"",""blue"",""high nameability""]","4","high nameability","32","left","audio_feedback","1"
"html-button-response","162","296257","0.0-124.0","CKN_122","122","","","","","","null","<button class=""jspsych-btn""><img src=""stimuli/white_square.png"" style=""width: 200px;height: 200px;""></button>","null","purple","blue","[""purple"",""blue"",""high nameability""]","left-right","[""purple"",""blue"",""high nameability""]","4","high nameability","32","left","iti",""
"html-button-response","163","297613","0.0-125.0","CKN_122","122","","","","","","1343","","0","turquoise","pink","[""turquoise"",""pink"",""low nameability""]","right-left","[""pink"",""turquoise""]","4","low nameability","33","right","trigger",""
"html-button-response","164","300356","0.0-126.0-0.0","CKN_122","122","","","","","","2738","<button class=""jspsych-btn""><img src=""stimuli/turquoise.png"" style=""width: 200px;height: 200px;""></button>","1","turquoise","pink","[""turquoise"",""pink"",""low nameability""]","right-left","[""pink"",""turquoise""]","4","low nameability","33","right","response","1"
"html-audio-button-response","165","300568","0.0-126.0-1.0","CKN_122","122","","","","","","null","stimuli/bleep.m4a","null","turquoise","pink","[""turquoise"",""pink"",""low nameability""]","right-left","[""pink"",""turquoise""]","4","low nameability","33","right","audio_feedback","1"
"html-button-response","166","301100","0.0-127.0","CKN_122","122","","","","","","null","<button class=""jspsych-btn""><img src=""stimuli/white_square.png"" style=""width: 200px;height: 200px;""></button>","null","turquoise","pink","[""turquoise"",""pink"",""low nameability""]","right-left","[""pink"",""turquoise""]","4","low nameability","33","right","iti",""
"html-button-response","167","304965","0.0-128.0","CKN_122","122","","","","","","3851","","0","red","orange","[""red"",""orange"",""high nameability""]","left-right","[""red"",""orange"",""high nameability""]","4","high nameability","34","left","trigger",""
"html-button-response","168","306294","0.0-129.0-0.0","CKN_122","122","","","","","","1320","<button class=""jspsych-btn""><img src=""stimuli/red.png"" style=""width: 200px;height: 200px;""></button>","0","red","orange","[""red"",""orange"",""high nameability""]","left-right","[""red"",""orange"",""high nameability""]","4","high nameability","34","left","response","1"
"html-audio-button-response","169","306505","0.0-129.0-1.0","CKN_122","122","","","","","","null","stimuli/bleep.m4a","null","red","orange","[""red"",""orange"",""high nameability""]","left-right","[""red"",""orange"",""high nameability""]","4","high nameability","34","left","audio_feedback","1"
"html-button-response","170","307021","0.0-130.0","CKN_122","122","","","","","","null","<button class=""jspsych-btn""><img src=""stimuli/white_square.png"" style=""width: 200px;height: 200px;""></button>","null","red","orange","[""red"",""orange"",""high nameability""]","left-right","[""red"",""orange"",""high nameability""]","4","high nameability","34","left","iti",""
"html-button-response","171","309090","0.0-131.0","CKN_122","122","","","","","","2052","","0","neonyellow","mustard","[""neonyellow"",""mustard"",""low nameability""]","left-right","[""neonyellow"",""mustard"",""low nameability""]","4","low nameability","35","left","trigger",""
"html-button-response","172","310656","0.0-132.0-0.0","CKN_122","122","","","","","","1559","<button class=""jspsych-btn""><img src=""stimuli/neonyellow.png"" style=""width: 200px;height: 200px;""></button>","0","neonyellow","mustard","[""neonyellow"",""mustard"",""low nameability""]","left-right","[""neonyellow"",""mustard"",""low nameability""]","4","low nameability","35","left","response","1"
"html-audio-button-response","173","310863","0.0-132.0-1.0","CKN_122","122","","","","","","null","stimuli/bleep.m4a","null","neonyellow","mustard","[""neonyellow"",""mustard"",""low nameability""]","left-right","[""neonyellow"",""mustard"",""low nameability""]","4","low nameability","35","left","audio_feedback","1"
"html-button-response","174","311392","0.0-133.0","CKN_122","122","","","","","","null","<button class=""jspsych-btn""><img src=""stimuli/white_square.png"" style=""width: 200px;height: 200px;""></button>","null","neonyellow","mustard","[""neonyellow"",""mustard"",""low nameability""]","left-right","[""neonyellow"",""mustard"",""low nameability""]","4","low nameability","35","left","iti",""
"html-button-response","175","313139","0.0-134.0","CKN_122","122","","","","","","1736","","0","brown","yellow","[""brown"",""yellow"",""high nameability""]","left-right","[""brown"",""yellow"",""high nameability""]","4","high nameability","36","left","trigger",""
"html-button-response","176","315898","0.0-135.0-0.0","CKN_122","122","","","","","","2753","<button class=""jspsych-btn""><img src=""stimuli/brown.png"" style=""width: 200px;height: 200px;""></button>","0","brown","yellow","[""brown"",""yellow"",""high nameability""]","left-right","[""brown"",""yellow"",""high nameability""]","4","high nameability","36","left","response","1"
"html-audio-button-response","177","316103","0.0-135.0-1.0","CKN_122","122","","","","","","null","stimuli/bleep.m4a","null","brown","yellow","[""brown"",""yellow"",""high nameability""]","left-right","[""brown"",""yellow"",""high nameability""]","4","high nameability","36","left","audio_feedback","1"
"html-button-response","178","316626","0.0-136.0","CKN_122","122","","","","","","null","<button class=""jspsych-btn""><img src=""stimuli/white_square.png"" style=""width: 200px;height: 200px;""></button>","null","brown","yellow","[""brown"",""yellow"",""high nameability""]","left-right","[""brown"",""yellow"",""high nameability""]","4","high nameability","36","left","iti",""
"html-button-response","179","318805","0.0-137.0","CKN_122","122","","","","","","2161","","0","yellow","purple","[""yellow"",""purple"",""high nameability""]","right-left","[""purple"",""yellow""]","4","high nameability","37","right","trigger",""
"html-button-response","180","319887","0.0-138.0-0.0","CKN_122","122","","","","","","1071","<button class=""jspsych-btn""><img src=""stimuli/yellow.png"" style=""width: 200px;height: 200px;""></button>","1","yellow","purple","[""yellow"",""purple"",""high nameability""]","right-left","[""purple"",""yellow""]","4","high nameability","37","right","response","1"
"html-audio-button-response","181","320087","0.0-138.0-1.0","CKN_122","122","","","","","","null","stimuli/bleep.m4a","null","yellow","purple","[""yellow"",""purple"",""high nameability""]","right-left","[""purple"",""yellow""]","4","high nameability","37","right","audio_feedback","1"
"html-button-response","182","320599","0.0-139.0","CKN_122","122","","","","","","null","<button class=""jspsych-btn""><img src=""stimuli/white_square.png"" style=""width: 200px;height: 200px;""></button>","null","yellow","purple","[""yellow"",""purple"",""high nameability""]","right-left","[""purple"",""yellow""]","4","high nameability","37","right","iti",""
"html-button-response","183","321800","0.0-140.0","CKN_122","122","","","","","","1194","","0","red","yellow","[""red"",""yellow"",""high nameability""]","left-right","[""red"",""yellow"",""high nameability""]","4","high nameability","38","left","trigger",""
"html-button-response","184","322920","0.0-141.0-0.0","CKN_122","122","","","","","","1115","<button class=""jspsych-btn""><img src=""stimuli/red.png"" style=""width: 200px;height: 200px;""></button>","0","red","yellow","[""red"",""yellow"",""high nameability""]","left-right","[""red"",""yellow"",""high nameability""]","4","high nameability","38","left","response","1"
"html-audio-button-response","185","323124","0.0-141.0-1.0","CKN_122","122","","","","","","null","stimuli/bleep.m4a","null","red","yellow","[""red"",""yellow"",""high nameability""]","left-right","[""red"",""yellow"",""high nameability""]","4","high nameability","38","left","audio_feedback","1"
"html-button-response","186","323634","0.0-142.0","CKN_122","122","","","","","","null","<button class=""jspsych-btn""><img src=""stimuli/white_square.png"" style=""width: 200px;height: 200px;""></button>","null","red","yellow","[""red"",""yellow"",""high nameability""]","left-right","[""red"",""yellow"",""high nameability""]","4","high nameability","38","left","iti",""
"html-button-response","187","327866","0.0-143.0","CKN_122","122","","","","","","4218","","0","neonyellow","lightred","[""neonyellow"",""lightred"",""low nameability""]","left-right","[""neonyellow"",""lightred"",""low nameability""]","4","low nameability","39","left","trigger",""
"html-button-response","188","330615","0.0-144.0-0.0","CKN_122","122","","","","","","2743","<button class=""jspsych-btn""><img src=""stimuli/neonyellow.png"" style=""width: 200px;height: 200px;""></button>","0","neonyellow","lightred","[""neonyellow"",""lightred"",""low nameability""]","left-right","[""neonyellow"",""lightred"",""low nameability""]","4","low nameability","39","left","response","1"
"html-audio-button-response","189","330816","0.0-144.0-1.0","CKN_122","122","","","","","","null","stimuli/bleep.m4a","null","neonyellow","lightred","[""neonyellow"",""lightred"",""low nameability""]","left-right","[""neonyellow"",""lightred"",""low nameability""]","4","low nameability","39","left","audio_feedback","1"
"html-button-response","190","331328","0.0-145.0","CKN_122","122","","","","","","null","<button class=""jspsych-btn""><img src=""stimuli/white_square.png"" style=""width: 200px;height: 200px;""></button>","null","neonyellow","lightred","[""neonyellow"",""lightred"",""low nameability""]","left-right","[""neonyellow"",""lightred"",""low nameability""]","4","low nameability","39","left","iti",""
"html-button-response","191","336847","0.0-146.0","CKN_122","122","","","","","","5508","","0","lightred","mustard","[""lightred"",""mustard"",""low nameability""]","right-left","[""mustard"",""lightred""]","4","low nameability","40","right","trigger",""
"html-button-response","192","339644","0.0-147.0-0.0","CKN_122","122","","","","","","2791","<button class=""jspsych-btn""><img src=""stimuli/lightred.png"" style=""width: 200px;height: 200px;""></button>","1","lightred","mustard","[""lightred"",""mustard"",""low nameability""]","right-left","[""mustard"",""lightred""]","4","low nameability","40","right","response","1"
"html-audio-button-response","193","339846","0.0-147.0-1.0","CKN_122","122","","","","","","null","stimuli/bleep.m4a","null","lightred","mustard","[""lightred"",""mustard"",""low nameability""]","right-left","[""mustard"",""lightred""]","4","low nameability","40","right","audio_feedback","1"
"html-button-response","194","340368","0.0-148.0","CKN_122","122","","","","","","null","<button class=""jspsych-btn""><img src=""stimuli/white_square.png"" style=""width: 200px;height: 200px;""></button>","null","lightred","mustard","[""lightred"",""mustard"",""low nameability""]","right-left","[""mustard"",""lightred""]","4","low nameability","40","right","iti",""
"pavlovia","195","340474","0.0-149.0","CKN_122","122","","","","","","","","","","","","","","","","","","",""
"pavlovia","196","340480","0.0-150.0","CKN_122","122","","","","","","","","","","","","","","","","","","",""
"html-audio-button-response","197","344873","0.0-151.0","CKN_122","122","","","","","","4501","stimuli/tada.m4a","0","","","","","","","","","","",""
"html-button-response","198","345361","0.0-152.0","CKN_122","122","","","","","","478","","0","","","","","","","","","","",""
"html-button-response","199","347231","0.0-153.0","CKN_122","122","","","","","","1849","","0","neonyellow","turquoise","[""neonyellow"",""turquoise"",""low nameability""]","right-left","[""turquoise"",""neonyellow""]","5","low nameability","41","right","trigger",""
"html-button-response","200","349548","0.0-154.0-0.0","CKN_122","122","","","","","","2307","<button class=""jspsych-btn""><img src=""stimuli/neonyellow.png"" style=""width: 200px;height: 200px;""></button>","1","neonyellow","turquoise","[""neonyellow"",""turquoise"",""low nameability""]","right-left","[""turquoise"",""neonyellow""]","5","low nameability","41","right","response","1"
"html-audio-button-response","201","349759","0.0-154.0-1.0","CKN_122","122","","","","","","null","stimuli/bleep.m4a","null","neonyellow","turquoise","[""neonyellow"",""turquoise"",""low nameability""]","right-left","[""turquoise"",""neonyellow""]","5","low nameability","41","right","audio_feedback","1"
"html-button-response","202","350286","0.0-155.0","CKN_122","122","","","","","","null","<button class=""jspsych-btn""><img src=""stimuli/white_square.png"" style=""width: 200px;height: 200px;""></button>","null","neonyellow","turquoise","[""neonyellow"",""turquoise"",""low nameability""]","right-left","[""turquoise"",""neonyellow""]","5","low nameability","41","right","iti",""
"html-button-response","203","353180","0.0-156.0","CKN_122","122","","","","","","2872","","0","darkgreenblue","mustard","[""darkgreenblue"",""mustard"",""low nameability""]","right-left","[""mustard"",""darkgreenblue""]","5","low nameability","42","right","trigger",""
"html-button-response","204","354301","0.0-157.0-0.0","CKN_122","122","","","","","","1109","<button class=""jspsych-btn""><img src=""stimuli/darkgreenblue.png"" style=""width: 200px;height: 200px;""></button>","1","darkgreenblue","mustard","[""darkgreenblue"",""mustard"",""low nameability""]","right-left","[""mustard"",""darkgreenblue""]","5","low nameability","42","right","response","1"
"html-audio-button-response","205","354512","0.0-157.0-1.0","CKN_122","122","","","","","","null","stimuli/bleep.m4a","null","darkgreenblue","mustard","[""darkgreenblue"",""mustard"",""low nameability""]","right-left","[""mustard"",""darkgreenblue""]","5","low nameability","42","right","audio_feedback","1"
"html-button-response","206","355037","0.0-158.0","CKN_122","122","","","","","","null","<button class=""jspsych-btn""><img src=""stimuli/white_square.png"" style=""width: 200px;height: 200px;""></button>","null","darkgreenblue","mustard","[""darkgreenblue"",""mustard"",""low nameability""]","right-left","[""mustard"",""darkgreenblue""]","5","low nameability","42","right","iti",""
"html-button-response","207","356649","0.0-159.0","CKN_122","122","","","","","","1590","","0","blue","red","[""blue"",""red"",""high nameability""]","left-right","[""blue"",""red"",""high nameability""]","5","high nameability","43","left","trigger",""
"html-button-response","208","357904","0.0-160.0-0.0","CKN_122","122","","","","","","1245","<button class=""jspsych-btn""><img src=""stimuli/blue.png"" style=""width: 200px;height: 200px;""></button>","0","blue","red","[""blue"",""red"",""high nameability""]","left-right","[""blue"",""red"",""high nameability""]","5","high nameability","43","left","response","1"
"html-audio-button-response","209","358112","0.0-160.0-1.0","CKN_122","122","","","","","","null","stimuli/bleep.m4a","null","blue","red","[""blue"",""red"",""high nameability""]","left-right","[""blue"",""red"",""high nameability""]","5","high nameability","43","left","audio_feedback","1"
"html-button-response","210","358647","0.0-161.0","CKN_122","122","","","","","","null","<button class=""jspsych-btn""><img src=""stimuli/white_square.png"" style=""width: 200px;height: 200px;""></button>","null","blue","red","[""blue"",""red"",""high nameability""]","left-right","[""blue"",""red"",""high nameability""]","5","high nameability","43","left","iti",""
"html-button-response","211","359696","0.0-162.0","CKN_122","122","","","","","","1036","","0","brown","orange","[""brown"",""orange"",""high nameability""]","left-right","[""brown"",""orange"",""high nameability""]","5","high nameability","44","left","trigger",""
"html-button-response","212","362052","0.0-163.0-0.0","CKN_122","122","","","","","","2346","<button class=""jspsych-btn""><img src=""stimuli/brown.png"" style=""width: 200px;height: 200px;""></button>","0","brown","orange","[""brown"",""orange"",""high nameability""]","left-right","[""brown"",""orange"",""high nameability""]","5","high nameability","44","left","response","1"
"html-audio-button-response","213","362274","0.0-163.0-1.0","CKN_122","122","","","","","","null","stimuli/bleep.m4a","null","brown","orange","[""brown"",""orange"",""high nameability""]","left-right","[""brown"",""orange"",""high nameability""]","5","high nameability","44","left","audio_feedback","1"
"html-button-response","214","362806","0.0-164.0","CKN_122","122","","","","","","null","<button class=""jspsych-btn""><img src=""stimuli/white_square.png"" style=""width: 200px;height: 200px;""></button>","null","brown","orange","[""brown"",""orange"",""high nameability""]","left-right","[""brown"",""orange"",""high nameability""]","5","high nameability","44","left","iti",""
"html-button-response","215","365228","0.0-165.0","CKN_122","122","","","","","","2407","","0","brown","blue","[""brown"",""blue"",""high nameability""]","left-right","[""brown"",""blue"",""high nameability""]","5","high nameability","45","left","trigger",""
"html-button-response","216","366416","0.0-166.0-0.0","CKN_122","122","","","","","","1181","<button class=""jspsych-btn""><img src=""stimuli/brown.png"" style=""width: 200px;height: 200px;""></button>","0","brown","blue","[""brown"",""blue"",""high nameability""]","left-right","[""brown"",""blue"",""high nameability""]","5","high nameability","45","left","response","1"
"html-audio-button-response","217","366634","0.0-166.0-1.0","CKN_122","122","","","","","","null","stimuli/bleep.m4a","null","brown","blue","[""brown"",""blue"",""high nameability""]","left-right","[""brown"",""blue"",""high nameability""]","5","high nameability","45","left","audio_feedback","1"
"html-button-response","218","367153","0.0-167.0","CKN_122","122","","","","","","null","<button class=""jspsych-btn""><img src=""stimuli/white_square.png"" style=""width: 200px;height: 200px;""></button>","null","brown","blue","[""brown"",""blue"",""high nameability""]","left-right","[""brown"",""blue"",""high nameability""]","5","high nameability","45","left","iti",""
"html-button-response","219","368647","0.0-168.0","CKN_122","122","","","","","","1479","","0","pink","turquoise","[""pink"",""turquoise"",""low nameability""]","left-right","[""pink"",""turquoise"",""low nameability""]","5","low nameability","46","left","trigger",""
"html-button-response","220","369736","0.0-169.0-0.0","CKN_122","122","","","","","","1081","<button class=""jspsych-btn""><img src=""stimuli/pink.png"" style=""width: 200px;height: 200px;""></button>","0","pink","turquoise","[""pink"",""turquoise"",""low nameability""]","left-right","[""pink"",""turquoise"",""low nameability""]","5","low nameability","46","left","response","1"
"html-audio-button-response","221","369949","0.0-169.0-1.0","CKN_122","122","","","","","","null","stimuli/bleep.m4a","null","pink","turquoise","[""pink"",""turquoise"",""low nameability""]","left-right","[""pink"",""turquoise"",""low nameability""]","5","low nameability","46","left","audio_feedback","1"
"html-button-response","222","370465","0.0-170.0","CKN_122","122","","","","","","null","<button class=""jspsych-btn""><img src=""stimuli/white_square.png"" style=""width: 200px;height: 200px;""></button>","null","pink","turquoise","[""pink"",""turquoise"",""low nameability""]","left-right","[""pink"",""turquoise"",""low nameability""]","5","low nameability","46","left","iti",""
"html-button-response","223","372673","0.0-171.0","CKN_122","122","","","","","","2195","","0","blue","purple","[""blue"",""purple"",""high nameability""]","left-right","[""blue"",""purple"",""high nameability""]","5","high nameability","47","left","trigger",""
"html-button-response","224","373625","0.0-172.0-0.0","CKN_122","122","","","","","","944","<button class=""jspsych-btn""><img src=""stimuli/blue.png"" style=""width: 200px;height: 200px;""></button>","0","blue","purple","[""blue"",""purple"",""high nameability""]","left-right","[""blue"",""purple"",""high nameability""]","5","high nameability","47","left","response","1"
"html-audio-button-response","225","373834","0.0-172.0-1.0","CKN_122","122","","","","","","null","stimuli/bleep.m4a","null","blue","purple","[""blue"",""purple"",""high nameability""]","left-right","[""blue"",""purple"",""high nameability""]","5","high nameability","47","left","audio_feedback","1"
"html-button-response","226","374365","0.0-173.0","CKN_122","122","","","","","","null","<button class=""jspsych-btn""><img src=""stimuli/white_square.png"" style=""width: 200px;height: 200px;""></button>","null","blue","purple","[""blue"",""purple"",""high nameability""]","left-right","[""blue"",""purple"",""high nameability""]","5","high nameability","47","left","iti",""
"html-button-response","227","377284","0.0-174.0","CKN_122","122","","","","","","2905","","0","red","purple","[""red"",""purple"",""high nameability""]","left-right","[""red"",""purple"",""high nameability""]","5","high nameability","48","left","trigger",""
"html-button-response","228","384020","0.0-175.0-0.0","CKN_122","122","","","","","","6730","<button class=""jspsych-btn""><img src=""stimuli/red.png"" style=""width: 200px;height: 200px;""></button>","0","red","purple","[""red"",""purple"",""high nameability""]","left-right","[""red"",""purple"",""high nameability""]","5","high nameability","48","left","response","1"
"html-audio-button-response","229","384225","0.0-175.0-1.0","CKN_122","122","","","","","","null","stimuli/bleep.m4a","null","red","purple","[""red"",""purple"",""high nameability""]","left-right","[""red"",""purple"",""high nameability""]","5","high nameability","48","left","audio_feedback","1"
"html-button-response","230","384746","0.0-176.0","CKN_122","122","","","","","","null","<button class=""jspsych-btn""><img src=""stimuli/white_square.png"" style=""width: 200px;height: 200px;""></button>","null","red","purple","[""red"",""purple"",""high nameability""]","left-right","[""red"",""purple"",""high nameability""]","5","high nameability","48","left","iti",""
"html-button-response","231","386257","0.0-177.0","CKN_122","122","","","","","","1482","","0","lightred","neonyellow","[""lightred"",""neonyellow"",""low nameability""]","right-left","[""neonyellow"",""lightred""]","5","low nameability","49","right","trigger",""
"html-button-response","232","387394","0.0-178.0-0.0","CKN_122","122","","","","","","1129","<button class=""jspsych-btn""><img src=""stimuli/lightred.png"" style=""width: 200px;height: 200px;""></button>","1","lightred","neonyellow","[""lightred"",""neonyellow"",""low nameability""]","right-left","[""neonyellow"",""lightred""]","5","low nameability","49","right","response","1"
"html-audio-button-response","233","387598","0.0-178.0-1.0","CKN_122","122","","","","","","null","stimuli/bleep.m4a","null","lightred","neonyellow","[""lightred"",""neonyellow"",""low nameability""]","right-left","[""neonyellow"",""lightred""]","5","low nameability","49","right","audio_feedback","1"
"html-button-response","234","388110","0.0-179.0","CKN_122","122","","","","","","null","<button class=""jspsych-btn""><img src=""stimuli/white_square.png"" style=""width: 200px;height: 200px;""></button>","null","lightred","neonyellow","[""lightred"",""neonyellow"",""low nameability""]","right-left","[""neonyellow"",""lightred""]","5","low nameability","49","right","iti",""
"html-button-response","235","389168","0.0-180.0","CKN_122","122","","","","","","1047","","0","purple","red","[""purple"",""red"",""high nameability""]","right-left","[""red"",""purple""]","5","high nameability","50","right","trigger",""
"html-button-response","236","390254","0.0-181.0-0.0","CKN_122","122","","","","","","1080","<button class=""jspsych-btn""><img src=""stimuli/purple.png"" style=""width: 200px;height: 200px;""></button>","1","purple","red","[""purple"",""red"",""high nameability""]","right-left","[""red"",""purple""]","5","high nameability","50","right","response","1"
"html-audio-button-response","237","390457","0.0-181.0-1.0","CKN_122","122","","","","","","null","stimuli/bleep.m4a","null","purple","red","[""purple"",""red"",""high nameability""]","right-left","[""red"",""purple""]","5","high nameability","50","right","audio_feedback","1"
"html-button-response","238","390976","0.0-182.0","CKN_122","122","","","","","","null","<button class=""jspsych-btn""><img src=""stimuli/white_square.png"" style=""width: 200px;height: 200px;""></button>","null","purple","red","[""purple"",""red"",""high nameability""]","right-left","[""red"",""purple""]","5","high nameability","50","right","iti",""
"pavlovia","239","391073","0.0-183.0","CKN_122","122","","","","","","","","","","","","","","","","","","",""
"pavlovia","240","391087","0.0-184.0","CKN_122","122","","","","","","","","","","","","","","","","","","",""
"html-audio-button-response","241","395416","0.0-185.0","CKN_122","122","","","","","","4435","stimuli/tada.m4a","0","","","","","","","","","","",""
"html-button-response","242","395879","0.0-186.0","CKN_122","122","","","","","","458","","0","","","","","","","","","","",""
"html-button-response","243","398123","0.0-187.0","CKN_122","122","","","","","","2239","","0","turquoise","lightred","[""turquoise"",""lightred"",""low nameability""]","right-left","[""lightred"",""turquoise""]","6","low nameability","51","right","trigger",""
"html-button-response","244","399035","0.0-188.0-0.0","CKN_122","122","","","","","","901","<button class=""jspsych-btn""><img src=""stimuli/turquoise.png"" style=""width: 200px;height: 200px;""></button>","1","turquoise","lightred","[""turquoise"",""lightred"",""low nameability""]","right-left","[""lightred"",""turquoise""]","6","low nameability","51","right","response","1"
"html-audio-button-response","245","399248","0.0-188.0-1.0","CKN_122","122","","","","","","null","stimuli/bleep.m4a","null","turquoise","lightred","[""turquoise"",""lightred"",""low nameability""]","right-left","[""lightred"",""turquoise""]","6","low nameability","51","right","audio_feedback","1"
"html-button-response","246","399777","0.0-189.0","CKN_122","122","","","","","","null","<button class=""jspsych-btn""><img src=""stimuli/white_square.png"" style=""width: 200px;height: 200px;""></button>","null","turquoise","lightred","[""turquoise"",""lightred"",""low nameability""]","right-left","[""lightred"",""turquoise""]","6","low nameability","51","right","iti",""
"html-button-response","247","400929","0.0-190.0","CKN_122","122","","","","","","1135","","0","pink","mustard","[""pink"",""mustard"",""low nameability""]","right-left","[""mustard"",""pink""]","6","low nameability","52","right","trigger",""
"html-button-response","248","401689","0.0-191.0-0.0","CKN_122","122","","","","","","755","<button class=""jspsych-btn""><img src=""stimuli/pink.png"" style=""width: 200px;height: 200px;""></button>","1","pink","mustard","[""pink"",""mustard"",""low nameability""]","right-left","[""mustard"",""pink""]","6","low nameability","52","right","response","1"
"html-audio-button-response","249","401899","0.0-191.0-1.0","CKN_122","122","","","","","","null","stimuli/bleep.m4a","null","pink","mustard","[""pink"",""mustard"",""low nameability""]","right-left","[""mustard"",""pink""]","6","low nameability","52","right","audio_feedback","1"
"html-button-response","250","402420","0.0-192.0","CKN_122","122","","","","","","null","<button class=""jspsych-btn""><img src=""stimuli/white_square.png"" style=""width: 200px;height: 200px;""></button>","null","pink","mustard","[""pink"",""mustard"",""low nameability""]","right-left","[""mustard"",""pink""]","6","low nameability","52","right","iti",""
"html-button-response","251","403109","0.0-193.0","CKN_122","122","","","","","","675","","0","pink","neonyellow","[""pink"",""neonyellow"",""low nameability""]","right-left","[""neonyellow"",""pink""]","6","low nameability","53","right","trigger",""
"html-button-response","252","403849","0.0-194.0-0.0","CKN_122","122","","","","","","731","<button class=""jspsych-btn""><img src=""stimuli/pink.png"" style=""width: 200px;height: 200px;""></button>","1","pink","neonyellow","[""pink"",""neonyellow"",""low nameability""]","right-left","[""neonyellow"",""pink""]","6","low nameability","53","right","response","1"
"html-audio-button-response","253","404058","0.0-194.0-1.0","CKN_122","122","","","","","","null","stimuli/bleep.m4a","null","pink","neonyellow","[""pink"",""neonyellow"",""low nameability""]","right-left","[""neonyellow"",""pink""]","6","low nameability","53","right","audio_feedback","1"
"html-button-response","254","404583","0.0-195.0","CKN_122","122","","","","","","null","<button class=""jspsych-btn""><img src=""stimuli/white_square.png"" style=""width: 200px;height: 200px;""></button>","null","pink","neonyellow","[""pink"",""neonyellow"",""low nameability""]","right-left","[""neonyellow"",""pink""]","6","low nameability","53","right","iti",""
"html-button-response","255","406641","0.0-196.0","CKN_122","122","","","","","","2039","","0","orange","brown","[""orange"",""brown"",""high nameability""]","left-right","[""orange"",""brown"",""high nameability""]","6","high nameability","54","left","trigger",""
"html-button-response","256","407472","0.0-197.0-0.0","CKN_122","122","","","","","","815","<button class=""jspsych-btn""><img src=""stimuli/orange.png"" style=""width: 200px;height: 200px;""></button>","1","orange","brown","[""orange"",""brown"",""high nameability""]","left-right","[""orange"",""brown"",""high nameability""]","6","high nameability","54","left","response","0"
"html-audio-button-response","257","408127","0.0-197.0-1.0","CKN_122","122","","","","","","null","stimuli/boing.m4a","null","orange","brown","[""orange"",""brown"",""high nameability""]","left-right","[""orange"",""brown"",""high nameability""]","6","high nameability","54","left","audio_feedback","0"
"html-button-response","258","411491","0.0-197.1-0.1","CKN_122","122","","","","","","3327","<button class=""jspsych-btn""><img src=""stimuli/orange.png"" style=""width: 200px;height: 200px;""></button>","0","orange","brown","[""orange"",""brown"",""high nameability""]","left-right","[""orange"",""brown"",""high nameability""]","6","high nameability","54","left","response","1"
"html-audio-button-response","259","411714","0.0-197.1-1.1","CKN_122","122","","","","","","null","stimuli/bleep.m4a","null","orange","brown","[""orange"",""brown"",""high nameability""]","left-right","[""orange"",""brown"",""high nameability""]","6","high nameability","54","left","audio_feedback","1"
"html-button-response","260","412265","0.0-198.0","CKN_122","122","","","","","","null","<button class=""jspsych-btn""><img src=""stimuli/white_square.png"" style=""width: 200px;height: 200px;""></button>","null","orange","brown","[""orange"",""brown"",""high nameability""]","left-right","[""orange"",""brown"",""high nameability""]","6","high nameability","54","left","iti",""
"html-button-response","261","415306","0.0-199.0","CKN_122","122","","","","","","3021","","0","yellow","red","[""yellow"",""red"",""high nameability""]","right-left","[""red"",""yellow""]","6","high nameability","55","right","trigger",""
"html-button-response","262","416277","0.0-200.0-0.0","CKN_122","122","","","","","","959","<button class=""jspsych-btn""><img src=""stimuli/yellow.png"" style=""width: 200px;height: 200px;""></button>","1","yellow","red","[""yellow"",""red"",""high nameability""]","right-left","[""red"",""yellow""]","6","high nameability","55","right","response","1"
"html-audio-button-response","263","416481","0.0-200.0-1.0","CKN_122","122","","","","","","null","stimuli/bleep.m4a","null","yellow","red","[""yellow"",""red"",""high nameability""]","right-left","[""red"",""yellow""]","6","high nameability","55","right","audio_feedback","1"
"html-button-response","264","417007","0.0-201.0","CKN_122","122","","","","","","null","<button class=""jspsych-btn""><img src=""stimuli/white_square.png"" style=""width: 200px;height: 200px;""></button>","null","yellow","red","[""yellow"",""red"",""high nameability""]","right-left","[""red"",""yellow""]","6","high nameability","55","right","iti",""
"html-button-response","265","418653","0.0-202.0","CKN_122","122","","","","","","1629","","0","lightred","turquoise","[""lightred"",""turquoise"",""low nameability""]","right-left","[""turquoise"",""lightred""]","6","low nameability","56","right","trigger",""
"html-button-response","266","419724","0.0-203.0-0.0","CKN_122","122","","","","","","1063","<button class=""jspsych-btn""><img src=""stimuli/lightred.png"" style=""width: 200px;height: 200px;""></button>","1","lightred","turquoise","[""lightred"",""turquoise"",""low nameability""]","right-left","[""turquoise"",""lightred""]","6","low nameability","56","right","response","1"
"html-audio-button-response","267","419928","0.0-203.0-1.0","CKN_122","122","","","","","","null","stimuli/bleep.m4a","null","lightred","turquoise","[""lightred"",""turquoise"",""low nameability""]","right-left","[""turquoise"",""lightred""]","6","low nameability","56","right","audio_feedback","1"
"html-button-response","268","420451","0.0-204.0","CKN_122","122","","","","","","null","<button class=""jspsych-btn""><img src=""stimuli/white_square.png"" style=""width: 200px;height: 200px;""></button>","null","lightred","turquoise","[""lightred"",""turquoise"",""low nameability""]","right-left","[""turquoise"",""lightred""]","6","low nameability","56","right","iti",""
"html-button-response","269","423916","0.0-205.0","CKN_122","122","","","","","","3448","","0","brown","red","[""brown"",""red"",""high nameability""]","left-right","[""brown"",""red"",""high nameability""]","6","high nameability","57","left","trigger",""
"html-button-response","270","425172","0.0-206.0-0.0","CKN_122","122","","","","","","1247","<button class=""jspsych-btn""><img src=""stimuli/brown.png"" style=""width: 200px;height: 200px;""></button>","0","brown","red","[""brown"",""red"",""high nameability""]","left-right","[""brown"",""red"",""high nameability""]","6","high nameability","57","left","response","1"
"html-audio-button-response","271","425384","0.0-206.0-1.0","CKN_122","122","","","","","","null","stimuli/bleep.m4a","null","brown","red","[""brown"",""red"",""high nameability""]","left-right","[""brown"",""red"",""high nameability""]","6","high nameability","57","left","audio_feedback","1"
"html-button-response","272","425910","0.0-207.0","CKN_122","122","","","","","","null","<button class=""jspsych-btn""><img src=""stimuli/white_square.png"" style=""width: 200px;height: 200px;""></button>","null","brown","red","[""brown"",""red"",""high nameability""]","left-right","[""brown"",""red"",""high nameability""]","6","high nameability","57","left","iti",""
"html-button-response","273","427012","0.0-208.0","CKN_122","122","","","","","","1089","","0","turquoise","mustard","[""turquoise"",""mustard"",""low nameability""]","left-right","[""turquoise"",""mustard"",""low nameability""]","6","low nameability","58","left","trigger",""
"html-button-response","274","431533","0.0-209.0-0.0","CKN_122","122","","","","","","4513","<button class=""jspsych-btn""><img src=""stimuli/turquoise.png"" style=""width: 200px;height: 200px;""></button>","0","turquoise","mustard","[""turquoise"",""mustard"",""low nameability""]","left-right","[""turquoise"",""mustard"",""low nameability""]","6","low nameability","58","left","response","1"
"html-audio-button-response","275","431743","0.0-209.0-1.0","CKN_122","122","","","","","","null","stimuli/bleep.m4a","null","turquoise","mustard","[""turquoise"",""mustard"",""low nameability""]","left-right","[""turquoise"",""mustard"",""low nameability""]","6","low nameability","58","left","audio_feedback","1"
"html-button-response","276","432279","0.0-210.0","CKN_122","122","","","","","","null","<button class=""jspsych-btn""><img src=""stimuli/white_square.png"" style=""width: 200px;height: 200px;""></button>","null","turquoise","mustard","[""turquoise"",""mustard"",""low nameability""]","left-right","[""turquoise"",""mustard"",""low nameability""]","6","low nameability","58","left","iti",""
"html-button-response","277","435511","0.0-211.0","CKN_122","122","","","","","","3224","","0","mustard","darkgreenblue","[""mustard"",""darkgreenblue"",""low nameability""]","left-right","[""mustard"",""darkgreenblue"",""low nameability""]","6","low nameability","59","left","trigger",""
"html-button-response","278","436567","0.0-212.0-0.0","CKN_122","122","","","","","","1048","<button class=""jspsych-btn""><img src=""stimuli/mustard.png"" style=""width: 200px;height: 200px;""></button>","0","mustard","darkgreenblue","[""mustard"",""darkgreenblue"",""low nameability""]","left-right","[""mustard"",""darkgreenblue"",""low nameability""]","6","low nameability","59","left","response","1"
"html-audio-button-response","279","436778","0.0-212.0-1.0","CKN_122","122","","","","","","null","stimuli/bleep.m4a","null","mustard","darkgreenblue","[""mustard"",""darkgreenblue"",""low nameability""]","left-right","[""mustard"",""darkgreenblue"",""low nameability""]","6","low nameability","59","left","audio_feedback","1"
"html-button-response","280","437309","0.0-213.0","CKN_122","122","","","","","","null","<button class=""jspsych-btn""><img src=""stimuli/white_square.png"" style=""width: 200px;height: 200px;""></button>","null","mustard","darkgreenblue","[""mustard"",""darkgreenblue"",""low nameability""]","left-right","[""mustard"",""darkgreenblue"",""low nameability""]","6","low nameability","59","left","iti",""
"html-button-response","281","439867","0.0-214.0","CKN_122","122","","","","","","2543","","0","pink","darkgreenblue","[""pink"",""darkgreenblue"",""low nameability""]","right-left","[""darkgreenblue"",""pink""]","6","low nameability","60","right","trigger",""
"html-button-response","282","441051","0.0-215.0-0.0","CKN_122","122","","","","","","1176","<button class=""jspsych-btn""><img src=""stimuli/pink.png"" style=""width: 200px;height: 200px;""></button>","0","pink","darkgreenblue","[""pink"",""darkgreenblue"",""low nameability""]","right-left","[""darkgreenblue"",""pink""]","6","low nameability","60","right","response","0"
"html-audio-button-response","283","441686","0.0-215.0-1.0","CKN_122","122","","","","","","null","stimuli/boing.m4a","null","pink","darkgreenblue","[""pink"",""darkgreenblue"",""low nameability""]","right-left","[""darkgreenblue"",""pink""]","6","low nameability","60","right","audio_feedback","0"
"html-button-response","284","443857","0.0-215.1-0.1","CKN_122","122","","","","","","2150","<button class=""jspsych-btn""><img src=""stimuli/pink.png"" style=""width: 200px;height: 200px;""></button>","1","pink","darkgreenblue","[""pink"",""darkgreenblue"",""low nameability""]","right-left","[""darkgreenblue"",""pink""]","6","low nameability","60","right","response","1"
"html-audio-button-response","285","444056","0.0-215.1-1.1","CKN_122","122","","","","","","null","stimuli/bleep.m4a","null","pink","darkgreenblue","[""pink"",""darkgreenblue"",""low nameability""]","right-left","[""darkgreenblue"",""pink""]","6","low nameability","60","right","audio_feedback","1"
"html-button-response","286","444577","0.0-216.0","CKN_122","122","","","","","","null","<button class=""jspsych-btn""><img src=""stimuli/white_square.png"" style=""width: 200px;height: 200px;""></button>","null","pink","darkgreenblue","[""pink"",""darkgreenblue"",""low nameability""]","right-left","[""darkgreenblue"",""pink""]","6","low nameability","60","right","iti",""
