"trial_type","trial_index","time_elapsed","internal_node_id","subject_id","seed","success","timeout","failed_images","failed_audio","failed_video","rt","stimulus","response","target","foil","choices","combination_order","choices_in_order","round","condition","trial_counter","target_location","trial_kind","correct"
"pavlovia","0","19","0.0-0.0","CKN_130","130","","","","","","","","","","","","","","","","","","",""
"preload","1","1274","0.0-1.0","CKN_130","130","true","false","[]","[]","[]","","","","","","","","","","","","","",""
"fullscreen","2","2904","0.0-2.0","CKN_130","130","true","","","","","","","","","","","","","","","","","",""
"html-button-response","3","250485","0.0-3.0","CKN_130","130","","","","","","247567","","0","","","","","","","","","","",""
"html-button-response","4","256608","0.0-4.0","CKN_130","130","","","","","","6111","","0","star","square","[""square"",""star""]","left-right","[""square"",""star""]","1","practice","1","right","trigger",""
"html-button-response","5","262327","0.0-5.0-0.0","CKN_130","130","","","","","","5705","<button class=""jspsych-btn""><img src=""stimuli/star.png"" style=""width: 200px;height: 200px;""></button>","1","star","square","[""square"",""star""]","left-right","[""square"",""star""]","1","practice","1","right","response","1"
"html-audio-button-response","6","262544","0.0-5.0-1.0","CKN_130","130","","","","","","null","stimuli/bleep.m4a","null","star","square","[""square"",""star""]","left-right","[""square"",""star""]","1","practice","1","right","audio_feedback","1"
"html-button-response","7","263069","0.0-6.0","CKN_130","130","","","","","","null","<button class=""jspsych-btn""><img src=""stimuli/white_square.png"" style=""width: 200px;height: 200px;""></button>","null","star","square","[""square"",""star""]","left-right","[""square"",""star""]","1","practice","1","right","iti",""
"html-button-response","8","269196","0.0-7.0","CKN_130","130","","","","","","6111","","0","triangle","pentagram","[""triangle"",""pentagram""]","left-right","[""triangle"",""pentagram""]","1","practice","1","left","trigger",""
"html-button-response","9","273080","0.0-8.0-0.0","CKN_130","130","","","","","","3877","<button class=""jspsych-btn""><img src=""stimuli/triangle.png"" style=""width: 200px;height: 200px;""></button>","0","triangle","pentagram","[""triangle"",""pentagram""]","left-right","[""triangle"",""pentagram""]","1","practice","1","left","response","1"
"html-audio-button-response","10","273288","0.0-8.0-1.0","CKN_130","130","","","","","","null","stimuli/bleep.m4a","null","triangle","pentagram","[""triangle"",""pentagram""]","left-right","[""triangle"",""pentagram""]","1","practice","1","left","audio_feedback","1"
"html-button-response","11","273810","0.0-9.0","CKN_130","130","","","","","","null","<button class=""jspsych-btn""><img src=""stimuli/white_square.png"" style=""width: 200px;height: 200px;""></button>","null","triangle","pentagram","[""triangle"",""pentagram""]","left-right","[""triangle"",""pentagram""]","1","practice","1","left","iti",""
"html-button-response","12","275748","0.0-10.0","CKN_130","130","","","","","","1920","","0","diamond","rectangle","[""rectangle"",""diamond""]","left-right","[""rectangle"",""diamond""]","1","practice","1","right","trigger",""
"html-button-response","13","284027","0.0-11.0-0.0","CKN_130","130","","","","","","8268","<button class=""jspsych-btn""><img src=""stimuli/diamond.png"" style=""width: 200px;height: 200px;""></button>","1","diamond","rectangle","[""rectangle"",""diamond""]","left-right","[""rectangle"",""diamond""]","1","practice","1","right","response","1"
"html-audio-button-response","14","284232","0.0-11.0-1.0","CKN_130","130","","","","","","null","stimuli/bleep.m4a","null","diamond","rectangle","[""rectangle"",""diamond""]","left-right","[""rectangle"",""diamond""]","1","practice","1","right","audio_feedback","1"
"html-button-response","15","284749","0.0-12.0","CKN_130","130","","","","","","null","<button class=""jspsych-btn""><img src=""stimuli/white_square.png"" style=""width: 200px;height: 200px;""></button>","null","diamond","rectangle","[""rectangle"",""diamond""]","left-right","[""rectangle"",""diamond""]","1","practice","1","right","iti",""
"html-button-response","16","288499","0.0-13.0","CKN_130","130","","","","","","3740","","0","pentagram","star","[""pentagram"",""star""]","left-right","[""pentagram"",""star""]","1","practice","1","left","trigger",""
"html-button-response","17","292256","0.0-14.0-0.0","CKN_130","130","","","","","","3744","<button class=""jspsych-btn""><img src=""stimuli/pentagram.png"" style=""width: 200px;height: 200px;""></button>","0","pentagram","star","[""pentagram"",""star""]","left-right","[""pentagram"",""star""]","1","practice","1","left","response","1"
"html-audio-button-response","18","292470","0.0-14.0-1.0","CKN_130","130","","","","","","null","stimuli/bleep.m4a","null","pentagram","star","[""pentagram"",""star""]","left-right","[""pentagram"",""star""]","1","practice","1","left","audio_feedback","1"
"html-button-response","19","292995","0.0-15.0","CKN_130","130","","","","","","null","<button class=""jspsych-btn""><img src=""stimuli/white_square.png"" style=""width: 200px;height: 200px;""></button>","null","pentagram","star","[""pentagram"",""star""]","left-right","[""pentagram"",""star""]","1","practice","1","left","iti",""
"html-button-response","20","297428","0.0-16.0","CKN_130","130","","","","","","4410","","0","","","","","","","","","","",""
"html-button-response","21","300023","0.0-17.0","CKN_130","130","","","","","","2587","","0","pink","mustard","[""pink"",""mustard"",""low nameability""]","right-left","[""mustard"",""pink""]","1","low nameability","1","right","trigger",""
"html-button-response","22","301618","0.0-18.0-0.0","CKN_130","130","","","","","","1581","<button class=""jspsych-btn""><img src=""stimuli/pink.png"" style=""width: 200px;height: 200px;""></button>","1","pink","mustard","[""pink"",""mustard"",""low nameability""]","right-left","[""mustard"",""pink""]","1","low nameability","1","right","response","1"
"html-audio-button-response","23","301831","0.0-18.0-1.0","CKN_130","130","","","","","","null","stimuli/bleep.m4a","null","pink","mustard","[""pink"",""mustard"",""low nameability""]","right-left","[""mustard"",""pink""]","1","low nameability","1","right","audio_feedback","1"
"html-button-response","24","302348","0.0-19.0","CKN_130","130","","","","","","null","<button class=""jspsych-btn""><img src=""stimuli/white_square.png"" style=""width: 200px;height: 200px;""></button>","null","pink","mustard","[""pink"",""mustard"",""low nameability""]","right-left","[""mustard"",""pink""]","1","low nameability","1","right","iti",""
"html-button-response","25","305048","0.0-20.0","CKN_130","130","","","","","","2690","","0","brown","red","[""brown"",""red"",""high nameability""]","left-right","[""brown"",""red"",""high nameability""]","1","high nameability","2","left","trigger",""
"html-button-response","26","315412","0.0-21.0-0.0","CKN_130","130","","","","","","10359","<button class=""jspsych-btn""><img src=""stimuli/brown.png"" style=""width: 200px;height: 200px;""></button>","0","brown","red","[""brown"",""red"",""high nameability""]","left-right","[""brown"",""red"",""high nameability""]","1","high nameability","2","left","response","1"
"html-audio-button-response","27","315616","0.0-21.0-1.0","CKN_130","130","","","","","","null","stimuli/bleep.m4a","null","brown","red","[""brown"",""red"",""high nameability""]","left-right","[""brown"",""red"",""high nameability""]","1","high nameability","2","left","audio_feedback","1"
"html-button-response","28","316130","0.0-22.0","CKN_130","130","","","","","","null","<button class=""jspsych-btn""><img src=""stimuli/white_square.png"" style=""width: 200px;height: 200px;""></button>","null","brown","red","[""brown"",""red"",""high nameability""]","left-right","[""brown"",""red"",""high nameability""]","1","high nameability","2","left","iti",""
"html-button-response","29","318469","0.0-23.0","CKN_130","130","","","","","","2326","","0","purple","red","[""purple"",""red"",""high nameability""]","right-left","[""red"",""purple""]","1","high nameability","3","right","trigger",""
"html-button-response","30","326129","0.0-24.0-0.0","CKN_130","130","","","","","","7652","<button class=""jspsych-btn""><img src=""stimuli/purple.png"" style=""width: 200px;height: 200px;""></button>","1","purple","red","[""purple"",""red"",""high nameability""]","right-left","[""red"",""purple""]","1","high nameability","3","right","response","1"
"html-audio-button-response","31","326338","0.0-24.0-1.0","CKN_130","130","","","","","","null","stimuli/bleep.m4a","null","purple","red","[""purple"",""red"",""high nameability""]","right-left","[""red"",""purple""]","1","high nameability","3","right","audio_feedback","1"
"html-button-response","32","326850","0.0-25.0","CKN_130","130","","","","","","null","<button class=""jspsych-btn""><img src=""stimuli/white_square.png"" style=""width: 200px;height: 200px;""></button>","null","purple","red","[""purple"",""red"",""high nameability""]","right-left","[""red"",""purple""]","1","high nameability","3","right","iti",""
"html-button-response","33","329381","0.0-26.0","CKN_130","130","","","","","","2507","","0","lightred","pink","[""lightred"",""pink"",""low nameability""]","right-left","[""pink"",""lightred""]","1","low nameability","4","right","trigger",""
"html-button-response","34","330697","0.0-27.0-0.0","CKN_130","130","","","","","","1309","<button class=""jspsych-btn""><img src=""stimuli/lightred.png"" style=""width: 200px;height: 200px;""></button>","1","lightred","pink","[""lightred"",""pink"",""low nameability""]","right-left","[""pink"",""lightred""]","1","low nameability","4","right","response","1"
"html-audio-button-response","35","330905","0.0-27.0-1.0","CKN_130","130","","","","","","null","stimuli/bleep.m4a","null","lightred","pink","[""lightred"",""pink"",""low nameability""]","right-left","[""pink"",""lightred""]","1","low nameability","4","right","audio_feedback","1"
"html-button-response","36","331420","0.0-28.0","CKN_130","130","","","","","","null","<button class=""jspsych-btn""><img src=""stimuli/white_square.png"" style=""width: 200px;height: 200px;""></button>","null","lightred","pink","[""lightred"",""pink"",""low nameability""]","right-left","[""pink"",""lightred""]","1","low nameability","4","right","iti",""
"html-button-response","37","333277","0.0-29.0","CKN_130","130","","","","","","1837","","0","lightred","neonyellow","[""lightred"",""neonyellow"",""low nameability""]","right-left","[""neonyellow"",""lightred""]","1","low nameability","5","right","trigger",""
"html-button-response","38","333857","0.0-30.0-0.0","CKN_130","130","","","","","","572","<button class=""jspsych-btn""><img src=""stimuli/lightred.png"" style=""width: 200px;height: 200px;""></button>","1","lightred","neonyellow","[""lightred"",""neonyellow"",""low nameability""]","right-left","[""neonyellow"",""lightred""]","1","low nameability","5","right","response","1"
"html-audio-button-response","39","334061","0.0-30.0-1.0","CKN_130","130","","","","","","null","stimuli/bleep.m4a","null","lightred","neonyellow","[""lightred"",""neonyellow"",""low nameability""]","right-left","[""neonyellow"",""lightred""]","1","low nameability","5","right","audio_feedback","1"
"html-button-response","40","334573","0.0-31.0","CKN_130","130","","","","","","null","<button class=""jspsych-btn""><img src=""stimuli/white_square.png"" style=""width: 200px;height: 200px;""></button>","null","lightred","neonyellow","[""lightred"",""neonyellow"",""low nameability""]","right-left","[""neonyellow"",""lightred""]","1","low nameability","5","right","iti",""
"html-button-response","41","338120","0.0-32.0","CKN_130","130","","","","","","3536","","0","darkgreenblue","neonyellow","[""darkgreenblue"",""neonyellow"",""low nameability""]","right-left","[""neonyellow"",""darkgreenblue""]","1","low nameability","6","right","trigger",""
"html-button-response","42","339573","0.0-33.0-0.0","CKN_130","130","","","","","","1446","<button class=""jspsych-btn""><img src=""stimuli/darkgreenblue.png"" style=""width: 200px;height: 200px;""></button>","1","darkgreenblue","neonyellow","[""darkgreenblue"",""neonyellow"",""low nameability""]","right-left","[""neonyellow"",""darkgreenblue""]","1","low nameability","6","right","response","1"
"html-audio-button-response","43","339775","0.0-33.0-1.0","CKN_130","130","","","","","","null","stimuli/bleep.m4a","null","darkgreenblue","neonyellow","[""darkgreenblue"",""neonyellow"",""low nameability""]","right-left","[""neonyellow"",""darkgreenblue""]","1","low nameability","6","right","audio_feedback","1"
"html-button-response","44","340306","0.0-34.0","CKN_130","130","","","","","","null","<button class=""jspsych-btn""><img src=""stimuli/white_square.png"" style=""width: 200px;height: 200px;""></button>","null","darkgreenblue","neonyellow","[""darkgreenblue"",""neonyellow"",""low nameability""]","right-left","[""neonyellow"",""darkgreenblue""]","1","low nameability","6","right","iti",""
"html-button-response","45","342534","0.0-35.0","CKN_130","130","","","","","","2215","","0","pink","turquoise","[""pink"",""turquoise"",""low nameability""]","left-right","[""pink"",""turquoise"",""low nameability""]","1","low nameability","7","left","trigger",""
"html-button-response","46","347768","0.0-36.0-0.0","CKN_130","130","","","","","","5224","<button class=""jspsych-btn""><img src=""stimuli/pink.png"" style=""width: 200px;height: 200px;""></button>","0","pink","turquoise","[""pink"",""turquoise"",""low nameability""]","left-right","[""pink"",""turquoise"",""low nameability""]","1","low nameability","7","left","response","1"
"html-audio-button-response","47","347977","0.0-36.0-1.0","CKN_130","130","","","","","","null","stimuli/bleep.m4a","null","pink","turquoise","[""pink"",""turquoise"",""low nameability""]","left-right","[""pink"",""turquoise"",""low nameability""]","1","low nameability","7","left","audio_feedback","1"
"html-button-response","48","348498","0.0-37.0","CKN_130","130","","","","","","null","<button class=""jspsych-btn""><img src=""stimuli/white_square.png"" style=""width: 200px;height: 200px;""></button>","null","pink","turquoise","[""pink"",""turquoise"",""low nameability""]","left-right","[""pink"",""turquoise"",""low nameability""]","1","low nameability","7","left","iti",""
"html-button-response","49","352488","0.0-38.0","CKN_130","130","","","","","","3971","","0","lightred","darkgreenblue","[""lightred"",""darkgreenblue"",""low nameability""]","right-left","[""darkgreenblue"",""lightred""]","1","low nameability","8","right","trigger",""
"html-button-response","50","353602","0.0-39.0-0.0","CKN_130","130","","","","","","1103","<button class=""jspsych-btn""><img src=""stimuli/lightred.png"" style=""width: 200px;height: 200px;""></button>","1","lightred","darkgreenblue","[""lightred"",""darkgreenblue"",""low nameability""]","right-left","[""darkgreenblue"",""lightred""]","1","low nameability","8","right","response","1"
"html-audio-button-response","51","353806","0.0-39.0-1.0","CKN_130","130","","","","","","null","stimuli/bleep.m4a","null","lightred","darkgreenblue","[""lightred"",""darkgreenblue"",""low nameability""]","right-left","[""darkgreenblue"",""lightred""]","1","low nameability","8","right","audio_feedback","1"
"html-button-response","52","354317","0.0-40.0","CKN_130","130","","","","","","null","<button class=""jspsych-btn""><img src=""stimuli/white_square.png"" style=""width: 200px;height: 200px;""></button>","null","lightred","darkgreenblue","[""lightred"",""darkgreenblue"",""low nameability""]","right-left","[""darkgreenblue"",""lightred""]","1","low nameability","8","right","iti",""
"html-button-response","53","356315","0.0-41.0","CKN_130","130","","","","","","1985","","0","neonyellow","pink","[""neonyellow"",""pink"",""low nameability""]","left-right","[""neonyellow"",""pink"",""low nameability""]","1","low nameability","9","left","trigger",""
"html-button-response","54","356843","0.0-42.0-0.0","CKN_130","130","","","","","","521","<button class=""jspsych-btn""><img src=""stimuli/neonyellow.png"" style=""width: 200px;height: 200px;""></button>","1","neonyellow","pink","[""neonyellow"",""pink"",""low nameability""]","left-right","[""neonyellow"",""pink"",""low nameability""]","1","low nameability","9","left","response","0"
"html-audio-button-response","55","357467","0.0-42.0-1.0","CKN_130","130","","","","","","null","stimuli/boing.m4a","null","neonyellow","pink","[""neonyellow"",""pink"",""low nameability""]","left-right","[""neonyellow"",""pink"",""low nameability""]","1","low nameability","9","left","audio_feedback","0"
"html-button-response","56","361395","0.0-42.1-0.1","CKN_130","130","","","","","","3905","<button class=""jspsych-btn""><img src=""stimuli/neonyellow.png"" style=""width: 200px;height: 200px;""></button>","0","neonyellow","pink","[""neonyellow"",""pink"",""low nameability""]","left-right","[""neonyellow"",""pink"",""low nameability""]","1","low nameability","9","left","response","1"
"html-audio-button-response","57","361599","0.0-42.1-1.1","CKN_130","130","","","","","","null","stimuli/bleep.m4a","null","neonyellow","pink","[""neonyellow"",""pink"",""low nameability""]","left-right","[""neonyellow"",""pink"",""low nameability""]","1","low nameability","9","left","audio_feedback","1"
"html-button-response","58","362108","0.0-43.0","CKN_130","130","","","","","","null","<button class=""jspsych-btn""><img src=""stimuli/white_square.png"" style=""width: 200px;height: 200px;""></button>","null","neonyellow","pink","[""neonyellow"",""pink"",""low nameability""]","left-right","[""neonyellow"",""pink"",""low nameability""]","1","low nameability","9","left","iti",""
"html-button-response","59","363661","0.0-44.0","CKN_130","130","","","","","","1541","","0","blue","brown","[""blue"",""brown"",""high nameability""]","left-right","[""blue"",""brown"",""high nameability""]","1","high nameability","10","left","trigger",""
"html-button-response","60","364763","0.0-45.0-0.0","CKN_130","130","","","","","","1095","<button class=""jspsych-btn""><img src=""stimuli/blue.png"" style=""width: 200px;height: 200px;""></button>","0","blue","brown","[""blue"",""brown"",""high nameability""]","left-right","[""blue"",""brown"",""high nameability""]","1","high nameability","10","left","response","1"
"html-audio-button-response","61","364969","0.0-45.0-1.0","CKN_130","130","","","","","","null","stimuli/bleep.m4a","null","blue","brown","[""blue"",""brown"",""high nameability""]","left-right","[""blue"",""brown"",""high nameability""]","1","high nameability","10","left","audio_feedback","1"
"html-button-response","62","365481","0.0-46.0","CKN_130","130","","","","","","null","<button class=""jspsych-btn""><img src=""stimuli/white_square.png"" style=""width: 200px;height: 200px;""></button>","null","blue","brown","[""blue"",""brown"",""high nameability""]","left-right","[""blue"",""brown"",""high nameability""]","1","high nameability","10","left","iti",""
"pavlovia","63","365543","0.0-47.0","CKN_130","130","","","","","","","","","","","","","","","","","","",""
"pavlovia","64","365560","0.0-48.0","CKN_130","130","","","","","","","","","","","","","","","","","","",""
"html-audio-button-response","65","371905","0.0-49.0","CKN_130","130","","","","","","6419","stimuli/tada.m4a","0","","","","","","","","","","",""
"html-button-response","66","372428","0.0-50.0","CKN_130","130","","","","","","510","","0","","","","","","","","","","",""
"html-button-response","67","373722","0.0-51.0","CKN_130","130","","","","","","1282","","0","lightred","mustard","[""lightred"",""mustard"",""low nameability""]","left-right","[""lightred"",""mustard"",""low nameability""]","2","low nameability","11","left","trigger",""
"html-button-response","68","379343","0.0-52.0-0.0","CKN_130","130","","","","","","5604","<button class=""jspsych-btn""><img src=""stimuli/lightred.png"" style=""width: 200px;height: 200px;""></button>","0","lightred","mustard","[""lightred"",""mustard"",""low nameability""]","left-right","[""lightred"",""mustard"",""low nameability""]","2","low nameability","11","left","response","1"
"html-audio-button-response","69","379552","0.0-52.0-1.0","CKN_130","130","","","","","","null","stimuli/bleep.m4a","null","lightred","mustard","[""lightred"",""mustard"",""low nameability""]","left-right","[""lightred"",""mustard"",""low nameability""]","2","low nameability","11","left","audio_feedback","1"
"html-button-response","70","380073","0.0-53.0","CKN_130","130","","","","","","null","<button class=""jspsych-btn""><img src=""stimuli/white_square.png"" style=""width: 200px;height: 200px;""></button>","null","lightred","mustard","[""lightred"",""mustard"",""low nameability""]","left-right","[""lightred"",""mustard"",""low nameability""]","2","low nameability","11","left","iti",""
"html-button-response","71","381499","0.0-54.0","CKN_130","130","","","","","","1408","","0","blue","red","[""blue"",""red"",""high nameability""]","right-left","[""red"",""blue""]","2","high nameability","12","right","trigger",""
"html-button-response","72","383904","0.0-55.0-0.0","CKN_130","130","","","","","","2399","<button class=""jspsych-btn""><img src=""stimuli/blue.png"" style=""width: 200px;height: 200px;""></button>","1","blue","red","[""blue"",""red"",""high nameability""]","right-left","[""red"",""blue""]","2","high nameability","12","right","response","1"
"html-audio-button-response","73","384111","0.0-55.0-1.0","CKN_130","130","","","","","","null","stimuli/bleep.m4a","null","blue","red","[""blue"",""red"",""high nameability""]","right-left","[""red"",""blue""]","2","high nameability","12","right","audio_feedback","1"
"html-button-response","74","384623","0.0-56.0","CKN_130","130","","","","","","null","<button class=""jspsych-btn""><img src=""stimuli/white_square.png"" style=""width: 200px;height: 200px;""></button>","null","blue","red","[""blue"",""red"",""high nameability""]","right-left","[""red"",""blue""]","2","high nameability","12","right","iti",""
"html-button-response","75","385910","0.0-57.0","CKN_130","130","","","","","","1271","","0","orange","purple","[""orange"",""purple"",""high nameability""]","left-right","[""orange"",""purple"",""high nameability""]","2","high nameability","13","left","trigger",""
"html-button-response","76","388527","0.0-58.0-0.0","CKN_130","130","","","","","","2608","<button class=""jspsych-btn""><img src=""stimuli/orange.png"" style=""width: 200px;height: 200px;""></button>","0","orange","purple","[""orange"",""purple"",""high nameability""]","left-right","[""orange"",""purple"",""high nameability""]","2","high nameability","13","left","response","1"
"html-audio-button-response","77","388744","0.0-58.0-1.0","CKN_130","130","","","","","","null","stimuli/bleep.m4a","null","orange","purple","[""orange"",""purple"",""high nameability""]","left-right","[""orange"",""purple"",""high nameability""]","2","high nameability","13","left","audio_feedback","1"
"html-button-response","78","389262","0.0-59.0","CKN_130","130","","","","","","32","<button class=""jspsych-btn""><img src=""stimuli/white_square.png"" style=""width: 200px;height: 200px;""></button>","0","orange","purple","[""orange"",""purple"",""high nameability""]","left-right","[""orange"",""purple"",""high nameability""]","2","high nameability","13","left","iti",""
"html-button-response","79","390295","0.0-60.0","CKN_130","130","","","","","","1015","","0","turquoise","lightred","[""turquoise"",""lightred"",""low nameability""]","right-left","[""lightred"",""turquoise""]","2","low nameability","14","right","trigger",""
"html-button-response","80","391178","0.0-61.0-0.0","CKN_130","130","","","","","","877","<button class=""jspsych-btn""><img src=""stimuli/turquoise.png"" style=""width: 200px;height: 200px;""></button>","0","turquoise","lightred","[""turquoise"",""lightred"",""low nameability""]","right-left","[""lightred"",""turquoise""]","2","low nameability","14","right","response","0"
"html-audio-button-response","81","391824","0.0-61.0-1.0","CKN_130","130","","","","","","null","stimuli/boing.m4a","null","turquoise","lightred","[""turquoise"",""lightred"",""low nameability""]","right-left","[""lightred"",""turquoise""]","2","low nameability","14","right","audio_feedback","0"
"html-button-response","82","394309","0.0-61.1-0.1","CKN_130","130","","","","","","2461","<button class=""jspsych-btn""><img src=""stimuli/turquoise.png"" style=""width: 200px;height: 200px;""></button>","1","turquoise","lightred","[""turquoise"",""lightred"",""low nameability""]","right-left","[""lightred"",""turquoise""]","2","low nameability","14","right","response","1"
"html-audio-button-response","83","394519","0.0-61.1-1.1","CKN_130","130","","","","","","null","stimuli/bleep.m4a","null","turquoise","lightred","[""turquoise"",""lightred"",""low nameability""]","right-left","[""lightred"",""turquoise""]","2","low nameability","14","right","audio_feedback","1"
"html-button-response","84","395027","0.0-62.0","CKN_130","130","","","","","","null","<button class=""jspsych-btn""><img src=""stimuli/white_square.png"" style=""width: 200px;height: 200px;""></button>","null","turquoise","lightred","[""turquoise"",""lightred"",""low nameability""]","right-left","[""lightred"",""turquoise""]","2","low nameability","14","right","iti",""
"html-button-response","85","397863","0.0-63.0","CKN_130","130","","","","","","2824","","0","neonyellow","lightred","[""neonyellow"",""lightred"",""low nameability""]","right-left","[""lightred"",""neonyellow""]","2","low nameability","15","right","trigger",""
"html-button-response","86","399011","0.0-64.0-0.0","CKN_130","130","","","","","","1139","<button class=""jspsych-btn""><img src=""stimuli/neonyellow.png"" style=""width: 200px;height: 200px;""></button>","1","neonyellow","lightred","[""neonyellow"",""lightred"",""low nameability""]","right-left","[""lightred"",""neonyellow""]","2","low nameability","15","right","response","1"
"html-audio-button-response","87","399219","0.0-64.0-1.0","CKN_130","130","","","","","","null","stimuli/bleep.m4a","null","neonyellow","lightred","[""neonyellow"",""lightred"",""low nameability""]","right-left","[""lightred"",""neonyellow""]","2","low nameability","15","right","audio_feedback","1"
"html-button-response","88","399749","0.0-65.0","CKN_130","130","","","","","","null","<button class=""jspsych-btn""><img src=""stimuli/white_square.png"" style=""width: 200px;height: 200px;""></button>","null","neonyellow","lightred","[""neonyellow"",""lightred"",""low nameability""]","right-left","[""lightred"",""neonyellow""]","2","low nameability","15","right","iti",""
"html-button-response","89","401869","0.0-66.0","CKN_130","130","","","","","","2114","","0","lightred","turquoise","[""lightred"",""turquoise"",""low nameability""]","right-left","[""turquoise"",""lightred""]","2","low nameability","16","right","trigger",""
"html-button-response","90","402523","0.0-67.0-0.0","CKN_130","130","","","","","","646","<button class=""jspsych-btn""><img src=""stimuli/lightred.png"" style=""width: 200px;height: 200px;""></button>","1","lightred","turquoise","[""lightred"",""turquoise"",""low nameability""]","right-left","[""turquoise"",""lightred""]","2","low nameability","16","right","response","1"
"html-audio-button-response","91","402728","0.0-67.0-1.0","CKN_130","130","","","","","","null","stimuli/bleep.m4a","null","lightred","turquoise","[""lightred"",""turquoise"",""low nameability""]","right-left","[""turquoise"",""lightred""]","2","low nameability","16","right","audio_feedback","1"
"html-button-response","92","403243","0.0-68.0","CKN_130","130","","","","","","null","<button class=""jspsych-btn""><img src=""stimuli/white_square.png"" style=""width: 200px;height: 200px;""></button>","null","lightred","turquoise","[""lightred"",""turquoise"",""low nameability""]","right-left","[""turquoise"",""lightred""]","2","low nameability","16","right","iti",""
"html-button-response","93","403890","0.0-69.0","CKN_130","130","","","","","","641","","0","pink","darkgreenblue","[""pink"",""darkgreenblue"",""low nameability""]","left-right","[""pink"",""darkgreenblue"",""low nameability""]","2","low nameability","17","left","trigger",""
"html-button-response","94","405122","0.0-70.0-0.0","CKN_130","130","","","","","","1224","<button class=""jspsych-btn""><img src=""stimuli/pink.png"" style=""width: 200px;height: 200px;""></button>","0","pink","darkgreenblue","[""pink"",""darkgreenblue"",""low nameability""]","left-right","[""pink"",""darkgreenblue"",""low nameability""]","2","low nameability","17","left","response","1"
"html-audio-button-response","95","405337","0.0-70.0-1.0","CKN_130","130","","","","","","null","stimuli/bleep.m4a","null","pink","darkgreenblue","[""pink"",""darkgreenblue"",""low nameability""]","left-right","[""pink"",""darkgreenblue"",""low nameability""]","2","low nameability","17","left","audio_feedback","1"
"html-button-response","96","405850","0.0-71.0","CKN_130","130","","","","","","null","<button class=""jspsych-btn""><img src=""stimuli/white_square.png"" style=""width: 200px;height: 200px;""></button>","null","pink","darkgreenblue","[""pink"",""darkgreenblue"",""low nameability""]","left-right","[""pink"",""darkgreenblue"",""low nameability""]","2","low nameability","17","left","iti",""
"html-button-response","97","408240","0.0-72.0","CKN_130","130","","","","","","2382","","0","blue","yellow","[""blue"",""yellow"",""high nameability""]","right-left","[""yellow"",""blue""]","2","high nameability","18","right","trigger",""
"html-button-response","98","409464","0.0-73.0-0.0","CKN_130","130","","","","","","1213","<button class=""jspsych-btn""><img src=""stimuli/blue.png"" style=""width: 200px;height: 200px;""></button>","1","blue","yellow","[""blue"",""yellow"",""high nameability""]","right-left","[""yellow"",""blue""]","2","high nameability","18","right","response","1"
"html-audio-button-response","99","409664","0.0-73.0-1.0","CKN_130","130","","","","","","null","stimuli/bleep.m4a","null","blue","yellow","[""blue"",""yellow"",""high nameability""]","right-left","[""yellow"",""blue""]","2","high nameability","18","right","audio_feedback","1"
"html-button-response","100","410175","0.0-74.0","CKN_130","130","","","","","","null","<button class=""jspsych-btn""><img src=""stimuli/white_square.png"" style=""width: 200px;height: 200px;""></button>","null","blue","yellow","[""blue"",""yellow"",""high nameability""]","right-left","[""yellow"",""blue""]","2","high nameability","18","right","iti",""
"html-button-response","101","411836","0.0-75.0","CKN_130","130","","","","","","1652","","0","red","orange","[""red"",""orange"",""high nameability""]","right-left","[""orange"",""red""]","2","high nameability","19","right","trigger",""
"html-button-response","102","412667","0.0-76.0-0.0","CKN_130","130","","","","","","824","<button class=""jspsych-btn""><img src=""stimuli/red.png"" style=""width: 200px;height: 200px;""></button>","1","red","orange","[""red"",""orange"",""high nameability""]","right-left","[""orange"",""red""]","2","high nameability","19","right","response","1"
"html-audio-button-response","103","412872","0.0-76.0-1.0","CKN_130","130","","","","","","null","stimuli/bleep.m4a","null","red","orange","[""red"",""orange"",""high nameability""]","right-left","[""orange"",""red""]","2","high nameability","19","right","audio_feedback","1"
"html-button-response","104","413390","0.0-77.0","CKN_130","130","","","","","","null","<button class=""jspsych-btn""><img src=""stimuli/white_square.png"" style=""width: 200px;height: 200px;""></button>","null","red","orange","[""red"",""orange"",""high nameability""]","right-left","[""orange"",""red""]","2","high nameability","19","right","iti",""
"html-button-response","105","414807","0.0-78.0","CKN_130","130","","","","","","1409","","0","mustard","darkgreenblue","[""mustard"",""darkgreenblue"",""low nameability""]","left-right","[""mustard"",""darkgreenblue"",""low nameability""]","2","low nameability","20","left","trigger",""
"html-button-response","106","420327","0.0-79.0-0.0","CKN_130","130","","","","","","5514","<button class=""jspsych-btn""><img src=""stimuli/mustard.png"" style=""width: 200px;height: 200px;""></button>","0","mustard","darkgreenblue","[""mustard"",""darkgreenblue"",""low nameability""]","left-right","[""mustard"",""darkgreenblue"",""low nameability""]","2","low nameability","20","left","response","1"
"html-audio-button-response","107","420544","0.0-79.0-1.0","CKN_130","130","","","","","","null","stimuli/bleep.m4a","null","mustard","darkgreenblue","[""mustard"",""darkgreenblue"",""low nameability""]","left-right","[""mustard"",""darkgreenblue"",""low nameability""]","2","low nameability","20","left","audio_feedback","1"
"html-button-response","108","421063","0.0-80.0","CKN_130","130","","","","","","null","<button class=""jspsych-btn""><img src=""stimuli/white_square.png"" style=""width: 200px;height: 200px;""></button>","null","mustard","darkgreenblue","[""mustard"",""darkgreenblue"",""low nameability""]","left-right","[""mustard"",""darkgreenblue"",""low nameability""]","2","low nameability","20","left","iti",""
"pavlovia","109","421175","0.0-81.0","CKN_130","130","","","","","","","","","","","","","","","","","","",""
"pavlovia","110","421192","0.0-82.0","CKN_130","130","","","","","","","","","","","","","","","","","","",""
"html-audio-button-response","111","425846","0.0-83.0","CKN_130","130","","","","","","4781","stimuli/tada.m4a","0","","","","","","","","","","",""
"html-button-response","112","426511","0.0-84.0","CKN_130","130","","","","","","660","","0","","","","","","","","","","",""
"html-button-response","113","428367","0.0-85.0","CKN_130","130","","","","","","1851","","0","darkgreenblue","lightred","[""darkgreenblue"",""lightred"",""low nameability""]","right-left","[""lightred"",""darkgreenblue""]","3","low nameability","21","right","trigger",""
"html-button-response","114","431471","0.0-86.0-0.0","CKN_130","130","","","","","","3090","<button class=""jspsych-btn""><img src=""stimuli/darkgreenblue.png"" style=""width: 200px;height: 200px;""></button>","1","darkgreenblue","lightred","[""darkgreenblue"",""lightred"",""low nameability""]","right-left","[""lightred"",""darkgreenblue""]","3","low nameability","21","right","response","1"
"html-audio-button-response","115","431687","0.0-86.0-1.0","CKN_130","130","","","","","","null","stimuli/bleep.m4a","null","darkgreenblue","lightred","[""darkgreenblue"",""lightred"",""low nameability""]","right-left","[""lightred"",""darkgreenblue""]","3","low nameability","21","right","audio_feedback","1"
"html-button-response","116","432210","0.0-87.0","CKN_130","130","","","","","","45","<button class=""jspsych-btn""><img src=""stimuli/white_square.png"" style=""width: 200px;height: 200px;""></button>","1","darkgreenblue","lightred","[""darkgreenblue"",""lightred"",""low nameability""]","right-left","[""lightred"",""darkgreenblue""]","3","low nameability","21","right","iti",""
"html-button-response","117","433350","0.0-88.0","CKN_130","130","","","","","","1127","","0","brown","yellow","[""brown"",""yellow"",""high nameability""]","right-left","[""yellow"",""brown""]","3","high nameability","22","right","trigger",""
"html-button-response","118","433911","0.0-89.0-0.0","CKN_130","130","","","","","","547","<button class=""jspsych-btn""><img src=""stimuli/brown.png"" style=""width: 200px;height: 200px;""></button>","1","brown","yellow","[""brown"",""yellow"",""high nameability""]","right-left","[""yellow"",""brown""]","3","high nameability","22","right","response","1"
"html-audio-button-response","119","434121","0.0-89.0-1.0","CKN_130","130","","","","","","null","stimuli/bleep.m4a","null","brown","yellow","[""brown"",""yellow"",""high nameability""]","right-left","[""yellow"",""brown""]","3","high nameability","22","right","audio_feedback","1"
"html-button-response","120","434637","0.0-90.0","CKN_130","130","","","","","","null","<button class=""jspsych-btn""><img src=""stimuli/white_square.png"" style=""width: 200px;height: 200px;""></button>","null","brown","yellow","[""brown"",""yellow"",""high nameability""]","right-left","[""yellow"",""brown""]","3","high nameability","22","right","iti",""
"html-button-response","121","436513","0.0-91.0","CKN_130","130","","","","","","1848","","0","yellow","red","[""yellow"",""red"",""high nameability""]","left-right","[""yellow"",""red"",""high nameability""]","3","high nameability","23","left","trigger",""
"html-button-response","122","437970","0.0-92.0-0.0","CKN_130","130","","","","","","1432","<button class=""jspsych-btn""><img src=""stimuli/yellow.png"" style=""width: 200px;height: 200px;""></button>","0","yellow","red","[""yellow"",""red"",""high nameability""]","left-right","[""yellow"",""red"",""high nameability""]","3","high nameability","23","left","response","1"
"html-audio-button-response","123","438199","0.0-92.0-1.0","CKN_130","130","","","","","","null","stimuli/bleep.m4a","null","yellow","red","[""yellow"",""red"",""high nameability""]","left-right","[""yellow"",""red"",""high nameability""]","3","high nameability","23","left","audio_feedback","1"
"html-button-response","124","438721","0.0-93.0","CKN_130","130","","","","","","55","<button class=""jspsych-btn""><img src=""stimuli/white_square.png"" style=""width: 200px;height: 200px;""></button>","0","yellow","red","[""yellow"",""red"",""high nameability""]","left-right","[""yellow"",""red"",""high nameability""]","3","high nameability","23","left","iti",""
"html-button-response","125","443045","0.0-94.0","CKN_130","130","","","","","","4304","","0","neonyellow","turquoise","[""neonyellow"",""turquoise"",""low nameability""]","right-left","[""turquoise"",""neonyellow""]","3","low nameability","24","right","trigger",""
"html-button-response","126","443948","0.0-95.0-0.0","CKN_130","130","","","","","","892","<button class=""jspsych-btn""><img src=""stimuli/neonyellow.png"" style=""width: 200px;height: 200px;""></button>","1","neonyellow","turquoise","[""neonyellow"",""turquoise"",""low nameability""]","right-left","[""turquoise"",""neonyellow""]","3","low nameability","24","right","response","1"
"html-audio-button-response","127","444159","0.0-95.0-1.0","CKN_130","130","","","","","","null","stimuli/bleep.m4a","null","neonyellow","turquoise","[""neonyellow"",""turquoise"",""low nameability""]","right-left","[""turquoise"",""neonyellow""]","3","low nameability","24","right","audio_feedback","1"
"html-button-response","128","444673","0.0-96.0","CKN_130","130","","","","","","null","<button class=""jspsych-btn""><img src=""stimuli/white_square.png"" style=""width: 200px;height: 200px;""></button>","null","neonyellow","turquoise","[""neonyellow"",""turquoise"",""low nameability""]","right-left","[""turquoise"",""neonyellow""]","3","low nameability","24","right","iti",""
"html-button-response","129","446177","0.0-97.0","CKN_130","130","","","","","","1480","","0","red","purple","[""red"",""purple"",""high nameability""]","right-left","[""purple"",""red""]","3","high nameability","25","right","trigger",""
"html-button-response","130","447449","0.0-98.0-0.0","CKN_130","130","","","","","","1264","<button class=""jspsych-btn""><img src=""stimuli/red.png"" style=""width: 200px;height: 200px;""></button>","1","red","purple","[""red"",""purple"",""high nameability""]","right-left","[""purple"",""red""]","3","high nameability","25","right","response","1"
"html-audio-button-response","131","447659","0.0-98.0-1.0","CKN_130","130","","","","","","null","stimuli/bleep.m4a","null","red","purple","[""red"",""purple"",""high nameability""]","right-left","[""purple"",""red""]","3","high nameability","25","right","audio_feedback","1"
"html-button-response","132","448197","0.0-99.0","CKN_130","130","","","","","","null","<button class=""jspsych-btn""><img src=""stimuli/white_square.png"" style=""width: 200px;height: 200px;""></button>","null","red","purple","[""red"",""purple"",""high nameability""]","right-left","[""purple"",""red""]","3","high nameability","25","right","iti",""
"html-button-response","133","449438","0.0-100.0","CKN_130","130","","","","","","1222","","0","mustard","pink","[""mustard"",""pink"",""low nameability""]","left-right","[""mustard"",""pink"",""low nameability""]","3","low nameability","26","left","trigger",""
"html-button-response","134","451340","0.0-101.0-0.0","CKN_130","130","","","","","","1897","<button class=""jspsych-btn""><img src=""stimuli/mustard.png"" style=""width: 200px;height: 200px;""></button>","0","mustard","pink","[""mustard"",""pink"",""low nameability""]","left-right","[""mustard"",""pink"",""low nameability""]","3","low nameability","26","left","response","1"
"html-audio-button-response","135","451544","0.0-101.0-1.0","CKN_130","130","","","","","","null","stimuli/bleep.m4a","null","mustard","pink","[""mustard"",""pink"",""low nameability""]","left-right","[""mustard"",""pink"",""low nameability""]","3","low nameability","26","left","audio_feedback","1"
"html-button-response","136","452064","0.0-102.0","CKN_130","130","","","","","","null","<button class=""jspsych-btn""><img src=""stimuli/white_square.png"" style=""width: 200px;height: 200px;""></button>","null","mustard","pink","[""mustard"",""pink"",""low nameability""]","left-right","[""mustard"",""pink"",""low nameability""]","3","low nameability","26","left","iti",""
"html-button-response","137","453872","0.0-103.0","CKN_130","130","","","","","","1790","","0","purple","yellow","[""purple"",""yellow"",""high nameability""]","right-left","[""yellow"",""purple""]","3","high nameability","27","right","trigger",""
"html-button-response","138","455036","0.0-104.0-0.0","CKN_130","130","","","","","","1156","<button class=""jspsych-btn""><img src=""stimuli/purple.png"" style=""width: 200px;height: 200px;""></button>","1","purple","yellow","[""purple"",""yellow"",""high nameability""]","right-left","[""yellow"",""purple""]","3","high nameability","27","right","response","1"
"html-audio-button-response","139","455281","0.0-104.0-1.0","CKN_130","130","","","","","","null","stimuli/bleep.m4a","null","purple","yellow","[""purple"",""yellow"",""high nameability""]","right-left","[""yellow"",""purple""]","3","high nameability","27","right","audio_feedback","1"
"html-button-response","140","455797","0.0-105.0","CKN_130","130","","","","","","null","<button class=""jspsych-btn""><img src=""stimuli/white_square.png"" style=""width: 200px;height: 200px;""></button>","null","purple","yellow","[""purple"",""yellow"",""high nameability""]","right-left","[""yellow"",""purple""]","3","high nameability","27","right","iti",""
"html-button-response","141","459451","0.0-106.0","CKN_130","130","","","","","","3640","","0","orange","blue","[""orange"",""blue"",""high nameability""]","left-right","[""orange"",""blue"",""high nameability""]","3","high nameability","28","left","trigger",""
"html-button-response","142","460298","0.0-107.0-0.0","CKN_130","130","","","","","","835","<button class=""jspsych-btn""><img src=""stimuli/orange.png"" style=""width: 200px;height: 200px;""></button>","1","orange","blue","[""orange"",""blue"",""high nameability""]","left-right","[""orange"",""blue"",""high nameability""]","3","high nameability","28","left","response","0"
"html-audio-button-response","143","460951","0.0-107.0-1.0","CKN_130","130","","","","","","null","stimuli/boing.m4a","null","orange","blue","[""orange"",""blue"",""high nameability""]","left-right","[""orange"",""blue"",""high nameability""]","3","high nameability","28","left","audio_feedback","0"
"html-button-response","144","467117","0.0-107.1-0.1","CKN_130","130","","","","","","6144","<button class=""jspsych-btn""><img src=""stimuli/orange.png"" style=""width: 200px;height: 200px;""></button>","0","orange","blue","[""orange"",""blue"",""high nameability""]","left-right","[""orange"",""blue"",""high nameability""]","3","high nameability","28","left","response","1"
"html-audio-button-response","145","467320","0.0-107.1-1.1","CKN_130","130","","","","","","null","stimuli/bleep.m4a","null","orange","blue","[""orange"",""blue"",""high nameability""]","left-right","[""orange"",""blue"",""high nameability""]","3","high nameability","28","left","audio_feedback","1"
"html-button-response","146","467836","0.0-108.0","CKN_130","130","","","","","","null","<button class=""jspsych-btn""><img src=""stimuli/white_square.png"" style=""width: 200px;height: 200px;""></button>","null","orange","blue","[""orange"",""blue"",""high nameability""]","left-right","[""orange"",""blue"",""high nameability""]","3","high nameability","28","left","iti",""
"html-button-response","147","472017","0.0-109.0","CKN_130","130","","","","","","4166","","0","blue","orange","[""blue"",""orange"",""high nameability""]","right-left","[""orange"",""blue""]","3","high nameability","29","right","trigger",""
"html-button-response","148","473349","0.0-110.0-0.0","CKN_130","130","","","","","","1323","<button class=""jspsych-btn""><img src=""stimuli/blue.png"" style=""width: 200px;height: 200px;""></button>","1","blue","orange","[""blue"",""orange"",""high nameability""]","right-left","[""orange"",""blue""]","3","high nameability","29","right","response","1"
"html-audio-button-response","149","473559","0.0-110.0-1.0","CKN_130","130","","","","","","null","stimuli/bleep.m4a","null","blue","orange","[""blue"",""orange"",""high nameability""]","right-left","[""orange"",""blue""]","3","high nameability","29","right","audio_feedback","1"
"html-button-response","150","474086","0.0-111.0","CKN_130","130","","","","","","null","<button class=""jspsych-btn""><img src=""stimuli/white_square.png"" style=""width: 200px;height: 200px;""></button>","null","blue","orange","[""blue"",""orange"",""high nameability""]","right-left","[""orange"",""blue""]","3","high nameability","29","right","iti",""
"html-button-response","151","475560","0.0-112.0","CKN_130","130","","","","","","1460","","0","darkgreenblue","mustard","[""darkgreenblue"",""mustard"",""low nameability""]","right-left","[""mustard"",""darkgreenblue""]","3","low nameability","30","right","trigger",""
"html-button-response","152","476324","0.0-113.0-0.0","CKN_130","130","","","","","","756","<button class=""jspsych-btn""><img src=""stimuli/darkgreenblue.png"" style=""width: 200px;height: 200px;""></button>","1","darkgreenblue","mustard","[""darkgreenblue"",""mustard"",""low nameability""]","right-left","[""mustard"",""darkgreenblue""]","3","low nameability","30","right","response","1"
"html-audio-button-response","153","476530","0.0-113.0-1.0","CKN_130","130","","","","","","null","stimuli/bleep.m4a","null","darkgreenblue","mustard","[""darkgreenblue"",""mustard"",""low nameability""]","right-left","[""mustard"",""darkgreenblue""]","3","low nameability","30","right","audio_feedback","1"
"html-button-response","154","477045","0.0-114.0","CKN_130","130","","","","","","null","<button class=""jspsych-btn""><img src=""stimuli/white_square.png"" style=""width: 200px;height: 200px;""></button>","null","darkgreenblue","mustard","[""darkgreenblue"",""mustard"",""low nameability""]","right-left","[""mustard"",""darkgreenblue""]","3","low nameability","30","right","iti",""
"pavlovia","155","477138","0.0-115.0","CKN_130","130","","","","","","","","","","","","","","","","","","",""
"pavlovia","156","477151","0.0-116.0","CKN_130","130","","","","","","","","","","","","","","","","","","",""
"html-audio-button-response","157","480818","0.0-117.0","CKN_130","130","","","","","","3768","stimuli/tada.m4a","0","","","","","","","","","","",""
"html-button-response","158","481475","0.0-118.0","CKN_130","130","","","","","","651","","0","","","","","","","","","","",""
"html-button-response","159","483579","0.0-119.0","CKN_130","130","","","","","","2099","","0","neonyellow","darkgreenblue","[""neonyellow"",""darkgreenblue"",""low nameability""]","right-left","[""darkgreenblue"",""neonyellow""]","4","low nameability","31","right","trigger",""
"html-button-response","160","488678","0.0-120.0-0.0","CKN_130","130","","","","","","5086","<button class=""jspsych-btn""><img src=""stimuli/neonyellow.png"" style=""width: 200px;height: 200px;""></button>","1","neonyellow","darkgreenblue","[""neonyellow"",""darkgreenblue"",""low nameability""]","right-left","[""darkgreenblue"",""neonyellow""]","4","low nameability","31","right","response","1"
"html-audio-button-response","161","488906","0.0-120.0-1.0","CKN_130","130","","","","","","null","stimuli/bleep.m4a","null","neonyellow","darkgreenblue","[""neonyellow"",""darkgreenblue"",""low nameability""]","right-left","[""darkgreenblue"",""neonyellow""]","4","low nameability","31","right","audio_feedback","1"
"html-button-response","162","489417","0.0-121.0","CKN_130","130","","","","","","null","<button class=""jspsych-btn""><img src=""stimuli/white_square.png"" style=""width: 200px;height: 200px;""></button>","null","neonyellow","darkgreenblue","[""neonyellow"",""darkgreenblue"",""low nameability""]","right-left","[""darkgreenblue"",""neonyellow""]","4","low nameability","31","right","iti",""
"html-button-response","163","493167","0.0-122.0","CKN_130","130","","","","","","3743","","0","turquoise","darkgreenblue","[""turquoise"",""darkgreenblue"",""low nameability""]","right-left","[""darkgreenblue"",""turquoise""]","4","low nameability","32","right","trigger",""
"html-button-response","164","494226","0.0-123.0-0.0","CKN_130","130","","","","","","1051","<button class=""jspsych-btn""><img src=""stimuli/turquoise.png"" style=""width: 200px;height: 200px;""></button>","1","turquoise","darkgreenblue","[""turquoise"",""darkgreenblue"",""low nameability""]","right-left","[""darkgreenblue"",""turquoise""]","4","low nameability","32","right","response","1"
"html-audio-button-response","165","494439","0.0-123.0-1.0","CKN_130","130","","","","","","null","stimuli/bleep.m4a","null","turquoise","darkgreenblue","[""turquoise"",""darkgreenblue"",""low nameability""]","right-left","[""darkgreenblue"",""turquoise""]","4","low nameability","32","right","audio_feedback","1"
"html-button-response","166","494954","0.0-124.0","CKN_130","130","","","","","","null","<button class=""jspsych-btn""><img src=""stimuli/white_square.png"" style=""width: 200px;height: 200px;""></button>","null","turquoise","darkgreenblue","[""turquoise"",""darkgreenblue"",""low nameability""]","right-left","[""darkgreenblue"",""turquoise""]","4","low nameability","32","right","iti",""
"html-button-response","167","497537","0.0-125.0","CKN_130","130","","","","","","2562","","0","brown","orange","[""brown"",""orange"",""high nameability""]","right-left","[""orange"",""brown""]","4","high nameability","33","right","trigger",""
"html-button-response","168","499129","0.0-126.0-0.0","CKN_130","130","","","","","","1573","<button class=""jspsych-btn""><img src=""stimuli/brown.png"" style=""width: 200px;height: 200px;""></button>","0","brown","orange","[""brown"",""orange"",""high nameability""]","right-left","[""orange"",""brown""]","4","high nameability","33","right","response","0"
"html-audio-button-response","169","499771","0.0-126.0-1.0","CKN_130","130","","","","","","null","stimuli/boing.m4a","null","brown","orange","[""brown"",""orange"",""high nameability""]","right-left","[""orange"",""brown""]","4","high nameability","33","right","audio_feedback","0"
"html-button-response","170","500124","0.0-126.1-0.1","CKN_130","130","","","","","","326","<button class=""jspsych-btn""><img src=""stimuli/brown.png"" style=""width: 200px;height: 200px;""></button>","1","brown","orange","[""brown"",""orange"",""high nameability""]","right-left","[""orange"",""brown""]","4","high nameability","33","right","response","1"
"html-audio-button-response","171","500362","0.0-126.1-1.1","CKN_130","130","","","","","","null","stimuli/bleep.m4a","null","brown","orange","[""brown"",""orange"",""high nameability""]","right-left","[""orange"",""brown""]","4","high nameability","33","right","audio_feedback","1"
"html-button-response","172","500886","0.0-127.0","CKN_130","130","","","","","","null","<button class=""jspsych-btn""><img src=""stimuli/white_square.png"" style=""width: 200px;height: 200px;""></button>","null","brown","orange","[""brown"",""orange"",""high nameability""]","right-left","[""orange"",""brown""]","4","high nameability","33","right","iti",""
"html-button-response","173","503691","0.0-128.0","CKN_130","130","","","","","","2791","","0","brown","blue","[""brown"",""blue"",""high nameability""]","left-right","[""brown"",""blue"",""high nameability""]","4","high nameability","34","left","trigger",""
"html-button-response","174","504952","0.0-129.0-0.0","CKN_130","130","","","","","","1240","<button class=""jspsych-btn""><img src=""stimuli/brown.png"" style=""width: 200px;height: 200px;""></button>","0","brown","blue","[""brown"",""blue"",""high nameability""]","left-right","[""brown"",""blue"",""high nameability""]","4","high nameability","34","left","response","1"
"html-audio-button-response","175","505160","0.0-129.0-1.0","CKN_130","130","","","","","","null","stimuli/bleep.m4a","null","brown","blue","[""brown"",""blue"",""high nameability""]","left-right","[""brown"",""blue"",""high nameability""]","4","high nameability","34","left","audio_feedback","1"
"html-button-response","176","505682","0.0-130.0","CKN_130","130","","","","","","null","<button class=""jspsych-btn""><img src=""stimuli/white_square.png"" style=""width: 200px;height: 200px;""></button>","null","brown","blue","[""brown"",""blue"",""high nameability""]","left-right","[""brown"",""blue"",""high nameability""]","4","high nameability","34","left","iti",""
"html-button-response","177","509454","0.0-131.0","CKN_130","130","","","","","","3759","","0","neonyellow","mustard","[""neonyellow"",""mustard"",""low nameability""]","right-left","[""mustard"",""neonyellow""]","4","low nameability","35","right","trigger",""
"html-button-response","178","510200","0.0-132.0-0.0","CKN_130","130","","","","","","727","<button class=""jspsych-btn""><img src=""stimuli/neonyellow.png"" style=""width: 200px;height: 200px;""></button>","0","neonyellow","mustard","[""neonyellow"",""mustard"",""low nameability""]","right-left","[""mustard"",""neonyellow""]","4","low nameability","35","right","response","0"
"html-audio-button-response","179","510823","0.0-132.0-1.0","CKN_130","130","","","","","","null","stimuli/boing.m4a","null","neonyellow","mustard","[""neonyellow"",""mustard"",""low nameability""]","right-left","[""mustard"",""neonyellow""]","4","low nameability","35","right","audio_feedback","0"
"html-button-response","180","512584","0.0-132.1-0.1","CKN_130","130","","","","","","1750","<button class=""jspsych-btn""><img src=""stimuli/neonyellow.png"" style=""width: 200px;height: 200px;""></button>","0","neonyellow","mustard","[""neonyellow"",""mustard"",""low nameability""]","right-left","[""mustard"",""neonyellow""]","4","low nameability","35","right","response","0"
"html-audio-button-response","181","513224","0.0-132.1-1.1","CKN_130","130","","","","","","null","stimuli/boing.m4a","null","neonyellow","mustard","[""neonyellow"",""mustard"",""low nameability""]","right-left","[""mustard"",""neonyellow""]","4","low nameability","35","right","audio_feedback","0"
"html-button-response","182","513749","0.0-132.2-0.2","CKN_130","130","","","","","","494","<button class=""jspsych-btn""><img src=""stimuli/neonyellow.png"" style=""width: 200px;height: 200px;""></button>","1","neonyellow","mustard","[""neonyellow"",""mustard"",""low nameability""]","right-left","[""mustard"",""neonyellow""]","4","low nameability","35","right","response","1"
"html-audio-button-response","183","513964","0.0-132.2-1.2","CKN_130","130","","","","","","null","stimuli/bleep.m4a","null","neonyellow","mustard","[""neonyellow"",""mustard"",""low nameability""]","right-left","[""mustard"",""neonyellow""]","4","low nameability","35","right","audio_feedback","1"
"html-button-response","184","514481","0.0-133.0","CKN_130","130","","","","","","null","<button class=""jspsych-btn""><img src=""stimuli/white_square.png"" style=""width: 200px;height: 200px;""></button>","null","neonyellow","mustard","[""neonyellow"",""mustard"",""low nameability""]","right-left","[""mustard"",""neonyellow""]","4","low nameability","35","right","iti",""
"html-button-response","185","517272","0.0-134.0","CKN_130","130","","","","","","2781","","0","mustard","lightred","[""mustard"",""lightred"",""low nameability""]","right-left","[""lightred"",""mustard""]","4","low nameability","36","right","trigger",""
"html-button-response","186","518200","0.0-135.0-0.0","CKN_130","130","","","","","","919","<button class=""jspsych-btn""><img src=""stimuli/mustard.png"" style=""width: 200px;height: 200px;""></button>","1","mustard","lightred","[""mustard"",""lightred"",""low nameability""]","right-left","[""lightred"",""mustard""]","4","low nameability","36","right","response","1"
"html-audio-button-response","187","518408","0.0-135.0-1.0","CKN_130","130","","","","","","null","stimuli/bleep.m4a","null","mustard","lightred","[""mustard"",""lightred"",""low nameability""]","right-left","[""lightred"",""mustard""]","4","low nameability","36","right","audio_feedback","1"
"html-button-response","188","518923","0.0-136.0","CKN_130","130","","","","","","null","<button class=""jspsych-btn""><img src=""stimuli/white_square.png"" style=""width: 200px;height: 200px;""></button>","null","mustard","lightred","[""mustard"",""lightred"",""low nameability""]","right-left","[""lightred"",""mustard""]","4","low nameability","36","right","iti",""
"html-button-response","189","521130","0.0-137.0","CKN_130","130","","","","","","2201","","0","pink","neonyellow","[""pink"",""neonyellow"",""low nameability""]","right-left","[""neonyellow"",""pink""]","4","low nameability","37","right","trigger",""
"html-button-response","190","521855","0.0-138.0-0.0","CKN_130","130","","","","","","718","<button class=""jspsych-btn""><img src=""stimuli/pink.png"" style=""width: 200px;height: 200px;""></button>","1","pink","neonyellow","[""pink"",""neonyellow"",""low nameability""]","right-left","[""neonyellow"",""pink""]","4","low nameability","37","right","response","1"
"html-audio-button-response","191","522074","0.0-138.0-1.0","CKN_130","130","","","","","","null","stimuli/bleep.m4a","null","pink","neonyellow","[""pink"",""neonyellow"",""low nameability""]","right-left","[""neonyellow"",""pink""]","4","low nameability","37","right","audio_feedback","1"
"html-button-response","192","522587","0.0-139.0","CKN_130","130","","","","","","null","<button class=""jspsych-btn""><img src=""stimuli/white_square.png"" style=""width: 200px;height: 200px;""></button>","null","pink","neonyellow","[""pink"",""neonyellow"",""low nameability""]","right-left","[""neonyellow"",""pink""]","4","low nameability","37","right","iti",""
"html-button-response","193","525876","0.0-140.0","CKN_130","130","","","","","","3274","","0","yellow","blue","[""yellow"",""blue"",""high nameability""]","right-left","[""blue"",""yellow""]","4","high nameability","38","right","trigger",""
"html-button-response","194","526559","0.0-141.0-0.0","CKN_130","130","","","","","","673","<button class=""jspsych-btn""><img src=""stimuli/yellow.png"" style=""width: 200px;height: 200px;""></button>","1","yellow","blue","[""yellow"",""blue"",""high nameability""]","right-left","[""blue"",""yellow""]","4","high nameability","38","right","response","1"
"html-audio-button-response","195","526768","0.0-141.0-1.0","CKN_130","130","","","","","","null","stimuli/bleep.m4a","null","yellow","blue","[""yellow"",""blue"",""high nameability""]","right-left","[""blue"",""yellow""]","4","high nameability","38","right","audio_feedback","1"
"html-button-response","196","527298","0.0-142.0","CKN_130","130","","","","","","null","<button class=""jspsych-btn""><img src=""stimuli/white_square.png"" style=""width: 200px;height: 200px;""></button>","null","yellow","blue","[""yellow"",""blue"",""high nameability""]","right-left","[""blue"",""yellow""]","4","high nameability","38","right","iti",""
"html-button-response","197","529487","0.0-143.0","CKN_130","130","","","","","","2174","","0","purple","brown","[""purple"",""brown"",""high nameability""]","left-right","[""purple"",""brown"",""high nameability""]","4","high nameability","39","left","trigger",""
"html-button-response","198","530977","0.0-144.0-0.0","CKN_130","130","","","","","","1483","<button class=""jspsych-btn""><img src=""stimuli/purple.png"" style=""width: 200px;height: 200px;""></button>","0","purple","brown","[""purple"",""brown"",""high nameability""]","left-right","[""purple"",""brown"",""high nameability""]","4","high nameability","39","left","response","1"
"html-audio-button-response","199","531183","0.0-144.0-1.0","CKN_130","130","","","","","","null","stimuli/bleep.m4a","null","purple","brown","[""purple"",""brown"",""high nameability""]","left-right","[""purple"",""brown"",""high nameability""]","4","high nameability","39","left","audio_feedback","1"
"html-button-response","200","531693","0.0-145.0","CKN_130","130","","","","","","null","<button class=""jspsych-btn""><img src=""stimuli/white_square.png"" style=""width: 200px;height: 200px;""></button>","null","purple","brown","[""purple"",""brown"",""high nameability""]","left-right","[""purple"",""brown"",""high nameability""]","4","high nameability","39","left","iti",""
"html-button-response","201","534409","0.0-146.0","CKN_130","130","","","","","","2706","","0","mustard","turquoise","[""mustard"",""turquoise"",""low nameability""]","left-right","[""mustard"",""turquoise"",""low nameability""]","4","low nameability","40","left","trigger",""
"html-button-response","202","539081","0.0-147.0-0.0","CKN_130","130","","","","","","4660","<button class=""jspsych-btn""><img src=""stimuli/mustard.png"" style=""width: 200px;height: 200px;""></button>","0","mustard","turquoise","[""mustard"",""turquoise"",""low nameability""]","left-right","[""mustard"",""turquoise"",""low nameability""]","4","low nameability","40","left","response","1"
"html-audio-button-response","203","539298","0.0-147.0-1.0","CKN_130","130","","","","","","null","stimuli/bleep.m4a","null","mustard","turquoise","[""mustard"",""turquoise"",""low nameability""]","left-right","[""mustard"",""turquoise"",""low nameability""]","4","low nameability","40","left","audio_feedback","1"
"html-button-response","204","539809","0.0-148.0","CKN_130","130","","","","","","null","<button class=""jspsych-btn""><img src=""stimuli/white_square.png"" style=""width: 200px;height: 200px;""></button>","null","mustard","turquoise","[""mustard"",""turquoise"",""low nameability""]","left-right","[""mustard"",""turquoise"",""low nameability""]","4","low nameability","40","left","iti",""
"pavlovia","205","539893","0.0-149.0","CKN_130","130","","","","","","","","","","","","","","","","","","",""
"pavlovia","206","539905","0.0-150.0","CKN_130","130","","","","","","","","","","","","","","","","","","",""
"html-audio-button-response","207","543743","0.0-151.0","CKN_130","130","","","","","","3928","stimuli/tada.m4a","0","","","","","","","","","","",""
"html-button-response","208","544462","0.0-152.0","CKN_130","130","","","","","","714","","0","","","","","","","","","","",""
"html-button-response","209","546528","0.0-153.0","CKN_130","130","","","","","","2060","","0","darkgreenblue","pink","[""darkgreenblue"",""pink"",""low nameability""]","left-right","[""darkgreenblue"",""pink"",""low nameability""]","5","low nameability","41","left","trigger",""
"html-button-response","210","552397","0.0-154.0-0.0","CKN_130","130","","","","","","5856","<button class=""jspsych-btn""><img src=""stimuli/darkgreenblue.png"" style=""width: 200px;height: 200px;""></button>","0","darkgreenblue","pink","[""darkgreenblue"",""pink"",""low nameability""]","left-right","[""darkgreenblue"",""pink"",""low nameability""]","5","low nameability","41","left","response","1"
"html-audio-button-response","211","552611","0.0-154.0-1.0","CKN_130","130","","","","","","null","stimuli/bleep.m4a","null","darkgreenblue","pink","[""darkgreenblue"",""pink"",""low nameability""]","left-right","[""darkgreenblue"",""pink"",""low nameability""]","5","low nameability","41","left","audio_feedback","1"
"html-button-response","212","553132","0.0-155.0","CKN_130","130","","","","","","null","<button class=""jspsych-btn""><img src=""stimuli/white_square.png"" style=""width: 200px;height: 200px;""></button>","null","darkgreenblue","pink","[""darkgreenblue"",""pink"",""low nameability""]","left-right","[""darkgreenblue"",""pink"",""low nameability""]","5","low nameability","41","left","iti",""
"html-button-response","213","554143","0.0-156.0","CKN_130","130","","","","","","995","","0","red","brown","[""red"",""brown"",""high nameability""]","left-right","[""red"",""brown"",""high nameability""]","5","high nameability","42","left","trigger",""
"html-button-response","214","555039","0.0-157.0-0.0","CKN_130","130","","","","","","887","<button class=""jspsych-btn""><img src=""stimuli/red.png"" style=""width: 200px;height: 200px;""></button>","0","red","brown","[""red"",""brown"",""high nameability""]","left-right","[""red"",""brown"",""high nameability""]","5","high nameability","42","left","response","1"
"html-audio-button-response","215","555239","0.0-157.0-1.0","CKN_130","130","","","","","","null","stimuli/bleep.m4a","null","red","brown","[""red"",""brown"",""high nameability""]","left-right","[""red"",""brown"",""high nameability""]","5","high nameability","42","left","audio_feedback","1"
"html-button-response","216","555750","0.0-158.0","CKN_130","130","","","","","","null","<button class=""jspsych-btn""><img src=""stimuli/white_square.png"" style=""width: 200px;height: 200px;""></button>","null","red","brown","[""red"",""brown"",""high nameability""]","left-right","[""red"",""brown"",""high nameability""]","5","high nameability","42","left","iti",""
"html-button-response","217","557587","0.0-159.0","CKN_130","130","","","","","","1823","","0","red","blue","[""red"",""blue"",""high nameability""]","left-right","[""red"",""blue"",""high nameability""]","5","high nameability","43","left","trigger",""
"html-button-response","218","558830","0.0-160.0-0.0","CKN_130","130","","","","","","1236","<button class=""jspsych-btn""><img src=""stimuli/red.png"" style=""width: 200px;height: 200px;""></button>","0","red","blue","[""red"",""blue"",""high nameability""]","left-right","[""red"",""blue"",""high nameability""]","5","high nameability","43","left","response","1"
"html-audio-button-response","219","559033","0.0-160.0-1.0","CKN_130","130","","","","","","null","stimuli/bleep.m4a","null","red","blue","[""red"",""blue"",""high nameability""]","left-right","[""red"",""blue"",""high nameability""]","5","high nameability","43","left","audio_feedback","1"
"html-button-response","220","559553","0.0-161.0","CKN_130","130","","","","","","null","<button class=""jspsych-btn""><img src=""stimuli/white_square.png"" style=""width: 200px;height: 200px;""></button>","null","red","blue","[""red"",""blue"",""high nameability""]","left-right","[""red"",""blue"",""high nameability""]","5","high nameability","43","left","iti",""
"html-button-response","221","560558","0.0-162.0","CKN_130","130","","","","","","986","","0","turquoise","mustard","[""turquoise"",""mustard"",""low nameability""]","left-right","[""turquoise"",""mustard"",""low nameability""]","5","low nameability","44","left","trigger",""
"html-button-response","222","562129","0.0-163.0-0.0","CKN_130","130","","","","","","1560","<button class=""jspsych-btn""><img src=""stimuli/turquoise.png"" style=""width: 200px;height: 200px;""></button>","0","turquoise","mustard","[""turquoise"",""mustard"",""low nameability""]","left-right","[""turquoise"",""mustard"",""low nameability""]","5","low nameability","44","left","response","1"
"html-audio-button-response","223","562348","0.0-163.0-1.0","CKN_130","130","","","","","","null","stimuli/bleep.m4a","null","turquoise","mustard","[""turquoise"",""mustard"",""low nameability""]","left-right","[""turquoise"",""mustard"",""low nameability""]","5","low nameability","44","left","audio_feedback","1"
"html-button-response","224","562885","0.0-164.0","CKN_130","130","","","","","","null","<button class=""jspsych-btn""><img src=""stimuli/white_square.png"" style=""width: 200px;height: 200px;""></button>","null","turquoise","mustard","[""turquoise"",""mustard"",""low nameability""]","left-right","[""turquoise"",""mustard"",""low nameability""]","5","low nameability","44","left","iti",""
"html-button-response","225","563602","0.0-165.0","CKN_130","130","","","","","","702","","0","brown","purple","[""brown"",""purple"",""high nameability""]","left-right","[""brown"",""purple"",""high nameability""]","5","high nameability","45","left","trigger",""
"html-button-response","226","564294","0.0-166.0-0.0","CKN_130","130","","","","","","679","<button class=""jspsych-btn""><img src=""stimuli/brown.png"" style=""width: 200px;height: 200px;""></button>","1","brown","purple","[""brown"",""purple"",""high nameability""]","left-right","[""brown"",""purple"",""high nameability""]","5","high nameability","45","left","response","0"
"html-audio-button-response","227","564941","0.0-166.0-1.0","CKN_130","130","","","","","","null","stimuli/boing.m4a","null","brown","purple","[""brown"",""purple"",""high nameability""]","left-right","[""brown"",""purple"",""high nameability""]","5","high nameability","45","left","audio_feedback","0"
"html-button-response","228","566091","0.0-166.1-0.1","CKN_130","130","","","","","","1120","<button class=""jspsych-btn""><img src=""stimuli/brown.png"" style=""width: 200px;height: 200px;""></button>","0","brown","purple","[""brown"",""purple"",""high nameability""]","left-right","[""brown"",""purple"",""high nameability""]","5","high nameability","45","left","response","1"
"html-audio-button-response","229","566299","0.0-166.1-1.1","CKN_130","130","","","","","","null","stimuli/bleep.m4a","null","brown","purple","[""brown"",""purple"",""high nameability""]","left-right","[""brown"",""purple"",""high nameability""]","5","high nameability","45","left","audio_feedback","1"
"html-button-response","230","566815","0.0-167.0","CKN_130","130","","","","","","null","<button class=""jspsych-btn""><img src=""stimuli/white_square.png"" style=""width: 200px;height: 200px;""></button>","null","brown","purple","[""brown"",""purple"",""high nameability""]","left-right","[""brown"",""purple"",""high nameability""]","5","high nameability","45","left","iti",""
"html-button-response","231","567810","0.0-168.0","CKN_130","130","","","","","","973","","0","red","yellow","[""red"",""yellow"",""high nameability""]","left-right","[""red"",""yellow"",""high nameability""]","5","high nameability","46","left","trigger",""
"html-button-response","232","568691","0.0-169.0-0.0","CKN_130","130","","","","","","863","<button class=""jspsych-btn""><img src=""stimuli/red.png"" style=""width: 200px;height: 200px;""></button>","0","red","yellow","[""red"",""yellow"",""high nameability""]","left-right","[""red"",""yellow"",""high nameability""]","5","high nameability","46","left","response","1"
"html-audio-button-response","233","568908","0.0-169.0-1.0","CKN_130","130","","","","","","null","stimuli/bleep.m4a","null","red","yellow","[""red"",""yellow"",""high nameability""]","left-right","[""red"",""yellow"",""high nameability""]","5","high nameability","46","left","audio_feedback","1"
"html-button-response","234","569430","0.0-170.0","CKN_130","130","","","","","","null","<button class=""jspsych-btn""><img src=""stimuli/white_square.png"" style=""width: 200px;height: 200px;""></button>","null","red","yellow","[""red"",""yellow"",""high nameability""]","left-right","[""red"",""yellow"",""high nameability""]","5","high nameability","46","left","iti",""
"html-button-response","235","571977","0.0-171.0","CKN_130","130","","","","","","2534","","0","orange","red","[""orange"",""red"",""high nameability""]","left-right","[""orange"",""red"",""high nameability""]","5","high nameability","47","left","trigger",""
"html-button-response","236","574147","0.0-172.0-0.0","CKN_130","130","","","","","","2161","<button class=""jspsych-btn""><img src=""stimuli/orange.png"" style=""width: 200px;height: 200px;""></button>","0","orange","red","[""orange"",""red"",""high nameability""]","left-right","[""orange"",""red"",""high nameability""]","5","high nameability","47","left","response","1"
"html-audio-button-response","237","574352","0.0-172.0-1.0","CKN_130","130","","","","","","null","stimuli/bleep.m4a","null","orange","red","[""orange"",""red"",""high nameability""]","left-right","[""orange"",""red"",""high nameability""]","5","high nameability","47","left","audio_feedback","1"
"html-button-response","238","574865","0.0-173.0","CKN_130","130","","","","","","null","<button class=""jspsych-btn""><img src=""stimuli/white_square.png"" style=""width: 200px;height: 200px;""></button>","null","orange","red","[""orange"",""red"",""high nameability""]","left-right","[""orange"",""red"",""high nameability""]","5","high nameability","47","left","iti",""
"html-button-response","239","576119","0.0-174.0","CKN_130","130","","","","","","1242","","0","blue","purple","[""blue"",""purple"",""high nameability""]","left-right","[""blue"",""purple"",""high nameability""]","5","high nameability","48","left","trigger",""
"html-button-response","240","577953","0.0-175.0-0.0","CKN_130","130","","","","","","1819","<button class=""jspsych-btn""><img src=""stimuli/blue.png"" style=""width: 200px;height: 200px;""></button>","0","blue","purple","[""blue"",""purple"",""high nameability""]","left-right","[""blue"",""purple"",""high nameability""]","5","high nameability","48","left","response","1"
"html-audio-button-response","241","578167","0.0-175.0-1.0","CKN_130","130","","","","","","null","stimuli/bleep.m4a","null","blue","purple","[""blue"",""purple"",""high nameability""]","left-right","[""blue"",""purple"",""high nameability""]","5","high nameability","48","left","audio_feedback","1"
"html-button-response","242","578687","0.0-176.0","CKN_130","130","","","","","","null","<button class=""jspsych-btn""><img src=""stimuli/white_square.png"" style=""width: 200px;height: 200px;""></button>","null","blue","purple","[""blue"",""purple"",""high nameability""]","left-right","[""blue"",""purple"",""high nameability""]","5","high nameability","48","left","iti",""
"html-button-response","243","580355","0.0-177.0","CKN_130","130","","","","","","1658","","0","orange","yellow","[""orange"",""yellow"",""high nameability""]","right-left","[""yellow"",""orange""]","5","high nameability","49","right","trigger",""
"html-button-response","244","581964","0.0-178.0-0.0","CKN_130","130","","","","","","1599","<button class=""jspsych-btn""><img src=""stimuli/orange.png"" style=""width: 200px;height: 200px;""></button>","1","orange","yellow","[""orange"",""yellow"",""high nameability""]","right-left","[""yellow"",""orange""]","5","high nameability","49","right","response","1"
"html-audio-button-response","245","582176","0.0-178.0-1.0","CKN_130","130","","","","","","null","stimuli/bleep.m4a","null","orange","yellow","[""orange"",""yellow"",""high nameability""]","right-left","[""yellow"",""orange""]","5","high nameability","49","right","audio_feedback","1"
"html-button-response","246","582692","0.0-179.0","CKN_130","130","","","","","","131","<button class=""jspsych-btn""><img src=""stimuli/white_square.png"" style=""width: 200px;height: 200px;""></button>","1","orange","yellow","[""orange"",""yellow"",""high nameability""]","right-left","[""yellow"",""orange""]","5","high nameability","49","right","iti",""
"html-button-response","247","586072","0.0-180.0","CKN_130","130","","","","","","3364","","0","purple","orange","[""purple"",""orange"",""high nameability""]","left-right","[""purple"",""orange"",""high nameability""]","5","high nameability","50","left","trigger",""
"html-button-response","248","588571","0.0-181.0-0.0","CKN_130","130","","","","","","2494","<button class=""jspsych-btn""><img src=""stimuli/purple.png"" style=""width: 200px;height: 200px;""></button>","0","purple","orange","[""purple"",""orange"",""high nameability""]","left-right","[""purple"",""orange"",""high nameability""]","5","high nameability","50","left","response","1"
"html-audio-button-response","249","588777","0.0-181.0-1.0","CKN_130","130","","","","","","null","stimuli/bleep.m4a","null","purple","orange","[""purple"",""orange"",""high nameability""]","left-right","[""purple"",""orange"",""high nameability""]","5","high nameability","50","left","audio_feedback","1"
"html-button-response","250","589293","0.0-182.0","CKN_130","130","","","","","","null","<button class=""jspsych-btn""><img src=""stimuli/white_square.png"" style=""width: 200px;height: 200px;""></button>","null","purple","orange","[""purple"",""orange"",""high nameability""]","left-right","[""purple"",""orange"",""high nameability""]","5","high nameability","50","left","iti",""
"pavlovia","251","589387","0.0-183.0","CKN_130","130","","","","","","","","","","","","","","","","","","",""
"pavlovia","252","589400","0.0-184.0","CKN_130","130","","","","","","","","","","","","","","","","","","",""
"html-audio-button-response","253","593953","0.0-185.0","CKN_130","130","","","","","","4656","stimuli/tada.m4a","0","","","","","","","","","","",""
"html-button-response","254","594444","0.0-186.0","CKN_130","130","","","","","","486","","0","","","","","","","","","","",""
"html-button-response","255","596039","0.0-187.0","CKN_130","130","","","","","","1587","","0","yellow","brown","[""yellow"",""brown"",""high nameability""]","left-right","[""yellow"",""brown"",""high nameability""]","6","high nameability","51","left","trigger",""
"html-button-response","256","597207","0.0-188.0-0.0","CKN_130","130","","","","","","1159","<button class=""jspsych-btn""><img src=""stimuli/yellow.png"" style=""width: 200px;height: 200px;""></button>","0","yellow","brown","[""yellow"",""brown"",""high nameability""]","left-right","[""yellow"",""brown"",""high nameability""]","6","high nameability","51","left","response","1"
"html-audio-button-response","257","597417","0.0-188.0-1.0","CKN_130","130","","","","","","null","stimuli/bleep.m4a","null","yellow","brown","[""yellow"",""brown"",""high nameability""]","left-right","[""yellow"",""brown"",""high nameability""]","6","high nameability","51","left","audio_feedback","1"
"html-button-response","258","597933","0.0-189.0","CKN_130","130","","","","","","null","<button class=""jspsych-btn""><img src=""stimuli/white_square.png"" style=""width: 200px;height: 200px;""></button>","null","yellow","brown","[""yellow"",""brown"",""high nameability""]","left-right","[""yellow"",""brown"",""high nameability""]","6","high nameability","51","left","iti",""
"html-button-response","259","599120","0.0-190.0","CKN_130","130","","","","","","1171","","0","orange","brown","[""orange"",""brown"",""high nameability""]","left-right","[""orange"",""brown"",""high nameability""]","6","high nameability","52","left","trigger",""
"html-button-response","260","600398","0.0-191.0-0.0","CKN_130","130","","","","","","1272","<button class=""jspsych-btn""><img src=""stimuli/orange.png"" style=""width: 200px;height: 200px;""></button>","1","orange","brown","[""orange"",""brown"",""high nameability""]","left-right","[""orange"",""brown"",""high nameability""]","6","high nameability","52","left","response","0"
"html-audio-button-response","261","601028","0.0-191.0-1.0","CKN_130","130","","","","","","null","stimuli/boing.m4a","null","orange","brown","[""orange"",""brown"",""high nameability""]","left-right","[""orange"",""brown"",""high nameability""]","6","high nameability","52","left","audio_feedback","0"
"html-button-response","262","602812","0.0-191.1-0.1","CKN_130","130","","","","","","1757","<button class=""jspsych-btn""><img src=""stimuli/orange.png"" style=""width: 200px;height: 200px;""></button>","0","orange","brown","[""orange"",""brown"",""high nameability""]","left-right","[""orange"",""brown"",""high nameability""]","6","high nameability","52","left","response","1"
"html-audio-button-response","263","603016","0.0-191.1-1.1","CKN_130","130","","","","","","null","stimuli/bleep.m4a","null","orange","brown","[""orange"",""brown"",""high nameability""]","left-right","[""orange"",""brown"",""high nameability""]","6","high nameability","52","left","audio_feedback","1"
"html-button-response","264","603529","0.0-192.0","CKN_130","130","","","","","","null","<button class=""jspsych-btn""><img src=""stimuli/white_square.png"" style=""width: 200px;height: 200px;""></button>","null","orange","brown","[""orange"",""brown"",""high nameability""]","left-right","[""orange"",""brown"",""high nameability""]","6","high nameability","52","left","iti",""
"html-button-response","265","604732","0.0-193.0","CKN_130","130","","","","","","1198","","0","mustard","neonyellow","[""mustard"",""neonyellow"",""low nameability""]","left-right","[""mustard"",""neonyellow"",""low nameability""]","6","low nameability","53","left","trigger",""
"html-button-response","266","605812","0.0-194.0-0.0","CKN_130","130","","","","","","1072","<button class=""jspsych-btn""><img src=""stimuli/mustard.png"" style=""width: 200px;height: 200px;""></button>","0","mustard","neonyellow","[""mustard"",""neonyellow"",""low nameability""]","left-right","[""mustard"",""neonyellow"",""low nameability""]","6","low nameability","53","left","response","1"
"html-audio-button-response","267","606015","0.0-194.0-1.0","CKN_130","130","","","","","","null","stimuli/bleep.m4a","null","mustard","neonyellow","[""mustard"",""neonyellow"",""low nameability""]","left-right","[""mustard"",""neonyellow"",""low nameability""]","6","low nameability","53","left","audio_feedback","1"
"html-button-response","268","606528","0.0-195.0","CKN_130","130","","","","","","null","<button class=""jspsych-btn""><img src=""stimuli/white_square.png"" style=""width: 200px;height: 200px;""></button>","null","mustard","neonyellow","[""mustard"",""neonyellow"",""low nameability""]","left-right","[""mustard"",""neonyellow"",""low nameability""]","6","low nameability","53","left","iti",""
"html-button-response","269","607424","0.0-196.0","CKN_130","130","","","","","","889","","0","darkgreenblue","turquoise","[""darkgreenblue"",""turquoise"",""low nameability""]","right-left","[""turquoise"",""darkgreenblue""]","6","low nameability","54","right","trigger",""
"html-button-response","270","608965","0.0-197.0-0.0","CKN_130","130","","","","","","1535","<button class=""jspsych-btn""><img src=""stimuli/darkgreenblue.png"" style=""width: 200px;height: 200px;""></button>","1","darkgreenblue","turquoise","[""darkgreenblue"",""turquoise"",""low nameability""]","right-left","[""turquoise"",""darkgreenblue""]","6","low nameability","54","right","response","1"
"html-audio-button-response","271","609175","0.0-197.0-1.0","CKN_130","130","","","","","","null","stimuli/bleep.m4a","null","darkgreenblue","turquoise","[""darkgreenblue"",""turquoise"",""low nameability""]","right-left","[""turquoise"",""darkgreenblue""]","6","low nameability","54","right","audio_feedback","1"
"html-button-response","272","609689","0.0-198.0","CKN_130","130","","","","","","null","<button class=""jspsych-btn""><img src=""stimuli/white_square.png"" style=""width: 200px;height: 200px;""></button>","null","darkgreenblue","turquoise","[""darkgreenblue"",""turquoise"",""low nameability""]","right-left","[""turquoise"",""darkgreenblue""]","6","low nameability","54","right","iti",""
"html-button-response","273","613655","0.0-199.0","CKN_130","130","","","","","","3960","","0","yellow","purple","[""yellow"",""purple"",""high nameability""]","right-left","[""purple"",""yellow""]","6","high nameability","55","right","trigger",""
"html-button-response","274","614746","0.0-200.0-0.0","CKN_130","130","","","","","","1083","<button class=""jspsych-btn""><img src=""stimuli/yellow.png"" style=""width: 200px;height: 200px;""></button>","1","yellow","purple","[""yellow"",""purple"",""high nameability""]","right-left","[""purple"",""yellow""]","6","high nameability","55","right","response","1"
"html-audio-button-response","275","614953","0.0-200.0-1.0","CKN_130","130","","","","","","null","stimuli/bleep.m4a","null","yellow","purple","[""yellow"",""purple"",""high nameability""]","right-left","[""purple"",""yellow""]","6","high nameability","55","right","audio_feedback","1"
"html-button-response","276","615472","0.0-201.0","CKN_130","130","","","","","","null","<button class=""jspsych-btn""><img src=""stimuli/white_square.png"" style=""width: 200px;height: 200px;""></button>","null","yellow","purple","[""yellow"",""purple"",""high nameability""]","right-left","[""purple"",""yellow""]","6","high nameability","55","right","iti",""
"html-button-response","277","616741","0.0-202.0","CKN_130","130","","","","","","1261","","0","turquoise","pink","[""turquoise"",""pink"",""low nameability""]","left-right","[""turquoise"",""pink"",""low nameability""]","6","low nameability","56","left","trigger",""
"html-button-response","278","623751","0.0-203.0-0.0","CKN_130","130","","","","","","6998","<button class=""jspsych-btn""><img src=""stimuli/turquoise.png"" style=""width: 200px;height: 200px;""></button>","0","turquoise","pink","[""turquoise"",""pink"",""low nameability""]","left-right","[""turquoise"",""pink"",""low nameability""]","6","low nameability","56","left","response","1"
"html-audio-button-response","279","623953","0.0-203.0-1.0","CKN_130","130","","","","","","null","stimuli/bleep.m4a","null","turquoise","pink","[""turquoise"",""pink"",""low nameability""]","left-right","[""turquoise"",""pink"",""low nameability""]","6","low nameability","56","left","audio_feedback","1"
"html-button-response","280","624467","0.0-204.0","CKN_130","130","","","","","","null","<button class=""jspsych-btn""><img src=""stimuli/white_square.png"" style=""width: 200px;height: 200px;""></button>","null","turquoise","pink","[""turquoise"",""pink"",""low nameability""]","left-right","[""turquoise"",""pink"",""low nameability""]","6","low nameability","56","left","iti",""
"html-button-response","281","625705","0.0-205.0","CKN_130","130","","","","","","1220","","0","turquoise","neonyellow","[""turquoise"",""neonyellow"",""low nameability""]","left-right","[""turquoise"",""neonyellow"",""low nameability""]","6","low nameability","57","left","trigger",""
"html-button-response","282","626641","0.0-206.0-0.0","CKN_130","130","","","","","","927","<button class=""jspsych-btn""><img src=""stimuli/turquoise.png"" style=""width: 200px;height: 200px;""></button>","0","turquoise","neonyellow","[""turquoise"",""neonyellow"",""low nameability""]","left-right","[""turquoise"",""neonyellow"",""low nameability""]","6","low nameability","57","left","response","1"
"html-audio-button-response","283","626875","0.0-206.0-1.0","CKN_130","130","","","","","","null","stimuli/bleep.m4a","null","turquoise","neonyellow","[""turquoise"",""neonyellow"",""low nameability""]","left-right","[""turquoise"",""neonyellow"",""low nameability""]","6","low nameability","57","left","audio_feedback","1"
"html-button-response","284","627398","0.0-207.0","CKN_130","130","","","","","","null","<button class=""jspsych-btn""><img src=""stimuli/white_square.png"" style=""width: 200px;height: 200px;""></button>","null","turquoise","neonyellow","[""turquoise"",""neonyellow"",""low nameability""]","left-right","[""turquoise"",""neonyellow"",""low nameability""]","6","low nameability","57","left","iti",""
"html-button-response","285","628275","0.0-208.0","CKN_130","130","","","","","","832","","0","pink","lightred","[""pink"",""lightred"",""low nameability""]","right-left","[""lightred"",""pink""]","6","low nameability","58","right","trigger",""
"html-button-response","286","629365","0.0-209.0-0.0","CKN_130","130","","","","","","1081","<button class=""jspsych-btn""><img src=""stimuli/pink.png"" style=""width: 200px;height: 200px;""></button>","0","pink","lightred","[""pink"",""lightred"",""low nameability""]","right-left","[""lightred"",""pink""]","6","low nameability","58","right","response","0"
"html-audio-button-response","287","630041","0.0-209.0-1.0","CKN_130","130","","","","","","null","stimuli/boing.m4a","null","pink","lightred","[""pink"",""lightred"",""low nameability""]","right-left","[""lightred"",""pink""]","6","low nameability","58","right","audio_feedback","0"
"html-button-response","288","631262","0.0-209.1-0.1","CKN_130","130","","","","","","1173","<button class=""jspsych-btn""><img src=""stimuli/pink.png"" style=""width: 200px;height: 200px;""></button>","1","pink","lightred","[""pink"",""lightred"",""low nameability""]","right-left","[""lightred"",""pink""]","6","low nameability","58","right","response","1"
"html-audio-button-response","289","631479","0.0-209.1-1.1","CKN_130","130","","","","","","null","stimuli/bleep.m4a","null","pink","lightred","[""pink"",""lightred"",""low nameability""]","right-left","[""lightred"",""pink""]","6","low nameability","58","right","audio_feedback","1"
"html-button-response","290","632026","0.0-210.0","CKN_130","130","","","","","","null","<button class=""jspsych-btn""><img src=""stimuli/white_square.png"" style=""width: 200px;height: 200px;""></button>","null","pink","lightred","[""pink"",""lightred"",""low nameability""]","right-left","[""lightred"",""pink""]","6","low nameability","58","right","iti",""
"html-button-response","291","634973","0.0-211.0","CKN_130","130","","","","","","2918","","0","purple","blue","[""purple"",""blue"",""high nameability""]","left-right","[""purple"",""blue"",""high nameability""]","6","high nameability","59","left","trigger",""
"html-button-response","292","636043","0.0-212.0-0.0","CKN_130","130","","","","","","1059","<button class=""jspsych-btn""><img src=""stimuli/purple.png"" style=""width: 200px;height: 200px;""></button>","0","purple","blue","[""purple"",""blue"",""high nameability""]","left-right","[""purple"",""blue"",""high nameability""]","6","high nameability","59","left","response","1"
"html-audio-button-response","293","636259","0.0-212.0-1.0","CKN_130","130","","","","","","null","stimuli/bleep.m4a","null","purple","blue","[""purple"",""blue"",""high nameability""]","left-right","[""purple"",""blue"",""high nameability""]","6","high nameability","59","left","audio_feedback","1"
"html-button-response","294","636776","0.0-213.0","CKN_130","130","","","","","","null","<button class=""jspsych-btn""><img src=""stimuli/white_square.png"" style=""width: 200px;height: 200px;""></button>","null","purple","blue","[""purple"",""blue"",""high nameability""]","left-right","[""purple"",""blue"",""high nameability""]","6","high nameability","59","left","iti",""
"html-button-response","295","638121","0.0-214.0","CKN_130","130","","","","","","1337","","0","yellow","orange","[""yellow"",""orange"",""high nameability""]","left-right","[""yellow"",""orange"",""high nameability""]","6","high nameability","60","left","trigger",""
"html-button-response","296","640802","0.0-215.0-0.0","CKN_130","130","","","","","","2672","<button class=""jspsych-btn""><img src=""stimuli/yellow.png"" style=""width: 200px;height: 200px;""></button>","0","yellow","orange","[""yellow"",""orange"",""high nameability""]","left-right","[""yellow"",""orange"",""high nameability""]","6","high nameability","60","left","response","1"
"html-audio-button-response","297","641009","0.0-215.0-1.0","CKN_130","130","","","","","","null","stimuli/bleep.m4a","null","yellow","orange","[""yellow"",""orange"",""high nameability""]","left-right","[""yellow"",""orange"",""high nameability""]","6","high nameability","60","left","audio_feedback","1"
"html-button-response","298","641518","0.0-216.0","CKN_130","130","","","","","","57","<button class=""jspsych-btn""><img src=""stimuli/white_square.png"" style=""width: 200px;height: 200px;""></button>","0","yellow","orange","[""yellow"",""orange"",""high nameability""]","left-right","[""yellow"",""orange"",""high nameability""]","6","high nameability","60","left","iti",""
