"trial_type","trial_index","time_elapsed","internal_node_id","subject_id","seed","success","timeout","failed_images","failed_audio","failed_video","rt","stimulus","response","target","foil","choices","combination_order","choices_in_order","round","condition","trial_counter","target_location","trial_kind","correct"
"pavlovia","0","17","0.0-0.0","CKN_140","140","","","","","","","","","","","","","","","","","","",""
"preload","1","1219","0.0-1.0","CKN_140","140","true","false","[]","[]","[]","","","","","","","","","","","","","",""
"fullscreen","2","3018","0.0-2.0","CKN_140","140","true","","","","","","","","","","","","","","","","","",""
"html-button-response","3","292184","0.0-3.0","CKN_140","140","","","","","","289140","","0","","","","","","","","","","",""
"html-button-response","4","295954","0.0-4.0","CKN_140","140","","","","","","3753","","0","star","square","[""square"",""star""]","left-right","[""square"",""star""]","1","practice","1","right","trigger",""
"html-button-response","5","300884","0.0-5.0-0.0","CKN_140","140","","","","","","4912","<button class=""jspsych-btn""><img src=""stimuli/star.png"" style=""width: 200px;height: 200px;""></button>","1","star","square","[""square"",""star""]","left-right","[""square"",""star""]","1","practice","1","right","response","1"
"html-audio-button-response","6","301102","0.0-5.0-1.0","CKN_140","140","","","","","","null","stimuli/bleep.m4a","null","star","square","[""square"",""star""]","left-right","[""square"",""star""]","1","practice","1","right","audio_feedback","1"
"html-button-response","7","301631","0.0-6.0","CKN_140","140","","","","","","null","<button class=""jspsych-btn""><img src=""stimuli/white_square.png"" style=""width: 200px;height: 200px;""></button>","null","star","square","[""square"",""star""]","left-right","[""square"",""star""]","1","practice","1","right","iti",""
"html-button-response","8","304967","0.0-7.0","CKN_140","140","","","","","","3319","","0","triangle","pentagram","[""triangle"",""pentagram""]","left-right","[""triangle"",""pentagram""]","1","practice","1","left","trigger",""
"html-button-response","9","315074","0.0-8.0-0.0","CKN_140","140","","","","","","10097","<button class=""jspsych-btn""><img src=""stimuli/triangle.png"" style=""width: 200px;height: 200px;""></button>","0","triangle","pentagram","[""triangle"",""pentagram""]","left-right","[""triangle"",""pentagram""]","1","practice","1","left","response","1"
"html-audio-button-response","10","315285","0.0-8.0-1.0","CKN_140","140","","","","","","null","stimuli/bleep.m4a","null","triangle","pentagram","[""triangle"",""pentagram""]","left-right","[""triangle"",""pentagram""]","1","practice","1","left","audio_feedback","1"
"html-button-response","11","315805","0.0-9.0","CKN_140","140","","","","","","null","<button class=""jspsych-btn""><img src=""stimuli/white_square.png"" style=""width: 200px;height: 200px;""></button>","null","triangle","pentagram","[""triangle"",""pentagram""]","left-right","[""triangle"",""pentagram""]","1","practice","1","left","iti",""
"html-button-response","12","318771","0.0-10.0","CKN_140","140","","","","","","2953","","0","diamond","rectangle","[""rectangle"",""diamond""]","left-right","[""rectangle"",""diamond""]","1","practice","1","right","trigger",""
"html-button-response","13","322758","0.0-11.0-0.0","CKN_140","140","","","","","","3980","<button class=""jspsych-btn""><img src=""stimuli/diamond.png"" style=""width: 200px;height: 200px;""></button>","1","diamond","rectangle","[""rectangle"",""diamond""]","left-right","[""rectangle"",""diamond""]","1","practice","1","right","response","1"
"html-audio-button-response","14","322960","0.0-11.0-1.0","CKN_140","140","","","","","","null","stimuli/bleep.m4a","null","diamond","rectangle","[""rectangle"",""diamond""]","left-right","[""rectangle"",""diamond""]","1","practice","1","right","audio_feedback","1"
"html-button-response","15","323482","0.0-12.0","CKN_140","140","","","","","","null","<button class=""jspsych-btn""><img src=""stimuli/white_square.png"" style=""width: 200px;height: 200px;""></button>","null","diamond","rectangle","[""rectangle"",""diamond""]","left-right","[""rectangle"",""diamond""]","1","practice","1","right","iti",""
"html-button-response","16","325723","0.0-13.0","CKN_140","140","","","","","","2226","","0","pentagram","star","[""pentagram"",""star""]","left-right","[""pentagram"",""star""]","1","practice","1","left","trigger",""
"html-button-response","17","328370","0.0-14.0-0.0","CKN_140","140","","","","","","2643","<button class=""jspsych-btn""><img src=""stimuli/pentagram.png"" style=""width: 200px;height: 200px;""></button>","0","pentagram","star","[""pentagram"",""star""]","left-right","[""pentagram"",""star""]","1","practice","1","left","response","1"
"html-audio-button-response","18","328571","0.0-14.0-1.0","CKN_140","140","","","","","","null","stimuli/bleep.m4a","null","pentagram","star","[""pentagram"",""star""]","left-right","[""pentagram"",""star""]","1","practice","1","left","audio_feedback","1"
"html-button-response","19","329081","0.0-15.0","CKN_140","140","","","","","","null","<button class=""jspsych-btn""><img src=""stimuli/white_square.png"" style=""width: 200px;height: 200px;""></button>","null","pentagram","star","[""pentagram"",""star""]","left-right","[""pentagram"",""star""]","1","practice","1","left","iti",""
"html-button-response","20","334850","0.0-16.0","CKN_140","140","","","","","","5762","","0","","","","","","","","","","",""
"html-button-response","21","336764","0.0-17.0","CKN_140","140","","","","","","1904","","0","neonyellow","turquoise","[""neonyellow"",""turquoise"",""low nameability""]","left-right","[""neonyellow"",""turquoise"",""low nameability""]","1","low nameability","1","left","trigger",""
"html-button-response","22","339781","0.0-18.0-0.0","CKN_140","140","","","","","","3010","<button class=""jspsych-btn""><img src=""stimuli/neonyellow.png"" style=""width: 200px;height: 200px;""></button>","0","neonyellow","turquoise","[""neonyellow"",""turquoise"",""low nameability""]","left-right","[""neonyellow"",""turquoise"",""low nameability""]","1","low nameability","1","left","response","1"
"html-audio-button-response","23","339990","0.0-18.0-1.0","CKN_140","140","","","","","","null","stimuli/bleep.m4a","null","neonyellow","turquoise","[""neonyellow"",""turquoise"",""low nameability""]","left-right","[""neonyellow"",""turquoise"",""low nameability""]","1","low nameability","1","left","audio_feedback","1"
"html-button-response","24","340510","0.0-19.0","CKN_140","140","","","","","","null","<button class=""jspsych-btn""><img src=""stimuli/white_square.png"" style=""width: 200px;height: 200px;""></button>","null","neonyellow","turquoise","[""neonyellow"",""turquoise"",""low nameability""]","left-right","[""neonyellow"",""turquoise"",""low nameability""]","1","low nameability","1","left","iti",""
"html-button-response","25","343917","0.0-20.0","CKN_140","140","","","","","","3396","","0","darkgreenblue","pink","[""darkgreenblue"",""pink"",""low nameability""]","right-left","[""pink"",""darkgreenblue""]","1","low nameability","2","right","trigger",""
"html-button-response","26","346160","0.0-21.0-0.0","CKN_140","140","","","","","","2233","<button class=""jspsych-btn""><img src=""stimuli/darkgreenblue.png"" style=""width: 200px;height: 200px;""></button>","1","darkgreenblue","pink","[""darkgreenblue"",""pink"",""low nameability""]","right-left","[""pink"",""darkgreenblue""]","1","low nameability","2","right","response","1"
"html-audio-button-response","27","346366","0.0-21.0-1.0","CKN_140","140","","","","","","null","stimuli/bleep.m4a","null","darkgreenblue","pink","[""darkgreenblue"",""pink"",""low nameability""]","right-left","[""pink"",""darkgreenblue""]","1","low nameability","2","right","audio_feedback","1"
"html-button-response","28","346886","0.0-22.0","CKN_140","140","","","","","","null","<button class=""jspsych-btn""><img src=""stimuli/white_square.png"" style=""width: 200px;height: 200px;""></button>","null","darkgreenblue","pink","[""darkgreenblue"",""pink"",""low nameability""]","right-left","[""pink"",""darkgreenblue""]","1","low nameability","2","right","iti",""
"html-button-response","29","350651","0.0-23.0","CKN_140","140","","","","","","3747","","0","orange","yellow","[""orange"",""yellow"",""high nameability""]","right-left","[""yellow"",""orange""]","1","high nameability","3","right","trigger",""
"html-button-response","30","352635","0.0-24.0-0.0","CKN_140","140","","","","","","1979","<button class=""jspsych-btn""><img src=""stimuli/orange.png"" style=""width: 200px;height: 200px;""></button>","1","orange","yellow","[""orange"",""yellow"",""high nameability""]","right-left","[""yellow"",""orange""]","1","high nameability","3","right","response","1"
"html-audio-button-response","31","352840","0.0-24.0-1.0","CKN_140","140","","","","","","null","stimuli/bleep.m4a","null","orange","yellow","[""orange"",""yellow"",""high nameability""]","right-left","[""yellow"",""orange""]","1","high nameability","3","right","audio_feedback","1"
"html-button-response","32","353356","0.0-25.0","CKN_140","140","","","","","","null","<button class=""jspsych-btn""><img src=""stimuli/white_square.png"" style=""width: 200px;height: 200px;""></button>","null","orange","yellow","[""orange"",""yellow"",""high nameability""]","right-left","[""yellow"",""orange""]","1","high nameability","3","right","iti",""
"html-button-response","33","355510","0.0-26.0","CKN_140","140","","","","","","2140","","0","darkgreenblue","neonyellow","[""darkgreenblue"",""neonyellow"",""low nameability""]","right-left","[""neonyellow"",""darkgreenblue""]","1","low nameability","4","right","trigger",""
"html-button-response","34","359121","0.0-27.0-0.0","CKN_140","140","","","","","","3603","<button class=""jspsych-btn""><img src=""stimuli/darkgreenblue.png"" style=""width: 200px;height: 200px;""></button>","1","darkgreenblue","neonyellow","[""darkgreenblue"",""neonyellow"",""low nameability""]","right-left","[""neonyellow"",""darkgreenblue""]","1","low nameability","4","right","response","1"
"html-audio-button-response","35","359329","0.0-27.0-1.0","CKN_140","140","","","","","","null","stimuli/bleep.m4a","null","darkgreenblue","neonyellow","[""darkgreenblue"",""neonyellow"",""low nameability""]","right-left","[""neonyellow"",""darkgreenblue""]","1","low nameability","4","right","audio_feedback","1"
"html-button-response","36","359842","0.0-28.0","CKN_140","140","","","","","","null","<button class=""jspsych-btn""><img src=""stimuli/white_square.png"" style=""width: 200px;height: 200px;""></button>","null","darkgreenblue","neonyellow","[""darkgreenblue"",""neonyellow"",""low nameability""]","right-left","[""neonyellow"",""darkgreenblue""]","1","low nameability","4","right","iti",""
"html-button-response","37","362190","0.0-29.0","CKN_140","140","","","","","","2337","","0","lightred","pink","[""lightred"",""pink"",""low nameability""]","right-left","[""pink"",""lightred""]","1","low nameability","5","right","trigger",""
"html-button-response","38","363961","0.0-30.0-0.0","CKN_140","140","","","","","","1765","<button class=""jspsych-btn""><img src=""stimuli/lightred.png"" style=""width: 200px;height: 200px;""></button>","1","lightred","pink","[""lightred"",""pink"",""low nameability""]","right-left","[""pink"",""lightred""]","1","low nameability","5","right","response","1"
"html-audio-button-response","39","364165","0.0-30.0-1.0","CKN_140","140","","","","","","null","stimuli/bleep.m4a","null","lightred","pink","[""lightred"",""pink"",""low nameability""]","right-left","[""pink"",""lightred""]","1","low nameability","5","right","audio_feedback","1"
"html-button-response","40","364682","0.0-31.0","CKN_140","140","","","","","","null","<button class=""jspsych-btn""><img src=""stimuli/white_square.png"" style=""width: 200px;height: 200px;""></button>","null","lightred","pink","[""lightred"",""pink"",""low nameability""]","right-left","[""pink"",""lightred""]","1","low nameability","5","right","iti",""
"html-button-response","41","366233","0.0-32.0","CKN_140","140","","","","","","1539","","0","darkgreenblue","turquoise","[""darkgreenblue"",""turquoise"",""low nameability""]","left-right","[""darkgreenblue"",""turquoise"",""low nameability""]","1","low nameability","6","left","trigger",""
"html-button-response","42","368000","0.0-33.0-0.0","CKN_140","140","","","","","","1760","<button class=""jspsych-btn""><img src=""stimuli/darkgreenblue.png"" style=""width: 200px;height: 200px;""></button>","0","darkgreenblue","turquoise","[""darkgreenblue"",""turquoise"",""low nameability""]","left-right","[""darkgreenblue"",""turquoise"",""low nameability""]","1","low nameability","6","left","response","1"
"html-audio-button-response","43","368203","0.0-33.0-1.0","CKN_140","140","","","","","","null","stimuli/bleep.m4a","null","darkgreenblue","turquoise","[""darkgreenblue"",""turquoise"",""low nameability""]","left-right","[""darkgreenblue"",""turquoise"",""low nameability""]","1","low nameability","6","left","audio_feedback","1"
"html-button-response","44","368717","0.0-34.0","CKN_140","140","","","","","","null","<button class=""jspsych-btn""><img src=""stimuli/white_square.png"" style=""width: 200px;height: 200px;""></button>","null","darkgreenblue","turquoise","[""darkgreenblue"",""turquoise"",""low nameability""]","left-right","[""darkgreenblue"",""turquoise"",""low nameability""]","1","low nameability","6","left","iti",""
"html-button-response","45","371040","0.0-35.0","CKN_140","140","","","","","","2308","","0","mustard","turquoise","[""mustard"",""turquoise"",""low nameability""]","left-right","[""mustard"",""turquoise"",""low nameability""]","1","low nameability","7","left","trigger",""
"html-button-response","46","373932","0.0-36.0-0.0","CKN_140","140","","","","","","2881","<button class=""jspsych-btn""><img src=""stimuli/mustard.png"" style=""width: 200px;height: 200px;""></button>","0","mustard","turquoise","[""mustard"",""turquoise"",""low nameability""]","left-right","[""mustard"",""turquoise"",""low nameability""]","1","low nameability","7","left","response","1"
"html-audio-button-response","47","374144","0.0-36.0-1.0","CKN_140","140","","","","","","null","stimuli/bleep.m4a","null","mustard","turquoise","[""mustard"",""turquoise"",""low nameability""]","left-right","[""mustard"",""turquoise"",""low nameability""]","1","low nameability","7","left","audio_feedback","1"
"html-button-response","48","374659","0.0-37.0","CKN_140","140","","","","","","null","<button class=""jspsych-btn""><img src=""stimuli/white_square.png"" style=""width: 200px;height: 200px;""></button>","null","mustard","turquoise","[""mustard"",""turquoise"",""low nameability""]","left-right","[""mustard"",""turquoise"",""low nameability""]","1","low nameability","7","left","iti",""
"html-button-response","49","377501","0.0-38.0","CKN_140","140","","","","","","2829","","0","turquoise","neonyellow","[""turquoise"",""neonyellow"",""low nameability""]","left-right","[""turquoise"",""neonyellow"",""low nameability""]","1","low nameability","8","left","trigger",""
"html-button-response","50","380421","0.0-39.0-0.0","CKN_140","140","","","","","","2911","<button class=""jspsych-btn""><img src=""stimuli/turquoise.png"" style=""width: 200px;height: 200px;""></button>","0","turquoise","neonyellow","[""turquoise"",""neonyellow"",""low nameability""]","left-right","[""turquoise"",""neonyellow"",""low nameability""]","1","low nameability","8","left","response","1"
"html-audio-button-response","51","380624","0.0-39.0-1.0","CKN_140","140","","","","","","null","stimuli/bleep.m4a","null","turquoise","neonyellow","[""turquoise"",""neonyellow"",""low nameability""]","left-right","[""turquoise"",""neonyellow"",""low nameability""]","1","low nameability","8","left","audio_feedback","1"
"html-button-response","52","381136","0.0-40.0","CKN_140","140","","","","","","null","<button class=""jspsych-btn""><img src=""stimuli/white_square.png"" style=""width: 200px;height: 200px;""></button>","null","turquoise","neonyellow","[""turquoise"",""neonyellow"",""low nameability""]","left-right","[""turquoise"",""neonyellow"",""low nameability""]","1","low nameability","8","left","iti",""
"html-button-response","53","385263","0.0-41.0","CKN_140","140","","","","","","4114","","0","pink","mustard","[""pink"",""mustard"",""low nameability""]","left-right","[""pink"",""mustard"",""low nameability""]","1","low nameability","9","left","trigger",""
"html-button-response","54","387272","0.0-42.0-0.0","CKN_140","140","","","","","","2003","<button class=""jspsych-btn""><img src=""stimuli/pink.png"" style=""width: 200px;height: 200px;""></button>","0","pink","mustard","[""pink"",""mustard"",""low nameability""]","left-right","[""pink"",""mustard"",""low nameability""]","1","low nameability","9","left","response","1"
"html-audio-button-response","55","387480","0.0-42.0-1.0","CKN_140","140","","","","","","null","stimuli/bleep.m4a","null","pink","mustard","[""pink"",""mustard"",""low nameability""]","left-right","[""pink"",""mustard"",""low nameability""]","1","low nameability","9","left","audio_feedback","1"
"html-button-response","56","387995","0.0-43.0","CKN_140","140","","","","","","null","<button class=""jspsych-btn""><img src=""stimuli/white_square.png"" style=""width: 200px;height: 200px;""></button>","null","pink","mustard","[""pink"",""mustard"",""low nameability""]","left-right","[""pink"",""mustard"",""low nameability""]","1","low nameability","9","left","iti",""
"html-button-response","57","389649","0.0-44.0","CKN_140","140","","","","","","1640","","0","blue","orange","[""blue"",""orange"",""high nameability""]","right-left","[""orange"",""blue""]","1","high nameability","10","right","trigger",""
"html-button-response","58","391448","0.0-45.0-0.0","CKN_140","140","","","","","","1791","<button class=""jspsych-btn""><img src=""stimuli/blue.png"" style=""width: 200px;height: 200px;""></button>","1","blue","orange","[""blue"",""orange"",""high nameability""]","right-left","[""orange"",""blue""]","1","high nameability","10","right","response","1"
"html-audio-button-response","59","391656","0.0-45.0-1.0","CKN_140","140","","","","","","null","stimuli/bleep.m4a","null","blue","orange","[""blue"",""orange"",""high nameability""]","right-left","[""orange"",""blue""]","1","high nameability","10","right","audio_feedback","1"
"html-button-response","60","392169","0.0-46.0","CKN_140","140","","","","","","null","<button class=""jspsych-btn""><img src=""stimuli/white_square.png"" style=""width: 200px;height: 200px;""></button>","null","blue","orange","[""blue"",""orange"",""high nameability""]","right-left","[""orange"",""blue""]","1","high nameability","10","right","iti",""
"pavlovia","61","392249","0.0-47.0","CKN_140","140","","","","","","","","","","","","","","","","","","",""
"pavlovia","62","392259","0.0-48.0","CKN_140","140","","","","","","","","","","","","","","","","","","",""
"html-audio-button-response","63","398988","0.0-49.0","CKN_140","140","","","","","","6816","stimuli/tada.m4a","0","","","","","","","","","","",""
"html-button-response","64","400576","0.0-50.0","CKN_140","140","","","","","","1581","","0","","","","","","","","","","",""
"html-button-response","65","402009","0.0-51.0","CKN_140","140","","","","","","1425","","0","purple","orange","[""purple"",""orange"",""high nameability""]","right-left","[""orange"",""purple""]","2","high nameability","11","right","trigger",""
"html-button-response","66","406717","0.0-52.0-0.0","CKN_140","140","","","","","","4698","<button class=""jspsych-btn""><img src=""stimuli/purple.png"" style=""width: 200px;height: 200px;""></button>","1","purple","orange","[""purple"",""orange"",""high nameability""]","right-left","[""orange"",""purple""]","2","high nameability","11","right","response","1"
"html-audio-button-response","67","406920","0.0-52.0-1.0","CKN_140","140","","","","","","null","stimuli/bleep.m4a","null","purple","orange","[""purple"",""orange"",""high nameability""]","right-left","[""orange"",""purple""]","2","high nameability","11","right","audio_feedback","1"
"html-button-response","68","407439","0.0-53.0","CKN_140","140","","","","","","null","<button class=""jspsych-btn""><img src=""stimuli/white_square.png"" style=""width: 200px;height: 200px;""></button>","null","purple","orange","[""purple"",""orange"",""high nameability""]","right-left","[""orange"",""purple""]","2","high nameability","11","right","iti",""
"html-button-response","69","409523","0.0-54.0","CKN_140","140","","","","","","2073","","0","lightred","turquoise","[""lightred"",""turquoise"",""low nameability""]","right-left","[""turquoise"",""lightred""]","2","low nameability","12","right","trigger",""
"html-button-response","70","411574","0.0-55.0-0.0","CKN_140","140","","","","","","2046","<button class=""jspsych-btn""><img src=""stimuli/lightred.png"" style=""width: 200px;height: 200px;""></button>","1","lightred","turquoise","[""lightred"",""turquoise"",""low nameability""]","right-left","[""turquoise"",""lightred""]","2","low nameability","12","right","response","1"
"html-audio-button-response","71","411776","0.0-55.0-1.0","CKN_140","140","","","","","","null","stimuli/bleep.m4a","null","lightred","turquoise","[""lightred"",""turquoise"",""low nameability""]","right-left","[""turquoise"",""lightred""]","2","low nameability","12","right","audio_feedback","1"
"html-button-response","72","412289","0.0-56.0","CKN_140","140","","","","","","null","<button class=""jspsych-btn""><img src=""stimuli/white_square.png"" style=""width: 200px;height: 200px;""></button>","null","lightred","turquoise","[""lightred"",""turquoise"",""low nameability""]","right-left","[""turquoise"",""lightred""]","2","low nameability","12","right","iti",""
"html-button-response","73","415991","0.0-57.0","CKN_140","140","","","","","","3690","","0","turquoise","mustard","[""turquoise"",""mustard"",""low nameability""]","right-left","[""mustard"",""turquoise""]","2","low nameability","13","right","trigger",""
"html-button-response","74","417820","0.0-58.0-0.0","CKN_140","140","","","","","","1821","<button class=""jspsych-btn""><img src=""stimuli/turquoise.png"" style=""width: 200px;height: 200px;""></button>","1","turquoise","mustard","[""turquoise"",""mustard"",""low nameability""]","right-left","[""mustard"",""turquoise""]","2","low nameability","13","right","response","1"
"html-audio-button-response","75","418022","0.0-58.0-1.0","CKN_140","140","","","","","","null","stimuli/bleep.m4a","null","turquoise","mustard","[""turquoise"",""mustard"",""low nameability""]","right-left","[""mustard"",""turquoise""]","2","low nameability","13","right","audio_feedback","1"
"html-button-response","76","418541","0.0-59.0","CKN_140","140","","","","","","null","<button class=""jspsych-btn""><img src=""stimuli/white_square.png"" style=""width: 200px;height: 200px;""></button>","null","turquoise","mustard","[""turquoise"",""mustard"",""low nameability""]","right-left","[""mustard"",""turquoise""]","2","low nameability","13","right","iti",""
"html-button-response","77","423884","0.0-60.0","CKN_140","140","","","","","","5331","","0","red","purple","[""red"",""purple"",""high nameability""]","right-left","[""purple"",""red""]","2","high nameability","14","right","trigger",""
"html-button-response","78","425413","0.0-61.0-0.0","CKN_140","140","","","","","","1523","<button class=""jspsych-btn""><img src=""stimuli/red.png"" style=""width: 200px;height: 200px;""></button>","1","red","purple","[""red"",""purple"",""high nameability""]","right-left","[""purple"",""red""]","2","high nameability","14","right","response","1"
"html-audio-button-response","79","425616","0.0-61.0-1.0","CKN_140","140","","","","","","null","stimuli/bleep.m4a","null","red","purple","[""red"",""purple"",""high nameability""]","right-left","[""purple"",""red""]","2","high nameability","14","right","audio_feedback","1"
"html-button-response","80","426130","0.0-62.0","CKN_140","140","","","","","","null","<button class=""jspsych-btn""><img src=""stimuli/white_square.png"" style=""width: 200px;height: 200px;""></button>","null","red","purple","[""red"",""purple"",""high nameability""]","right-left","[""purple"",""red""]","2","high nameability","14","right","iti",""
"html-button-response","81","428043","0.0-63.0","CKN_140","140","","","","","","1902","","0","darkgreenblue","lightred","[""darkgreenblue"",""lightred"",""low nameability""]","left-right","[""darkgreenblue"",""lightred"",""low nameability""]","2","low nameability","15","left","trigger",""
"html-button-response","82","431829","0.0-64.0-0.0","CKN_140","140","","","","","","3777","<button class=""jspsych-btn""><img src=""stimuli/darkgreenblue.png"" style=""width: 200px;height: 200px;""></button>","0","darkgreenblue","lightred","[""darkgreenblue"",""lightred"",""low nameability""]","left-right","[""darkgreenblue"",""lightred"",""low nameability""]","2","low nameability","15","left","response","1"
"html-audio-button-response","83","432032","0.0-64.0-1.0","CKN_140","140","","","","","","null","stimuli/bleep.m4a","null","darkgreenblue","lightred","[""darkgreenblue"",""lightred"",""low nameability""]","left-right","[""darkgreenblue"",""lightred"",""low nameability""]","2","low nameability","15","left","audio_feedback","1"
"html-button-response","84","432549","0.0-65.0","CKN_140","140","","","","","","null","<button class=""jspsych-btn""><img src=""stimuli/white_square.png"" style=""width: 200px;height: 200px;""></button>","null","darkgreenblue","lightred","[""darkgreenblue"",""lightred"",""low nameability""]","left-right","[""darkgreenblue"",""lightred"",""low nameability""]","2","low nameability","15","left","iti",""
"html-button-response","85","435921","0.0-66.0","CKN_140","140","","","","","","3356","","0","red","blue","[""red"",""blue"",""high nameability""]","left-right","[""red"",""blue"",""high nameability""]","2","high nameability","16","left","trigger",""
"html-button-response","86","438387","0.0-67.0-0.0","CKN_140","140","","","","","","2458","<button class=""jspsych-btn""><img src=""stimuli/red.png"" style=""width: 200px;height: 200px;""></button>","0","red","blue","[""red"",""blue"",""high nameability""]","left-right","[""red"",""blue"",""high nameability""]","2","high nameability","16","left","response","1"
"html-audio-button-response","87","438594","0.0-67.0-1.0","CKN_140","140","","","","","","null","stimuli/bleep.m4a","null","red","blue","[""red"",""blue"",""high nameability""]","left-right","[""red"",""blue"",""high nameability""]","2","high nameability","16","left","audio_feedback","1"
"html-button-response","88","439109","0.0-68.0","CKN_140","140","","","","","","null","<button class=""jspsych-btn""><img src=""stimuli/white_square.png"" style=""width: 200px;height: 200px;""></button>","null","red","blue","[""red"",""blue"",""high nameability""]","left-right","[""red"",""blue"",""high nameability""]","2","high nameability","16","left","iti",""
"html-button-response","89","441398","0.0-69.0","CKN_140","140","","","","","","2280","","0","neonyellow","lightred","[""neonyellow"",""lightred"",""low nameability""]","left-right","[""neonyellow"",""lightred"",""low nameability""]","2","low nameability","17","left","trigger",""
"html-button-response","90","444690","0.0-70.0-0.0","CKN_140","140","","","","","","3288","<button class=""jspsych-btn""><img src=""stimuli/neonyellow.png"" style=""width: 200px;height: 200px;""></button>","0","neonyellow","lightred","[""neonyellow"",""lightred"",""low nameability""]","left-right","[""neonyellow"",""lightred"",""low nameability""]","2","low nameability","17","left","response","1"
"html-audio-button-response","91","444897","0.0-70.0-1.0","CKN_140","140","","","","","","null","stimuli/bleep.m4a","null","neonyellow","lightred","[""neonyellow"",""lightred"",""low nameability""]","left-right","[""neonyellow"",""lightred"",""low nameability""]","2","low nameability","17","left","audio_feedback","1"
"html-button-response","92","445409","0.0-71.0","CKN_140","140","","","","","","null","<button class=""jspsych-btn""><img src=""stimuli/white_square.png"" style=""width: 200px;height: 200px;""></button>","null","neonyellow","lightred","[""neonyellow"",""lightred"",""low nameability""]","left-right","[""neonyellow"",""lightred"",""low nameability""]","2","low nameability","17","left","iti",""
"html-button-response","93","447435","0.0-72.0","CKN_140","140","","","","","","2015","","0","pink","lightred","[""pink"",""lightred"",""low nameability""]","right-left","[""lightred"",""pink""]","2","low nameability","18","right","trigger",""
"html-button-response","94","448837","0.0-73.0-0.0","CKN_140","140","","","","","","1398","<button class=""jspsych-btn""><img src=""stimuli/pink.png"" style=""width: 200px;height: 200px;""></button>","1","pink","lightred","[""pink"",""lightred"",""low nameability""]","right-left","[""lightred"",""pink""]","2","low nameability","18","right","response","1"
"html-audio-button-response","95","449037","0.0-73.0-1.0","CKN_140","140","","","","","","null","stimuli/bleep.m4a","null","pink","lightred","[""pink"",""lightred"",""low nameability""]","right-left","[""lightred"",""pink""]","2","low nameability","18","right","audio_feedback","1"
"html-button-response","96","449549","0.0-74.0","CKN_140","140","","","","","","null","<button class=""jspsych-btn""><img src=""stimuli/white_square.png"" style=""width: 200px;height: 200px;""></button>","null","pink","lightred","[""pink"",""lightred"",""low nameability""]","right-left","[""lightred"",""pink""]","2","low nameability","18","right","iti",""
"html-button-response","97","452582","0.0-75.0","CKN_140","140","","","","","","3021","","0","orange","red","[""orange"",""red"",""high nameability""]","left-right","[""orange"",""red"",""high nameability""]","2","high nameability","19","left","trigger",""
"html-button-response","98","454278","0.0-76.0-0.0","CKN_140","140","","","","","","1688","<button class=""jspsych-btn""><img src=""stimuli/orange.png"" style=""width: 200px;height: 200px;""></button>","0","orange","red","[""orange"",""red"",""high nameability""]","left-right","[""orange"",""red"",""high nameability""]","2","high nameability","19","left","response","1"
"html-audio-button-response","99","454483","0.0-76.0-1.0","CKN_140","140","","","","","","null","stimuli/bleep.m4a","null","orange","red","[""orange"",""red"",""high nameability""]","left-right","[""orange"",""red"",""high nameability""]","2","high nameability","19","left","audio_feedback","1"
"html-button-response","100","454997","0.0-77.0","CKN_140","140","","","","","","null","<button class=""jspsych-btn""><img src=""stimuli/white_square.png"" style=""width: 200px;height: 200px;""></button>","null","orange","red","[""orange"",""red"",""high nameability""]","left-right","[""orange"",""red"",""high nameability""]","2","high nameability","19","left","iti",""
"html-button-response","101","458921","0.0-78.0","CKN_140","140","","","","","","3911","","0","yellow","purple","[""yellow"",""purple"",""high nameability""]","right-left","[""purple"",""yellow""]","2","high nameability","20","right","trigger",""
"html-button-response","102","461708","0.0-79.0-0.0","CKN_140","140","","","","","","2780","<button class=""jspsych-btn""><img src=""stimuli/yellow.png"" style=""width: 200px;height: 200px;""></button>","1","yellow","purple","[""yellow"",""purple"",""high nameability""]","right-left","[""purple"",""yellow""]","2","high nameability","20","right","response","1"
"html-audio-button-response","103","461912","0.0-79.0-1.0","CKN_140","140","","","","","","null","stimuli/bleep.m4a","null","yellow","purple","[""yellow"",""purple"",""high nameability""]","right-left","[""purple"",""yellow""]","2","high nameability","20","right","audio_feedback","1"
"html-button-response","104","462435","0.0-80.0","CKN_140","140","","","","","","null","<button class=""jspsych-btn""><img src=""stimuli/white_square.png"" style=""width: 200px;height: 200px;""></button>","null","yellow","purple","[""yellow"",""purple"",""high nameability""]","right-left","[""purple"",""yellow""]","2","high nameability","20","right","iti",""
"pavlovia","105","462489","0.0-81.0","CKN_140","140","","","","","","","","","","","","","","","","","","",""
"pavlovia","106","462494","0.0-82.0","CKN_140","140","","","","","","","","","","","","","","","","","","",""
"html-audio-button-response","107","468898","0.0-83.0","CKN_140","140","","","","","","6464","stimuli/tada.m4a","0","","","","","","","","","","",""
"html-button-response","108","469390","0.0-84.0","CKN_140","140","","","","","","485","","0","","","","","","","","","","",""
"html-button-response","109","471190","0.0-85.0","CKN_140","140","","","","","","1792","","0","mustard","lightred","[""mustard"",""lightred"",""low nameability""]","right-left","[""lightred"",""mustard""]","3","low nameability","21","right","trigger",""
"html-button-response","110","476709","0.0-86.0-0.0","CKN_140","140","","","","","","5512","<button class=""jspsych-btn""><img src=""stimuli/mustard.png"" style=""width: 200px;height: 200px;""></button>","1","mustard","lightred","[""mustard"",""lightred"",""low nameability""]","right-left","[""lightred"",""mustard""]","3","low nameability","21","right","response","1"
"html-audio-button-response","111","476913","0.0-86.0-1.0","CKN_140","140","","","","","","null","stimuli/bleep.m4a","null","mustard","lightred","[""mustard"",""lightred"",""low nameability""]","right-left","[""lightred"",""mustard""]","3","low nameability","21","right","audio_feedback","1"
"html-button-response","112","477427","0.0-87.0","CKN_140","140","","","","","","null","<button class=""jspsych-btn""><img src=""stimuli/white_square.png"" style=""width: 200px;height: 200px;""></button>","null","mustard","lightred","[""mustard"",""lightred"",""low nameability""]","right-left","[""lightred"",""mustard""]","3","low nameability","21","right","iti",""
"html-button-response","113","479318","0.0-88.0","CKN_140","140","","","","","","1875","","0","blue","brown","[""blue"",""brown"",""high nameability""]","right-left","[""brown"",""blue""]","3","high nameability","22","right","trigger",""
"html-button-response","114","480640","0.0-89.0-0.0","CKN_140","140","","","","","","1314","<button class=""jspsych-btn""><img src=""stimuli/blue.png"" style=""width: 200px;height: 200px;""></button>","1","blue","brown","[""blue"",""brown"",""high nameability""]","right-left","[""brown"",""blue""]","3","high nameability","22","right","response","1"
"html-audio-button-response","115","480844","0.0-89.0-1.0","CKN_140","140","","","","","","null","stimuli/bleep.m4a","null","blue","brown","[""blue"",""brown"",""high nameability""]","right-left","[""brown"",""blue""]","3","high nameability","22","right","audio_feedback","1"
"html-button-response","116","481357","0.0-90.0","CKN_140","140","","","","","","null","<button class=""jspsych-btn""><img src=""stimuli/white_square.png"" style=""width: 200px;height: 200px;""></button>","null","blue","brown","[""blue"",""brown"",""high nameability""]","right-left","[""brown"",""blue""]","3","high nameability","22","right","iti",""
"html-button-response","117","483126","0.0-91.0","CKN_140","140","","","","","","1756","","0","mustard","darkgreenblue","[""mustard"",""darkgreenblue"",""low nameability""]","left-right","[""mustard"",""darkgreenblue"",""low nameability""]","3","low nameability","23","left","trigger",""
"html-button-response","118","484770","0.0-92.0-0.0","CKN_140","140","","","","","","1638","<button class=""jspsych-btn""><img src=""stimuli/mustard.png"" style=""width: 200px;height: 200px;""></button>","0","mustard","darkgreenblue","[""mustard"",""darkgreenblue"",""low nameability""]","left-right","[""mustard"",""darkgreenblue"",""low nameability""]","3","low nameability","23","left","response","1"
"html-audio-button-response","119","484972","0.0-92.0-1.0","CKN_140","140","","","","","","null","stimuli/bleep.m4a","null","mustard","darkgreenblue","[""mustard"",""darkgreenblue"",""low nameability""]","left-right","[""mustard"",""darkgreenblue"",""low nameability""]","3","low nameability","23","left","audio_feedback","1"
"html-button-response","120","485486","0.0-93.0","CKN_140","140","","","","","","null","<button class=""jspsych-btn""><img src=""stimuli/white_square.png"" style=""width: 200px;height: 200px;""></button>","null","mustard","darkgreenblue","[""mustard"",""darkgreenblue"",""low nameability""]","left-right","[""mustard"",""darkgreenblue"",""low nameability""]","3","low nameability","23","left","iti",""
"html-button-response","121","486765","0.0-94.0","CKN_140","140","","","","","","1263","","0","yellow","blue","[""yellow"",""blue"",""high nameability""]","right-left","[""blue"",""yellow""]","3","high nameability","24","right","trigger",""
"html-button-response","122","490178","0.0-95.0-0.0","CKN_140","140","","","","","","3406","<button class=""jspsych-btn""><img src=""stimuli/yellow.png"" style=""width: 200px;height: 200px;""></button>","1","yellow","blue","[""yellow"",""blue"",""high nameability""]","right-left","[""blue"",""yellow""]","3","high nameability","24","right","response","1"
"html-audio-button-response","123","490388","0.0-95.0-1.0","CKN_140","140","","","","","","null","stimuli/bleep.m4a","null","yellow","blue","[""yellow"",""blue"",""high nameability""]","right-left","[""blue"",""yellow""]","3","high nameability","24","right","audio_feedback","1"
"html-button-response","124","490912","0.0-96.0","CKN_140","140","","","","","","null","<button class=""jspsych-btn""><img src=""stimuli/white_square.png"" style=""width: 200px;height: 200px;""></button>","null","yellow","blue","[""yellow"",""blue"",""high nameability""]","right-left","[""blue"",""yellow""]","3","high nameability","24","right","iti",""
"html-button-response","125","493232","0.0-97.0","CKN_140","140","","","","","","2308","","0","purple","blue","[""purple"",""blue"",""high nameability""]","right-left","[""blue"",""purple""]","3","high nameability","25","right","trigger",""
"html-button-response","126","494679","0.0-98.0-0.0","CKN_140","140","","","","","","1440","<button class=""jspsych-btn""><img src=""stimuli/purple.png"" style=""width: 200px;height: 200px;""></button>","1","purple","blue","[""purple"",""blue"",""high nameability""]","right-left","[""blue"",""purple""]","3","high nameability","25","right","response","1"
"html-audio-button-response","127","494880","0.0-98.0-1.0","CKN_140","140","","","","","","null","stimuli/bleep.m4a","null","purple","blue","[""purple"",""blue"",""high nameability""]","right-left","[""blue"",""purple""]","3","high nameability","25","right","audio_feedback","1"
"html-button-response","128","495390","0.0-99.0","CKN_140","140","","","","","","null","<button class=""jspsych-btn""><img src=""stimuli/white_square.png"" style=""width: 200px;height: 200px;""></button>","null","purple","blue","[""purple"",""blue"",""high nameability""]","right-left","[""blue"",""purple""]","3","high nameability","25","right","iti",""
"html-button-response","129","498492","0.0-100.0","CKN_140","140","","","","","","3094","","0","turquoise","lightred","[""turquoise"",""lightred"",""low nameability""]","left-right","[""turquoise"",""lightred"",""low nameability""]","3","low nameability","26","left","trigger",""
"html-button-response","130","499905","0.0-101.0-0.0","CKN_140","140","","","","","","1406","<button class=""jspsych-btn""><img src=""stimuli/turquoise.png"" style=""width: 200px;height: 200px;""></button>","0","turquoise","lightred","[""turquoise"",""lightred"",""low nameability""]","left-right","[""turquoise"",""lightred"",""low nameability""]","3","low nameability","26","left","response","1"
"html-audio-button-response","131","500109","0.0-101.0-1.0","CKN_140","140","","","","","","null","stimuli/bleep.m4a","null","turquoise","lightred","[""turquoise"",""lightred"",""low nameability""]","left-right","[""turquoise"",""lightred"",""low nameability""]","3","low nameability","26","left","audio_feedback","1"
"html-button-response","132","500621","0.0-102.0","CKN_140","140","","","","","","null","<button class=""jspsych-btn""><img src=""stimuli/white_square.png"" style=""width: 200px;height: 200px;""></button>","null","turquoise","lightred","[""turquoise"",""lightred"",""low nameability""]","left-right","[""turquoise"",""lightred"",""low nameability""]","3","low nameability","26","left","iti",""
"html-button-response","133","501998","0.0-103.0","CKN_140","140","","","","","","1365","","0","neonyellow","mustard","[""neonyellow"",""mustard"",""low nameability""]","right-left","[""mustard"",""neonyellow""]","3","low nameability","27","right","trigger",""
"html-button-response","134","503417","0.0-104.0-0.0","CKN_140","140","","","","","","1412","<button class=""jspsych-btn""><img src=""stimuli/neonyellow.png"" style=""width: 200px;height: 200px;""></button>","1","neonyellow","mustard","[""neonyellow"",""mustard"",""low nameability""]","right-left","[""mustard"",""neonyellow""]","3","low nameability","27","right","response","1"
"html-audio-button-response","135","503621","0.0-104.0-1.0","CKN_140","140","","","","","","null","stimuli/bleep.m4a","null","neonyellow","mustard","[""neonyellow"",""mustard"",""low nameability""]","right-left","[""mustard"",""neonyellow""]","3","low nameability","27","right","audio_feedback","1"
"html-button-response","136","504135","0.0-105.0","CKN_140","140","","","","","","null","<button class=""jspsych-btn""><img src=""stimuli/white_square.png"" style=""width: 200px;height: 200px;""></button>","null","neonyellow","mustard","[""neonyellow"",""mustard"",""low nameability""]","right-left","[""mustard"",""neonyellow""]","3","low nameability","27","right","iti",""
"html-button-response","137","509338","0.0-106.0","CKN_140","140","","","","","","5190","","0","brown","blue","[""brown"",""blue"",""high nameability""]","left-right","[""brown"",""blue"",""high nameability""]","3","high nameability","28","left","trigger",""
"html-button-response","138","510926","0.0-107.0-0.0","CKN_140","140","","","","","","1576","<button class=""jspsych-btn""><img src=""stimuli/brown.png"" style=""width: 200px;height: 200px;""></button>","0","brown","blue","[""brown"",""blue"",""high nameability""]","left-right","[""brown"",""blue"",""high nameability""]","3","high nameability","28","left","response","1"
"html-audio-button-response","139","511128","0.0-107.0-1.0","CKN_140","140","","","","","","null","stimuli/bleep.m4a","null","brown","blue","[""brown"",""blue"",""high nameability""]","left-right","[""brown"",""blue"",""high nameability""]","3","high nameability","28","left","audio_feedback","1"
"html-button-response","140","511646","0.0-108.0","CKN_140","140","","","","","","null","<button class=""jspsych-btn""><img src=""stimuli/white_square.png"" style=""width: 200px;height: 200px;""></button>","null","brown","blue","[""brown"",""blue"",""high nameability""]","left-right","[""brown"",""blue"",""high nameability""]","3","high nameability","28","left","iti",""
"html-button-response","141","512826","0.0-109.0","CKN_140","140","","","","","","1168","","0","turquoise","darkgreenblue","[""turquoise"",""darkgreenblue"",""low nameability""]","left-right","[""turquoise"",""darkgreenblue"",""low nameability""]","3","low nameability","29","left","trigger",""
"html-button-response","142","514220","0.0-110.0-0.0","CKN_140","140","","","","","","1389","<button class=""jspsych-btn""><img src=""stimuli/turquoise.png"" style=""width: 200px;height: 200px;""></button>","0","turquoise","darkgreenblue","[""turquoise"",""darkgreenblue"",""low nameability""]","left-right","[""turquoise"",""darkgreenblue"",""low nameability""]","3","low nameability","29","left","response","1"
"html-audio-button-response","143","514419","0.0-110.0-1.0","CKN_140","140","","","","","","null","stimuli/bleep.m4a","null","turquoise","darkgreenblue","[""turquoise"",""darkgreenblue"",""low nameability""]","left-right","[""turquoise"",""darkgreenblue"",""low nameability""]","3","low nameability","29","left","audio_feedback","1"
"html-button-response","144","514935","0.0-111.0","CKN_140","140","","","","","","null","<button class=""jspsych-btn""><img src=""stimuli/white_square.png"" style=""width: 200px;height: 200px;""></button>","null","turquoise","darkgreenblue","[""turquoise"",""darkgreenblue"",""low nameability""]","left-right","[""turquoise"",""darkgreenblue"",""low nameability""]","3","low nameability","29","left","iti",""
"html-button-response","145","516695","0.0-112.0","CKN_140","140","","","","","","1748","","0","purple","brown","[""purple"",""brown"",""high nameability""]","right-left","[""brown"",""purple""]","3","high nameability","30","right","trigger",""
"html-button-response","146","520920","0.0-113.0-0.0","CKN_140","140","","","","","","4219","<button class=""jspsych-btn""><img src=""stimuli/purple.png"" style=""width: 200px;height: 200px;""></button>","1","purple","brown","[""purple"",""brown"",""high nameability""]","right-left","[""brown"",""purple""]","3","high nameability","30","right","response","1"
"html-audio-button-response","147","521123","0.0-113.0-1.0","CKN_140","140","","","","","","null","stimuli/bleep.m4a","null","purple","brown","[""purple"",""brown"",""high nameability""]","right-left","[""brown"",""purple""]","3","high nameability","30","right","audio_feedback","1"
"html-button-response","148","521636","0.0-114.0","CKN_140","140","","","","","","null","<button class=""jspsych-btn""><img src=""stimuli/white_square.png"" style=""width: 200px;height: 200px;""></button>","null","purple","brown","[""purple"",""brown"",""high nameability""]","right-left","[""brown"",""purple""]","3","high nameability","30","right","iti",""
"pavlovia","149","521706","0.0-115.0","CKN_140","140","","","","","","","","","","","","","","","","","","",""
"pavlovia","150","521712","0.0-116.0","CKN_140","140","","","","","","","","","","","","","","","","","","",""
"html-audio-button-response","151","526287","0.0-117.0","CKN_140","140","","","","","","4651","stimuli/tada.m4a","0","","","","","","","","","","",""
"html-button-response","152","526830","0.0-118.0","CKN_140","140","","","","","","537","","0","","","","","","","","","","",""
"html-button-response","153","528094","0.0-119.0","CKN_140","140","","","","","","1254","","0","red","orange","[""red"",""orange"",""high nameability""]","right-left","[""orange"",""red""]","4","high nameability","31","right","trigger",""
"html-button-response","154","529653","0.0-120.0-0.0","CKN_140","140","","","","","","1550","<button class=""jspsych-btn""><img src=""stimuli/red.png"" style=""width: 200px;height: 200px;""></button>","1","red","orange","[""red"",""orange"",""high nameability""]","right-left","[""orange"",""red""]","4","high nameability","31","right","response","1"
"html-audio-button-response","155","529855","0.0-120.0-1.0","CKN_140","140","","","","","","null","stimuli/bleep.m4a","null","red","orange","[""red"",""orange"",""high nameability""]","right-left","[""orange"",""red""]","4","high nameability","31","right","audio_feedback","1"
"html-button-response","156","530372","0.0-121.0","CKN_140","140","","","","","","null","<button class=""jspsych-btn""><img src=""stimuli/white_square.png"" style=""width: 200px;height: 200px;""></button>","null","red","orange","[""red"",""orange"",""high nameability""]","right-left","[""orange"",""red""]","4","high nameability","31","right","iti",""
"html-button-response","157","532734","0.0-122.0","CKN_140","140","","","","","","2347","","0","orange","brown","[""orange"",""brown"",""high nameability""]","left-right","[""orange"",""brown"",""high nameability""]","4","high nameability","32","left","trigger",""
"html-button-response","158","534238","0.0-123.0-0.0","CKN_140","140","","","","","","1499","<button class=""jspsych-btn""><img src=""stimuli/orange.png"" style=""width: 200px;height: 200px;""></button>","0","orange","brown","[""orange"",""brown"",""high nameability""]","left-right","[""orange"",""brown"",""high nameability""]","4","high nameability","32","left","response","1"
"html-audio-button-response","159","534440","0.0-123.0-1.0","CKN_140","140","","","","","","null","stimuli/bleep.m4a","null","orange","brown","[""orange"",""brown"",""high nameability""]","left-right","[""orange"",""brown"",""high nameability""]","4","high nameability","32","left","audio_feedback","1"
"html-button-response","160","534952","0.0-124.0","CKN_140","140","","","","","","null","<button class=""jspsych-btn""><img src=""stimuli/white_square.png"" style=""width: 200px;height: 200px;""></button>","null","orange","brown","[""orange"",""brown"",""high nameability""]","left-right","[""orange"",""brown"",""high nameability""]","4","high nameability","32","left","iti",""
"html-button-response","161","536894","0.0-125.0","CKN_140","140","","","","","","1930","","0","lightred","mustard","[""lightred"",""mustard"",""low nameability""]","left-right","[""lightred"",""mustard"",""low nameability""]","4","low nameability","33","left","trigger",""
"html-button-response","162","539671","0.0-126.0-0.0","CKN_140","140","","","","","","2766","<button class=""jspsych-btn""><img src=""stimuli/lightred.png"" style=""width: 200px;height: 200px;""></button>","0","lightred","mustard","[""lightred"",""mustard"",""low nameability""]","left-right","[""lightred"",""mustard"",""low nameability""]","4","low nameability","33","left","response","1"
"html-audio-button-response","163","539885","0.0-126.0-1.0","CKN_140","140","","","","","","null","stimuli/bleep.m4a","null","lightred","mustard","[""lightred"",""mustard"",""low nameability""]","left-right","[""lightred"",""mustard"",""low nameability""]","4","low nameability","33","left","audio_feedback","1"
"html-button-response","164","540404","0.0-127.0","CKN_140","140","","","","","","null","<button class=""jspsych-btn""><img src=""stimuli/white_square.png"" style=""width: 200px;height: 200px;""></button>","null","lightred","mustard","[""lightred"",""mustard"",""low nameability""]","left-right","[""lightred"",""mustard"",""low nameability""]","4","low nameability","33","left","iti",""
"html-button-response","165","544203","0.0-128.0","CKN_140","140","","","","","","3776","","0","red","yellow","[""red"",""yellow"",""high nameability""]","right-left","[""yellow"",""red""]","4","high nameability","34","right","trigger",""
"html-button-response","166","545456","0.0-129.0-0.0","CKN_140","140","","","","","","1239","<button class=""jspsych-btn""><img src=""stimuli/red.png"" style=""width: 200px;height: 200px;""></button>","1","red","yellow","[""red"",""yellow"",""high nameability""]","right-left","[""yellow"",""red""]","4","high nameability","34","right","response","1"
"html-audio-button-response","167","545668","0.0-129.0-1.0","CKN_140","140","","","","","","null","stimuli/bleep.m4a","null","red","yellow","[""red"",""yellow"",""high nameability""]","right-left","[""yellow"",""red""]","4","high nameability","34","right","audio_feedback","1"
"html-button-response","168","546192","0.0-130.0","CKN_140","140","","","","","","null","<button class=""jspsych-btn""><img src=""stimuli/white_square.png"" style=""width: 200px;height: 200px;""></button>","null","red","yellow","[""red"",""yellow"",""high nameability""]","right-left","[""yellow"",""red""]","4","high nameability","34","right","iti",""
"html-button-response","169","547479","0.0-131.0","CKN_140","140","","","","","","1269","","0","purple","red","[""purple"",""red"",""high nameability""]","left-right","[""purple"",""red"",""high nameability""]","4","high nameability","35","left","trigger",""
"html-button-response","170","549065","0.0-132.0-0.0","CKN_140","140","","","","","","1577","<button class=""jspsych-btn""><img src=""stimuli/purple.png"" style=""width: 200px;height: 200px;""></button>","0","purple","red","[""purple"",""red"",""high nameability""]","left-right","[""purple"",""red"",""high nameability""]","4","high nameability","35","left","response","1"
"html-audio-button-response","171","549269","0.0-132.0-1.0","CKN_140","140","","","","","","null","stimuli/bleep.m4a","null","purple","red","[""purple"",""red"",""high nameability""]","left-right","[""purple"",""red"",""high nameability""]","4","high nameability","35","left","audio_feedback","1"
"html-button-response","172","549786","0.0-133.0","CKN_140","140","","","","","","null","<button class=""jspsych-btn""><img src=""stimuli/white_square.png"" style=""width: 200px;height: 200px;""></button>","null","purple","red","[""purple"",""red"",""high nameability""]","left-right","[""purple"",""red"",""high nameability""]","4","high nameability","35","left","iti",""
"html-button-response","173","551199","0.0-134.0","CKN_140","140","","","","","","1394","","0","blue","purple","[""blue"",""purple"",""high nameability""]","left-right","[""blue"",""purple"",""high nameability""]","4","high nameability","36","left","trigger",""
"html-button-response","174","559564","0.0-135.0-0.0","CKN_140","140","","","","","","8357","<button class=""jspsych-btn""><img src=""stimuli/blue.png"" style=""width: 200px;height: 200px;""></button>","0","blue","purple","[""blue"",""purple"",""high nameability""]","left-right","[""blue"",""purple"",""high nameability""]","4","high nameability","36","left","response","1"
"html-audio-button-response","175","559764","0.0-135.0-1.0","CKN_140","140","","","","","","null","stimuli/bleep.m4a","null","blue","purple","[""blue"",""purple"",""high nameability""]","left-right","[""blue"",""purple"",""high nameability""]","4","high nameability","36","left","audio_feedback","1"
"html-button-response","176","560281","0.0-136.0","CKN_140","140","","","","","","null","<button class=""jspsych-btn""><img src=""stimuli/white_square.png"" style=""width: 200px;height: 200px;""></button>","null","blue","purple","[""blue"",""purple"",""high nameability""]","left-right","[""blue"",""purple"",""high nameability""]","4","high nameability","36","left","iti",""
"html-button-response","177","561500","0.0-137.0","CKN_140","140","","","","","","1205","","0","lightred","neonyellow","[""lightred"",""neonyellow"",""low nameability""]","right-left","[""neonyellow"",""lightred""]","4","low nameability","37","right","trigger",""
"html-button-response","178","562839","0.0-138.0-0.0","CKN_140","140","","","","","","1324","<button class=""jspsych-btn""><img src=""stimuli/lightred.png"" style=""width: 200px;height: 200px;""></button>","1","lightred","neonyellow","[""lightred"",""neonyellow"",""low nameability""]","right-left","[""neonyellow"",""lightred""]","4","low nameability","37","right","response","1"
"html-audio-button-response","179","563041","0.0-138.0-1.0","CKN_140","140","","","","","","null","stimuli/bleep.m4a","null","lightred","neonyellow","[""lightred"",""neonyellow"",""low nameability""]","right-left","[""neonyellow"",""lightred""]","4","low nameability","37","right","audio_feedback","1"
"html-button-response","180","563557","0.0-139.0","CKN_140","140","","","","","","null","<button class=""jspsych-btn""><img src=""stimuli/white_square.png"" style=""width: 200px;height: 200px;""></button>","null","lightred","neonyellow","[""lightred"",""neonyellow"",""low nameability""]","right-left","[""neonyellow"",""lightred""]","4","low nameability","37","right","iti",""
"html-button-response","181","566457","0.0-140.0","CKN_140","140","","","","","","2889","","0","red","brown","[""red"",""brown"",""high nameability""]","left-right","[""red"",""brown"",""high nameability""]","4","high nameability","38","left","trigger",""
"html-button-response","182","570168","0.0-141.0-0.0","CKN_140","140","","","","","","3705","<button class=""jspsych-btn""><img src=""stimuli/red.png"" style=""width: 200px;height: 200px;""></button>","0","red","brown","[""red"",""brown"",""high nameability""]","left-right","[""red"",""brown"",""high nameability""]","4","high nameability","38","left","response","1"
"html-audio-button-response","183","570374","0.0-141.0-1.0","CKN_140","140","","","","","","null","stimuli/bleep.m4a","null","red","brown","[""red"",""brown"",""high nameability""]","left-right","[""red"",""brown"",""high nameability""]","4","high nameability","38","left","audio_feedback","1"
"html-button-response","184","570888","0.0-142.0","CKN_140","140","","","","","","null","<button class=""jspsych-btn""><img src=""stimuli/white_square.png"" style=""width: 200px;height: 200px;""></button>","null","red","brown","[""red"",""brown"",""high nameability""]","left-right","[""red"",""brown"",""high nameability""]","4","high nameability","38","left","iti",""
"html-button-response","185","572796","0.0-143.0","CKN_140","140","","","","","","1892","","0","yellow","brown","[""yellow"",""brown"",""high nameability""]","right-left","[""brown"",""yellow""]","4","high nameability","39","right","trigger",""
"html-button-response","186","574255","0.0-144.0-0.0","CKN_140","140","","","","","","1451","<button class=""jspsych-btn""><img src=""stimuli/yellow.png"" style=""width: 200px;height: 200px;""></button>","1","yellow","brown","[""yellow"",""brown"",""high nameability""]","right-left","[""brown"",""yellow""]","4","high nameability","39","right","response","1"
"html-audio-button-response","187","574458","0.0-144.0-1.0","CKN_140","140","","","","","","null","stimuli/bleep.m4a","null","yellow","brown","[""yellow"",""brown"",""high nameability""]","right-left","[""brown"",""yellow""]","4","high nameability","39","right","audio_feedback","1"
"html-button-response","188","574975","0.0-145.0","CKN_140","140","","","","","","null","<button class=""jspsych-btn""><img src=""stimuli/white_square.png"" style=""width: 200px;height: 200px;""></button>","null","yellow","brown","[""yellow"",""brown"",""high nameability""]","right-left","[""brown"",""yellow""]","4","high nameability","39","right","iti",""
"html-button-response","189","576001","0.0-146.0","CKN_140","140","","","","","","1009","","0","pink","darkgreenblue","[""pink"",""darkgreenblue"",""low nameability""]","left-right","[""pink"",""darkgreenblue"",""low nameability""]","4","low nameability","40","left","trigger",""
"html-button-response","190","577368","0.0-147.0-0.0","CKN_140","140","","","","","","1357","<button class=""jspsych-btn""><img src=""stimuli/pink.png"" style=""width: 200px;height: 200px;""></button>","0","pink","darkgreenblue","[""pink"",""darkgreenblue"",""low nameability""]","left-right","[""pink"",""darkgreenblue"",""low nameability""]","4","low nameability","40","left","response","1"
"html-audio-button-response","191","577572","0.0-147.0-1.0","CKN_140","140","","","","","","null","stimuli/bleep.m4a","null","pink","darkgreenblue","[""pink"",""darkgreenblue"",""low nameability""]","left-right","[""pink"",""darkgreenblue"",""low nameability""]","4","low nameability","40","left","audio_feedback","1"
"html-button-response","192","578090","0.0-148.0","CKN_140","140","","","","","","null","<button class=""jspsych-btn""><img src=""stimuli/white_square.png"" style=""width: 200px;height: 200px;""></button>","null","pink","darkgreenblue","[""pink"",""darkgreenblue"",""low nameability""]","left-right","[""pink"",""darkgreenblue"",""low nameability""]","4","low nameability","40","left","iti",""
"pavlovia","193","578196","0.0-149.0","CKN_140","140","","","","","","","","","","","","","","","","","","",""
"pavlovia","194","578204","0.0-150.0","CKN_140","140","","","","","","","","","","","","","","","","","","",""
"html-audio-button-response","195","582466","0.0-151.0","CKN_140","140","","","","","","4347","stimuli/tada.m4a","0","","","","","","","","","","",""
"html-button-response","196","582974","0.0-152.0","CKN_140","140","","","","","","501","","0","","","","","","","","","","",""
"html-button-response","197","584818","0.0-153.0","CKN_140","140","","","","","","1834","","0","orange","blue","[""orange"",""blue"",""high nameability""]","right-left","[""blue"",""orange""]","5","high nameability","41","right","trigger",""
"html-button-response","198","587209","0.0-154.0-0.0","CKN_140","140","","","","","","2384","<button class=""jspsych-btn""><img src=""stimuli/orange.png"" style=""width: 200px;height: 200px;""></button>","1","orange","blue","[""orange"",""blue"",""high nameability""]","right-left","[""blue"",""orange""]","5","high nameability","41","right","response","1"
"html-audio-button-response","199","587406","0.0-154.0-1.0","CKN_140","140","","","","","","null","stimuli/bleep.m4a","null","orange","blue","[""orange"",""blue"",""high nameability""]","right-left","[""blue"",""orange""]","5","high nameability","41","right","audio_feedback","1"
"html-button-response","200","587914","0.0-155.0","CKN_140","140","","","","","","null","<button class=""jspsych-btn""><img src=""stimuli/white_square.png"" style=""width: 200px;height: 200px;""></button>","null","orange","blue","[""orange"",""blue"",""high nameability""]","right-left","[""blue"",""orange""]","5","high nameability","41","right","iti",""
"html-button-response","201","589584","0.0-156.0","CKN_140","140","","","","","","1661","","0","mustard","pink","[""mustard"",""pink"",""low nameability""]","right-left","[""pink"",""mustard""]","5","low nameability","42","right","trigger",""
"html-button-response","202","591948","0.0-157.0-0.0","CKN_140","140","","","","","","2356","<button class=""jspsych-btn""><img src=""stimuli/mustard.png"" style=""width: 200px;height: 200px;""></button>","1","mustard","pink","[""mustard"",""pink"",""low nameability""]","right-left","[""pink"",""mustard""]","5","low nameability","42","right","response","1"
"html-audio-button-response","203","592151","0.0-157.0-1.0","CKN_140","140","","","","","","null","stimuli/bleep.m4a","null","mustard","pink","[""mustard"",""pink"",""low nameability""]","right-left","[""pink"",""mustard""]","5","low nameability","42","right","audio_feedback","1"
"html-button-response","204","592670","0.0-158.0","CKN_140","140","","","","","","null","<button class=""jspsych-btn""><img src=""stimuli/white_square.png"" style=""width: 200px;height: 200px;""></button>","null","mustard","pink","[""mustard"",""pink"",""low nameability""]","right-left","[""pink"",""mustard""]","5","low nameability","42","right","iti",""
"html-button-response","205","595360","0.0-159.0","CKN_140","140","","","","","","2677","","0","brown","yellow","[""brown"",""yellow"",""high nameability""]","right-left","[""yellow"",""brown""]","5","high nameability","43","right","trigger",""
"html-button-response","206","596494","0.0-160.0-0.0","CKN_140","140","","","","","","1125","<button class=""jspsych-btn""><img src=""stimuli/brown.png"" style=""width: 200px;height: 200px;""></button>","1","brown","yellow","[""brown"",""yellow"",""high nameability""]","right-left","[""yellow"",""brown""]","5","high nameability","43","right","response","1"
"html-audio-button-response","207","596695","0.0-160.0-1.0","CKN_140","140","","","","","","null","stimuli/bleep.m4a","null","brown","yellow","[""brown"",""yellow"",""high nameability""]","right-left","[""yellow"",""brown""]","5","high nameability","43","right","audio_feedback","1"
"html-button-response","208","597214","0.0-161.0","CKN_140","140","","","","","","null","<button class=""jspsych-btn""><img src=""stimuli/white_square.png"" style=""width: 200px;height: 200px;""></button>","null","brown","yellow","[""brown"",""yellow"",""high nameability""]","right-left","[""yellow"",""brown""]","5","high nameability","43","right","iti",""
"html-button-response","209","599795","0.0-162.0","CKN_140","140","","","","","","2562","","0","purple","yellow","[""purple"",""yellow"",""high nameability""]","left-right","[""purple"",""yellow"",""high nameability""]","5","high nameability","44","left","trigger",""
"html-button-response","210","602534","0.0-163.0-0.0","CKN_140","140","","","","","","2722","<button class=""jspsych-btn""><img src=""stimuli/purple.png"" style=""width: 200px;height: 200px;""></button>","0","purple","yellow","[""purple"",""yellow"",""high nameability""]","left-right","[""purple"",""yellow"",""high nameability""]","5","high nameability","44","left","response","1"
"html-audio-button-response","211","602741","0.0-163.0-1.0","CKN_140","140","","","","","","null","stimuli/bleep.m4a","null","purple","yellow","[""purple"",""yellow"",""high nameability""]","left-right","[""purple"",""yellow"",""high nameability""]","5","high nameability","44","left","audio_feedback","1"
"html-button-response","212","603270","0.0-164.0","CKN_140","140","","","","","","null","<button class=""jspsych-btn""><img src=""stimuli/white_square.png"" style=""width: 200px;height: 200px;""></button>","null","purple","yellow","[""purple"",""yellow"",""high nameability""]","left-right","[""purple"",""yellow"",""high nameability""]","5","high nameability","44","left","iti",""
"html-button-response","213","606786","0.0-165.0","CKN_140","140","","","","","","3495","","0","mustard","neonyellow","[""mustard"",""neonyellow"",""low nameability""]","right-left","[""neonyellow"",""mustard""]","5","low nameability","45","right","trigger",""
"html-button-response","214","610301","0.0-166.0-0.0","CKN_140","140","","","","","","3506","<button class=""jspsych-btn""><img src=""stimuli/mustard.png"" style=""width: 200px;height: 200px;""></button>","1","mustard","neonyellow","[""mustard"",""neonyellow"",""low nameability""]","right-left","[""neonyellow"",""mustard""]","5","low nameability","45","right","response","1"
"html-audio-button-response","215","610510","0.0-166.0-1.0","CKN_140","140","","","","","","null","stimuli/bleep.m4a","null","mustard","neonyellow","[""mustard"",""neonyellow"",""low nameability""]","right-left","[""neonyellow"",""mustard""]","5","low nameability","45","right","audio_feedback","1"
"html-button-response","216","611026","0.0-167.0","CKN_140","140","","","","","","null","<button class=""jspsych-btn""><img src=""stimuli/white_square.png"" style=""width: 200px;height: 200px;""></button>","null","mustard","neonyellow","[""mustard"",""neonyellow"",""low nameability""]","right-left","[""neonyellow"",""mustard""]","5","low nameability","45","right","iti",""
"html-button-response","217","612404","0.0-168.0","CKN_140","140","","","","","","1366","","0","brown","purple","[""brown"",""purple"",""high nameability""]","left-right","[""brown"",""purple"",""high nameability""]","5","high nameability","46","left","trigger",""
"html-button-response","218","615808","0.0-169.0-0.0","CKN_140","140","","","","","","3396","<button class=""jspsych-btn""><img src=""stimuli/brown.png"" style=""width: 200px;height: 200px;""></button>","0","brown","purple","[""brown"",""purple"",""high nameability""]","left-right","[""brown"",""purple"",""high nameability""]","5","high nameability","46","left","response","1"
"html-audio-button-response","219","616015","0.0-169.0-1.0","CKN_140","140","","","","","","null","stimuli/bleep.m4a","null","brown","purple","[""brown"",""purple"",""high nameability""]","left-right","[""brown"",""purple"",""high nameability""]","5","high nameability","46","left","audio_feedback","1"
"html-button-response","220","616532","0.0-170.0","CKN_140","140","","","","","","null","<button class=""jspsych-btn""><img src=""stimuli/white_square.png"" style=""width: 200px;height: 200px;""></button>","null","brown","purple","[""brown"",""purple"",""high nameability""]","left-right","[""brown"",""purple"",""high nameability""]","5","high nameability","46","left","iti",""
"html-button-response","221","618822","0.0-171.0","CKN_140","140","","","","","","2277","","0","neonyellow","pink","[""neonyellow"",""pink"",""low nameability""]","right-left","[""pink"",""neonyellow""]","5","low nameability","47","right","trigger",""
"html-button-response","222","620713","0.0-172.0-0.0","CKN_140","140","","","","","","1880","<button class=""jspsych-btn""><img src=""stimuli/neonyellow.png"" style=""width: 200px;height: 200px;""></button>","1","neonyellow","pink","[""neonyellow"",""pink"",""low nameability""]","right-left","[""pink"",""neonyellow""]","5","low nameability","47","right","response","1"
"html-audio-button-response","223","620912","0.0-172.0-1.0","CKN_140","140","","","","","","null","stimuli/bleep.m4a","null","neonyellow","pink","[""neonyellow"",""pink"",""low nameability""]","right-left","[""pink"",""neonyellow""]","5","low nameability","47","right","audio_feedback","1"
"html-button-response","224","621430","0.0-173.0","CKN_140","140","","","","","","null","<button class=""jspsych-btn""><img src=""stimuli/white_square.png"" style=""width: 200px;height: 200px;""></button>","null","neonyellow","pink","[""neonyellow"",""pink"",""low nameability""]","right-left","[""pink"",""neonyellow""]","5","low nameability","47","right","iti",""
"html-button-response","225","622984","0.0-174.0","CKN_140","140","","","","","","1531","","0","brown","orange","[""brown"",""orange"",""high nameability""]","right-left","[""orange"",""brown""]","5","high nameability","48","right","trigger",""
"html-button-response","226","626966","0.0-175.0-0.0","CKN_140","140","","","","","","3975","<button class=""jspsych-btn""><img src=""stimuli/brown.png"" style=""width: 200px;height: 200px;""></button>","1","brown","orange","[""brown"",""orange"",""high nameability""]","right-left","[""orange"",""brown""]","5","high nameability","48","right","response","1"
"html-audio-button-response","227","627171","0.0-175.0-1.0","CKN_140","140","","","","","","null","stimuli/bleep.m4a","null","brown","orange","[""brown"",""orange"",""high nameability""]","right-left","[""orange"",""brown""]","5","high nameability","48","right","audio_feedback","1"
"html-button-response","228","627688","0.0-176.0","CKN_140","140","","","","","","null","<button class=""jspsych-btn""><img src=""stimuli/white_square.png"" style=""width: 200px;height: 200px;""></button>","null","brown","orange","[""brown"",""orange"",""high nameability""]","right-left","[""orange"",""brown""]","5","high nameability","48","right","iti",""
"html-button-response","229","631017","0.0-177.0","CKN_140","140","","","","","","3309","","0","yellow","red","[""yellow"",""red"",""high nameability""]","left-right","[""yellow"",""red"",""high nameability""]","5","high nameability","49","left","trigger",""
"html-button-response","230","632383","0.0-178.0-0.0","CKN_140","140","","","","","","1357","<button class=""jspsych-btn""><img src=""stimuli/yellow.png"" style=""width: 200px;height: 200px;""></button>","0","yellow","red","[""yellow"",""red"",""high nameability""]","left-right","[""yellow"",""red"",""high nameability""]","5","high nameability","49","left","response","1"
"html-audio-button-response","231","632585","0.0-178.0-1.0","CKN_140","140","","","","","","null","stimuli/bleep.m4a","null","yellow","red","[""yellow"",""red"",""high nameability""]","left-right","[""yellow"",""red"",""high nameability""]","5","high nameability","49","left","audio_feedback","1"
"html-button-response","232","633096","0.0-179.0","CKN_140","140","","","","","","null","<button class=""jspsych-btn""><img src=""stimuli/white_square.png"" style=""width: 200px;height: 200px;""></button>","null","yellow","red","[""yellow"",""red"",""high nameability""]","left-right","[""yellow"",""red"",""high nameability""]","5","high nameability","49","left","iti",""
"html-button-response","233","638010","0.0-180.0","CKN_140","140","","","","","","4902","","0","turquoise","pink","[""turquoise"",""pink"",""low nameability""]","left-right","[""turquoise"",""pink"",""low nameability""]","5","low nameability","50","left","trigger",""
"html-button-response","234","639479","0.0-181.0-0.0","CKN_140","140","","","","","","1461","<button class=""jspsych-btn""><img src=""stimuli/turquoise.png"" style=""width: 200px;height: 200px;""></button>","0","turquoise","pink","[""turquoise"",""pink"",""low nameability""]","left-right","[""turquoise"",""pink"",""low nameability""]","5","low nameability","50","left","response","1"
"html-audio-button-response","235","639681","0.0-181.0-1.0","CKN_140","140","","","","","","null","stimuli/bleep.m4a","null","turquoise","pink","[""turquoise"",""pink"",""low nameability""]","left-right","[""turquoise"",""pink"",""low nameability""]","5","low nameability","50","left","audio_feedback","1"
"html-button-response","236","640196","0.0-182.0","CKN_140","140","","","","","","null","<button class=""jspsych-btn""><img src=""stimuli/white_square.png"" style=""width: 200px;height: 200px;""></button>","null","turquoise","pink","[""turquoise"",""pink"",""low nameability""]","left-right","[""turquoise"",""pink"",""low nameability""]","5","low nameability","50","left","iti",""
"pavlovia","237","640301","0.0-183.0","CKN_140","140","","","","","","","","","","","","","","","","","","",""
"pavlovia","238","640311","0.0-184.0","CKN_140","140","","","","","","","","","","","","","","","","","","",""
"html-audio-button-response","239","645469","0.0-185.0","CKN_140","140","","","","","","5253","stimuli/tada.m4a","0","","","","","","","","","","",""
"html-button-response","240","646445","0.0-186.0","CKN_140","140","","","","","","967","","0","","","","","","","","","","",""
"html-button-response","241","648137","0.0-187.0","CKN_140","140","","","","","","1685","","0","pink","neonyellow","[""pink"",""neonyellow"",""low nameability""]","left-right","[""pink"",""neonyellow"",""low nameability""]","6","low nameability","51","left","trigger",""
"html-button-response","242","650216","0.0-188.0-0.0","CKN_140","140","","","","","","2070","<button class=""jspsych-btn""><img src=""stimuli/pink.png"" style=""width: 200px;height: 200px;""></button>","0","pink","neonyellow","[""pink"",""neonyellow"",""low nameability""]","left-right","[""pink"",""neonyellow"",""low nameability""]","6","low nameability","51","left","response","1"
"html-audio-button-response","243","650421","0.0-188.0-1.0","CKN_140","140","","","","","","null","stimuli/bleep.m4a","null","pink","neonyellow","[""pink"",""neonyellow"",""low nameability""]","left-right","[""pink"",""neonyellow"",""low nameability""]","6","low nameability","51","left","audio_feedback","1"
"html-button-response","244","650945","0.0-189.0","CKN_140","140","","","","","","null","<button class=""jspsych-btn""><img src=""stimuli/white_square.png"" style=""width: 200px;height: 200px;""></button>","null","pink","neonyellow","[""pink"",""neonyellow"",""low nameability""]","left-right","[""pink"",""neonyellow"",""low nameability""]","6","low nameability","51","left","iti",""
"html-button-response","245","652011","0.0-190.0","CKN_140","140","","","","","","1058","","0","darkgreenblue","mustard","[""darkgreenblue"",""mustard"",""low nameability""]","left-right","[""darkgreenblue"",""mustard"",""low nameability""]","6","low nameability","52","left","trigger",""
"html-button-response","246","659836","0.0-191.0-0.0","CKN_140","140","","","","","","7817","<button class=""jspsych-btn""><img src=""stimuli/darkgreenblue.png"" style=""width: 200px;height: 200px;""></button>","0","darkgreenblue","mustard","[""darkgreenblue"",""mustard"",""low nameability""]","left-right","[""darkgreenblue"",""mustard"",""low nameability""]","6","low nameability","52","left","response","1"
"html-audio-button-response","247","660041","0.0-191.0-1.0","CKN_140","140","","","","","","null","stimuli/bleep.m4a","null","darkgreenblue","mustard","[""darkgreenblue"",""mustard"",""low nameability""]","left-right","[""darkgreenblue"",""mustard"",""low nameability""]","6","low nameability","52","left","audio_feedback","1"
"html-button-response","248","660561","0.0-192.0","CKN_140","140","","","","","","null","<button class=""jspsych-btn""><img src=""stimuli/white_square.png"" style=""width: 200px;height: 200px;""></button>","null","darkgreenblue","mustard","[""darkgreenblue"",""mustard"",""low nameability""]","left-right","[""darkgreenblue"",""mustard"",""low nameability""]","6","low nameability","52","left","iti",""
"html-button-response","249","662135","0.0-193.0","CKN_140","140","","","","","","1557","","0","blue","yellow","[""blue"",""yellow"",""high nameability""]","right-left","[""yellow"",""blue""]","6","high nameability","53","right","trigger",""
"html-button-response","250","663543","0.0-194.0-0.0","CKN_140","140","","","","","","1393","<button class=""jspsych-btn""><img src=""stimuli/blue.png"" style=""width: 200px;height: 200px;""></button>","1","blue","yellow","[""blue"",""yellow"",""high nameability""]","right-left","[""yellow"",""blue""]","6","high nameability","53","right","response","1"
"html-audio-button-response","251","663753","0.0-194.0-1.0","CKN_140","140","","","","","","null","stimuli/bleep.m4a","null","blue","yellow","[""blue"",""yellow"",""high nameability""]","right-left","[""yellow"",""blue""]","6","high nameability","53","right","audio_feedback","1"
"html-button-response","252","664279","0.0-195.0","CKN_140","140","","","","","","null","<button class=""jspsych-btn""><img src=""stimuli/white_square.png"" style=""width: 200px;height: 200px;""></button>","null","blue","yellow","[""blue"",""yellow"",""high nameability""]","right-left","[""yellow"",""blue""]","6","high nameability","53","right","iti",""
"html-button-response","253","665138","0.0-196.0","CKN_140","140","","","","","","843","","0","orange","purple","[""orange"",""purple"",""high nameability""]","right-left","[""purple"",""orange""]","6","high nameability","54","right","trigger",""
"html-button-response","254","673125","0.0-197.0-0.0","CKN_140","140","","","","","","7974","<button class=""jspsych-btn""><img src=""stimuli/orange.png"" style=""width: 200px;height: 200px;""></button>","1","orange","purple","[""orange"",""purple"",""high nameability""]","right-left","[""purple"",""orange""]","6","high nameability","54","right","response","1"
"html-audio-button-response","255","673334","0.0-197.0-1.0","CKN_140","140","","","","","","null","stimuli/bleep.m4a","null","orange","purple","[""orange"",""purple"",""high nameability""]","right-left","[""purple"",""orange""]","6","high nameability","54","right","audio_feedback","1"
"html-button-response","256","673860","0.0-198.0","CKN_140","140","","","","","","null","<button class=""jspsych-btn""><img src=""stimuli/white_square.png"" style=""width: 200px;height: 200px;""></button>","null","orange","purple","[""orange"",""purple"",""high nameability""]","right-left","[""purple"",""orange""]","6","high nameability","54","right","iti",""
"html-button-response","257","678941","0.0-199.0","CKN_140","140","","","","","","5056","","0","brown","red","[""brown"",""red"",""high nameability""]","left-right","[""brown"",""red"",""high nameability""]","6","high nameability","55","left","trigger",""
"html-button-response","258","680949","0.0-200.0-0.0","CKN_140","140","","","","","","1998","<button class=""jspsych-btn""><img src=""stimuli/brown.png"" style=""width: 200px;height: 200px;""></button>","0","brown","red","[""brown"",""red"",""high nameability""]","left-right","[""brown"",""red"",""high nameability""]","6","high nameability","55","left","response","1"
"html-audio-button-response","259","681158","0.0-200.0-1.0","CKN_140","140","","","","","","null","stimuli/bleep.m4a","null","brown","red","[""brown"",""red"",""high nameability""]","left-right","[""brown"",""red"",""high nameability""]","6","high nameability","55","left","audio_feedback","1"
"html-button-response","260","681673","0.0-201.0","CKN_140","140","","","","","","null","<button class=""jspsych-btn""><img src=""stimuli/white_square.png"" style=""width: 200px;height: 200px;""></button>","null","brown","red","[""brown"",""red"",""high nameability""]","left-right","[""brown"",""red"",""high nameability""]","6","high nameability","55","left","iti",""
"html-button-response","261","683238","0.0-202.0","CKN_140","140","","","","","","1551","","0","yellow","orange","[""yellow"",""orange"",""high nameability""]","right-left","[""orange"",""yellow""]","6","high nameability","56","right","trigger",""
"html-button-response","262","690252","0.0-203.0-0.0","CKN_140","140","","","","","","7004","<button class=""jspsych-btn""><img src=""stimuli/yellow.png"" style=""width: 200px;height: 200px;""></button>","1","yellow","orange","[""yellow"",""orange"",""high nameability""]","right-left","[""orange"",""yellow""]","6","high nameability","56","right","response","1"
"html-audio-button-response","263","690462","0.0-203.0-1.0","CKN_140","140","","","","","","null","stimuli/bleep.m4a","null","yellow","orange","[""yellow"",""orange"",""high nameability""]","right-left","[""orange"",""yellow""]","6","high nameability","56","right","audio_feedback","1"
"html-button-response","264","690977","0.0-204.0","CKN_140","140","","","","","","64","<button class=""jspsych-btn""><img src=""stimuli/white_square.png"" style=""width: 200px;height: 200px;""></button>","1","yellow","orange","[""yellow"",""orange"",""high nameability""]","right-left","[""orange"",""yellow""]","6","high nameability","56","right","iti",""
"html-button-response","265","695936","0.0-205.0","CKN_140","140","","","","","","4948","","0","lightred","darkgreenblue","[""lightred"",""darkgreenblue"",""low nameability""]","left-right","[""lightred"",""darkgreenblue"",""low nameability""]","6","low nameability","57","left","trigger",""
"html-button-response","266","703276","0.0-206.0-0.0","CKN_140","140","","","","","","7331","<button class=""jspsych-btn""><img src=""stimuli/lightred.png"" style=""width: 200px;height: 200px;""></button>","0","lightred","darkgreenblue","[""lightred"",""darkgreenblue"",""low nameability""]","left-right","[""lightred"",""darkgreenblue"",""low nameability""]","6","low nameability","57","left","response","1"
"html-audio-button-response","267","703479","0.0-206.0-1.0","CKN_140","140","","","","","","null","stimuli/bleep.m4a","null","lightred","darkgreenblue","[""lightred"",""darkgreenblue"",""low nameability""]","left-right","[""lightred"",""darkgreenblue"",""low nameability""]","6","low nameability","57","left","audio_feedback","1"
"html-button-response","268","703991","0.0-207.0","CKN_140","140","","","","","","null","<button class=""jspsych-btn""><img src=""stimuli/white_square.png"" style=""width: 200px;height: 200px;""></button>","null","lightred","darkgreenblue","[""lightred"",""darkgreenblue"",""low nameability""]","left-right","[""lightred"",""darkgreenblue"",""low nameability""]","6","low nameability","57","left","iti",""
"html-button-response","269","706998","0.0-208.0","CKN_140","140","","","","","","2991","","0","pink","turquoise","[""pink"",""turquoise"",""low nameability""]","left-right","[""pink"",""turquoise"",""low nameability""]","6","low nameability","58","left","trigger",""
"html-button-response","270","712555","0.0-209.0-0.0","CKN_140","140","","","","","","5547","<button class=""jspsych-btn""><img src=""stimuli/pink.png"" style=""width: 200px;height: 200px;""></button>","0","pink","turquoise","[""pink"",""turquoise"",""low nameability""]","left-right","[""pink"",""turquoise"",""low nameability""]","6","low nameability","58","left","response","1"
"html-audio-button-response","271","712755","0.0-209.0-1.0","CKN_140","140","","","","","","null","stimuli/bleep.m4a","null","pink","turquoise","[""pink"",""turquoise"",""low nameability""]","left-right","[""pink"",""turquoise"",""low nameability""]","6","low nameability","58","left","audio_feedback","1"
"html-button-response","272","713267","0.0-210.0","CKN_140","140","","","","","","null","<button class=""jspsych-btn""><img src=""stimuli/white_square.png"" style=""width: 200px;height: 200px;""></button>","null","pink","turquoise","[""pink"",""turquoise"",""low nameability""]","left-right","[""pink"",""turquoise"",""low nameability""]","6","low nameability","58","left","iti",""
"html-button-response","273","714025","0.0-211.0","CKN_140","140","","","","","","744","","0","neonyellow","darkgreenblue","[""neonyellow"",""darkgreenblue"",""low nameability""]","left-right","[""neonyellow"",""darkgreenblue"",""low nameability""]","6","low nameability","59","left","trigger",""
"html-button-response","274","717287","0.0-212.0-0.0","CKN_140","140","","","","","","3259","<button class=""jspsych-btn""><img src=""stimuli/neonyellow.png"" style=""width: 200px;height: 200px;""></button>","0","neonyellow","darkgreenblue","[""neonyellow"",""darkgreenblue"",""low nameability""]","left-right","[""neonyellow"",""darkgreenblue"",""low nameability""]","6","low nameability","59","left","response","1"
"html-audio-button-response","275","717492","0.0-212.0-1.0","CKN_140","140","","","","","","null","stimuli/bleep.m4a","null","neonyellow","darkgreenblue","[""neonyellow"",""darkgreenblue"",""low nameability""]","left-right","[""neonyellow"",""darkgreenblue"",""low nameability""]","6","low nameability","59","left","audio_feedback","1"
"html-button-response","276","718004","0.0-213.0","CKN_140","140","","","","","","110","<button class=""jspsych-btn""><img src=""stimuli/white_square.png"" style=""width: 200px;height: 200px;""></button>","0","neonyellow","darkgreenblue","[""neonyellow"",""darkgreenblue"",""low nameability""]","left-right","[""neonyellow"",""darkgreenblue"",""low nameability""]","6","low nameability","59","left","iti",""
"html-button-response","277","725486","0.0-214.0","CKN_140","140","","","","","","7470","","0","blue","red","[""blue"",""red"",""high nameability""]","left-right","[""blue"",""red"",""high nameability""]","6","high nameability","60","left","trigger",""
"html-button-response","278","728593","0.0-215.0-0.0","CKN_140","140","","","","","","3094","<button class=""jspsych-btn""><img src=""stimuli/blue.png"" style=""width: 200px;height: 200px;""></button>","0","blue","red","[""blue"",""red"",""high nameability""]","left-right","[""blue"",""red"",""high nameability""]","6","high nameability","60","left","response","1"
"html-audio-button-response","279","728802","0.0-215.0-1.0","CKN_140","140","","","","","","null","stimuli/bleep.m4a","null","blue","red","[""blue"",""red"",""high nameability""]","left-right","[""blue"",""red"",""high nameability""]","6","high nameability","60","left","audio_feedback","1"
"html-button-response","280","729328","0.0-216.0","CKN_140","140","","","","","","null","<button class=""jspsych-btn""><img src=""stimuli/white_square.png"" style=""width: 200px;height: 200px;""></button>","null","blue","red","[""blue"",""red"",""high nameability""]","left-right","[""blue"",""red"",""high nameability""]","6","high nameability","60","left","iti",""
