"trial_type","trial_index","time_elapsed","internal_node_id","subject_id","seed","success","timeout","failed_images","failed_audio","failed_video","rt","stimulus","response","target","foil","choices","combination_order","choices_in_order","round","condition","trial_counter","target_location","trial_kind","correct"
"pavlovia","0","23","0.0-0.0","CKN_131","131","","","","","","","","","","","","","","","","","","",""
"preload","1","678","0.0-1.0","CKN_131","131","true","false","[]","[]","[]","","","","","","","","","","","","","",""
"fullscreen","2","2560","0.0-2.0","CKN_131","131","true","","","","","","","","","","","","","","","","","",""
"html-button-response","3","201255","0.0-3.0","CKN_131","131","","","","","","198669","","0","","","","","","","","","","",""
"html-button-response","4","205817","0.0-4.0","CKN_131","131","","","","","","4548","","0","star","square","[""square"",""star""]","left-right","[""square"",""star""]","1","practice","1","right","trigger",""
"html-button-response","5","214302","0.0-5.0-0.0","CKN_131","131","","","","","","8471","<button class=""jspsych-btn""><img src=""stimuli/star.png"" style=""width: 200px;height: 200px;""></button>","1","star","square","[""square"",""star""]","left-right","[""square"",""star""]","1","practice","1","right","response","1"
"html-audio-button-response","6","214515","0.0-5.0-1.0","CKN_131","131","","","","","","null","stimuli/bleep.m4a","null","star","square","[""square"",""star""]","left-right","[""square"",""star""]","1","practice","1","right","audio_feedback","1"
"html-button-response","7","215055","0.0-6.0","CKN_131","131","","","","","","null","<button class=""jspsych-btn""><img src=""stimuli/white_square.png"" style=""width: 200px;height: 200px;""></button>","null","star","square","[""square"",""star""]","left-right","[""square"",""star""]","1","practice","1","right","iti",""
"html-button-response","8","219506","0.0-7.0","CKN_131","131","","","","","","4423","","0","triangle","pentagram","[""triangle"",""pentagram""]","left-right","[""triangle"",""pentagram""]","1","practice","1","left","trigger",""
"html-button-response","9","223864","0.0-8.0-0.0","CKN_131","131","","","","","","4352","<button class=""jspsych-btn""><img src=""stimuli/triangle.png"" style=""width: 200px;height: 200px;""></button>","0","triangle","pentagram","[""triangle"",""pentagram""]","left-right","[""triangle"",""pentagram""]","1","practice","1","left","response","1"
"html-audio-button-response","10","224070","0.0-8.0-1.0","CKN_131","131","","","","","","null","stimuli/bleep.m4a","null","triangle","pentagram","[""triangle"",""pentagram""]","left-right","[""triangle"",""pentagram""]","1","practice","1","left","audio_feedback","1"
"html-button-response","11","224582","0.0-9.0","CKN_131","131","","","","","","null","<button class=""jspsych-btn""><img src=""stimuli/white_square.png"" style=""width: 200px;height: 200px;""></button>","null","triangle","pentagram","[""triangle"",""pentagram""]","left-right","[""triangle"",""pentagram""]","1","practice","1","left","iti",""
"html-button-response","12","227191","0.0-10.0","CKN_131","131","","","","","","2599","","0","diamond","rectangle","[""rectangle"",""diamond""]","left-right","[""rectangle"",""diamond""]","1","practice","1","right","trigger",""
"html-button-response","13","229384","0.0-11.0-0.0","CKN_131","131","","","","","","2183","<button class=""jspsych-btn""><img src=""stimuli/diamond.png"" style=""width: 200px;height: 200px;""></button>","1","diamond","rectangle","[""rectangle"",""diamond""]","left-right","[""rectangle"",""diamond""]","1","practice","1","right","response","1"
"html-audio-button-response","14","229591","0.0-11.0-1.0","CKN_131","131","","","","","","null","stimuli/bleep.m4a","null","diamond","rectangle","[""rectangle"",""diamond""]","left-right","[""rectangle"",""diamond""]","1","practice","1","right","audio_feedback","1"
"html-button-response","15","230114","0.0-12.0","CKN_131","131","","","","","","null","<button class=""jspsych-btn""><img src=""stimuli/white_square.png"" style=""width: 200px;height: 200px;""></button>","null","diamond","rectangle","[""rectangle"",""diamond""]","left-right","[""rectangle"",""diamond""]","1","practice","1","right","iti",""
"html-button-response","16","232744","0.0-13.0","CKN_131","131","","","","","","2614","","0","pentagram","star","[""pentagram"",""star""]","left-right","[""pentagram"",""star""]","1","practice","1","left","trigger",""
"html-button-response","17","234587","0.0-14.0-0.0","CKN_131","131","","","","","","1833","<button class=""jspsych-btn""><img src=""stimuli/pentagram.png"" style=""width: 200px;height: 200px;""></button>","0","pentagram","star","[""pentagram"",""star""]","left-right","[""pentagram"",""star""]","1","practice","1","left","response","1"
"html-audio-button-response","18","234790","0.0-14.0-1.0","CKN_131","131","","","","","","null","stimuli/bleep.m4a","null","pentagram","star","[""pentagram"",""star""]","left-right","[""pentagram"",""star""]","1","practice","1","left","audio_feedback","1"
"html-button-response","19","235310","0.0-15.0","CKN_131","131","","","","","","null","<button class=""jspsych-btn""><img src=""stimuli/white_square.png"" style=""width: 200px;height: 200px;""></button>","null","pentagram","star","[""pentagram"",""star""]","left-right","[""pentagram"",""star""]","1","practice","1","left","iti",""
"html-button-response","20","240468","0.0-16.0","CKN_131","131","","","","","","5141","","0","","","","","","","","","","",""
"html-button-response","21","241926","0.0-17.0","CKN_131","131","","","","","","1444","","0","yellow","orange","[""yellow"",""orange"",""high nameability""]","right-left","[""orange"",""yellow""]","1","high nameability","1","right","trigger",""
"html-button-response","22","243842","0.0-18.0-0.0","CKN_131","131","","","","","","1904","<button class=""jspsych-btn""><img src=""stimuli/yellow.png"" style=""width: 200px;height: 200px;""></button>","1","yellow","orange","[""yellow"",""orange"",""high nameability""]","right-left","[""orange"",""yellow""]","1","high nameability","1","right","response","1"
"html-audio-button-response","23","244047","0.0-18.0-1.0","CKN_131","131","","","","","","null","stimuli/bleep.m4a","null","yellow","orange","[""yellow"",""orange"",""high nameability""]","right-left","[""orange"",""yellow""]","1","high nameability","1","right","audio_feedback","1"
"html-button-response","24","244565","0.0-19.0","CKN_131","131","","","","","","null","<button class=""jspsych-btn""><img src=""stimuli/white_square.png"" style=""width: 200px;height: 200px;""></button>","null","yellow","orange","[""yellow"",""orange"",""high nameability""]","right-left","[""orange"",""yellow""]","1","high nameability","1","right","iti",""
"html-button-response","25","246415","0.0-20.0","CKN_131","131","","","","","","1838","","0","purple","blue","[""purple"",""blue"",""high nameability""]","right-left","[""blue"",""purple""]","1","high nameability","2","right","trigger",""
"html-button-response","26","248887","0.0-21.0-0.0","CKN_131","131","","","","","","2464","<button class=""jspsych-btn""><img src=""stimuli/purple.png"" style=""width: 200px;height: 200px;""></button>","1","purple","blue","[""purple"",""blue"",""high nameability""]","right-left","[""blue"",""purple""]","1","high nameability","2","right","response","1"
"html-audio-button-response","27","249093","0.0-21.0-1.0","CKN_131","131","","","","","","null","stimuli/bleep.m4a","null","purple","blue","[""purple"",""blue"",""high nameability""]","right-left","[""blue"",""purple""]","1","high nameability","2","right","audio_feedback","1"
"html-button-response","28","249614","0.0-22.0","CKN_131","131","","","","","","null","<button class=""jspsych-btn""><img src=""stimuli/white_square.png"" style=""width: 200px;height: 200px;""></button>","null","purple","blue","[""purple"",""blue"",""high nameability""]","right-left","[""blue"",""purple""]","1","high nameability","2","right","iti",""
"html-button-response","29","250626","0.0-23.0","CKN_131","131","","","","","","994","","0","purple","orange","[""purple"",""orange"",""high nameability""]","left-right","[""purple"",""orange"",""high nameability""]","1","high nameability","3","left","trigger",""
"html-button-response","30","252047","0.0-24.0-0.0","CKN_131","131","","","","","","1414","<button class=""jspsych-btn""><img src=""stimuli/purple.png"" style=""width: 200px;height: 200px;""></button>","0","purple","orange","[""purple"",""orange"",""high nameability""]","left-right","[""purple"",""orange"",""high nameability""]","1","high nameability","3","left","response","1"
"html-audio-button-response","31","252253","0.0-24.0-1.0","CKN_131","131","","","","","","null","stimuli/bleep.m4a","null","purple","orange","[""purple"",""orange"",""high nameability""]","left-right","[""purple"",""orange"",""high nameability""]","1","high nameability","3","left","audio_feedback","1"
"html-button-response","32","252771","0.0-25.0","CKN_131","131","","","","","","null","<button class=""jspsych-btn""><img src=""stimuli/white_square.png"" style=""width: 200px;height: 200px;""></button>","null","purple","orange","[""purple"",""orange"",""high nameability""]","left-right","[""purple"",""orange"",""high nameability""]","1","high nameability","3","left","iti",""
"html-button-response","33","253729","0.0-26.0","CKN_131","131","","","","","","930","","0","pink","darkgreenblue","[""pink"",""darkgreenblue"",""low nameability""]","left-right","[""pink"",""darkgreenblue"",""low nameability""]","1","low nameability","4","left","trigger",""
"html-button-response","34","255093","0.0-27.0-0.0","CKN_131","131","","","","","","1357","<button class=""jspsych-btn""><img src=""stimuli/pink.png"" style=""width: 200px;height: 200px;""></button>","0","pink","darkgreenblue","[""pink"",""darkgreenblue"",""low nameability""]","left-right","[""pink"",""darkgreenblue"",""low nameability""]","1","low nameability","4","left","response","1"
"html-audio-button-response","35","255303","0.0-27.0-1.0","CKN_131","131","","","","","","null","stimuli/bleep.m4a","null","pink","darkgreenblue","[""pink"",""darkgreenblue"",""low nameability""]","left-right","[""pink"",""darkgreenblue"",""low nameability""]","1","low nameability","4","left","audio_feedback","1"
"html-button-response","36","255830","0.0-28.0","CKN_131","131","","","","","","null","<button class=""jspsych-btn""><img src=""stimuli/white_square.png"" style=""width: 200px;height: 200px;""></button>","null","pink","darkgreenblue","[""pink"",""darkgreenblue"",""low nameability""]","left-right","[""pink"",""darkgreenblue"",""low nameability""]","1","low nameability","4","left","iti",""
"html-button-response","37","256999","0.0-29.0","CKN_131","131","","","","","","1154","","0","red","orange","[""red"",""orange"",""high nameability""]","left-right","[""red"",""orange"",""high nameability""]","1","high nameability","5","left","trigger",""
"html-button-response","38","258368","0.0-30.0-0.0","CKN_131","131","","","","","","1361","<button class=""jspsych-btn""><img src=""stimuli/red.png"" style=""width: 200px;height: 200px;""></button>","0","red","orange","[""red"",""orange"",""high nameability""]","left-right","[""red"",""orange"",""high nameability""]","1","high nameability","5","left","response","1"
"html-audio-button-response","39","258574","0.0-30.0-1.0","CKN_131","131","","","","","","null","stimuli/bleep.m4a","null","red","orange","[""red"",""orange"",""high nameability""]","left-right","[""red"",""orange"",""high nameability""]","1","high nameability","5","left","audio_feedback","1"
"html-button-response","40","259102","0.0-31.0","CKN_131","131","","","","","","null","<button class=""jspsych-btn""><img src=""stimuli/white_square.png"" style=""width: 200px;height: 200px;""></button>","null","red","orange","[""red"",""orange"",""high nameability""]","left-right","[""red"",""orange"",""high nameability""]","1","high nameability","5","left","iti",""
"html-button-response","41","260051","0.0-32.0","CKN_131","131","","","","","","937","","0","turquoise","neonyellow","[""turquoise"",""neonyellow"",""low nameability""]","right-left","[""neonyellow"",""turquoise""]","1","low nameability","6","right","trigger",""
"html-button-response","42","263461","0.0-33.0-0.0","CKN_131","131","","","","","","3404","<button class=""jspsych-btn""><img src=""stimuli/turquoise.png"" style=""width: 200px;height: 200px;""></button>","1","turquoise","neonyellow","[""turquoise"",""neonyellow"",""low nameability""]","right-left","[""neonyellow"",""turquoise""]","1","low nameability","6","right","response","1"
"html-audio-button-response","43","263670","0.0-33.0-1.0","CKN_131","131","","","","","","null","stimuli/bleep.m4a","null","turquoise","neonyellow","[""turquoise"",""neonyellow"",""low nameability""]","right-left","[""neonyellow"",""turquoise""]","1","low nameability","6","right","audio_feedback","1"
"html-button-response","44","264195","0.0-34.0","CKN_131","131","","","","","","null","<button class=""jspsych-btn""><img src=""stimuli/white_square.png"" style=""width: 200px;height: 200px;""></button>","null","turquoise","neonyellow","[""turquoise"",""neonyellow"",""low nameability""]","right-left","[""neonyellow"",""turquoise""]","1","low nameability","6","right","iti",""
"html-button-response","45","266473","0.0-35.0","CKN_131","131","","","","","","2259","","0","mustard","darkgreenblue","[""mustard"",""darkgreenblue"",""low nameability""]","left-right","[""mustard"",""darkgreenblue"",""low nameability""]","1","low nameability","7","left","trigger",""
"html-button-response","46","268568","0.0-36.0-0.0","CKN_131","131","","","","","","2088","<button class=""jspsych-btn""><img src=""stimuli/mustard.png"" style=""width: 200px;height: 200px;""></button>","0","mustard","darkgreenblue","[""mustard"",""darkgreenblue"",""low nameability""]","left-right","[""mustard"",""darkgreenblue"",""low nameability""]","1","low nameability","7","left","response","1"
"html-audio-button-response","47","268774","0.0-36.0-1.0","CKN_131","131","","","","","","null","stimuli/bleep.m4a","null","mustard","darkgreenblue","[""mustard"",""darkgreenblue"",""low nameability""]","left-right","[""mustard"",""darkgreenblue"",""low nameability""]","1","low nameability","7","left","audio_feedback","1"
"html-button-response","48","269295","0.0-37.0","CKN_131","131","","","","","","null","<button class=""jspsych-btn""><img src=""stimuli/white_square.png"" style=""width: 200px;height: 200px;""></button>","null","mustard","darkgreenblue","[""mustard"",""darkgreenblue"",""low nameability""]","left-right","[""mustard"",""darkgreenblue"",""low nameability""]","1","low nameability","7","left","iti",""
"html-button-response","49","272666","0.0-38.0","CKN_131","131","","","","","","3352","","0","mustard","turquoise","[""mustard"",""turquoise"",""low nameability""]","right-left","[""turquoise"",""mustard""]","1","low nameability","8","right","trigger",""
"html-button-response","50","273936","0.0-39.0-0.0","CKN_131","131","","","","","","1264","<button class=""jspsych-btn""><img src=""stimuli/mustard.png"" style=""width: 200px;height: 200px;""></button>","1","mustard","turquoise","[""mustard"",""turquoise"",""low nameability""]","right-left","[""turquoise"",""mustard""]","1","low nameability","8","right","response","1"
"html-audio-button-response","51","274147","0.0-39.0-1.0","CKN_131","131","","","","","","null","stimuli/bleep.m4a","null","mustard","turquoise","[""mustard"",""turquoise"",""low nameability""]","right-left","[""turquoise"",""mustard""]","1","low nameability","8","right","audio_feedback","1"
"html-button-response","52","274672","0.0-40.0","CKN_131","131","","","","","","null","<button class=""jspsych-btn""><img src=""stimuli/white_square.png"" style=""width: 200px;height: 200px;""></button>","null","mustard","turquoise","[""mustard"",""turquoise"",""low nameability""]","right-left","[""turquoise"",""mustard""]","1","low nameability","8","right","iti",""
"html-button-response","53","275652","0.0-41.0","CKN_131","131","","","","","","965","","0","pink","neonyellow","[""pink"",""neonyellow"",""low nameability""]","right-left","[""neonyellow"",""pink""]","1","low nameability","9","right","trigger",""
"html-button-response","54","277255","0.0-42.0-0.0","CKN_131","131","","","","","","1596","<button class=""jspsych-btn""><img src=""stimuli/pink.png"" style=""width: 200px;height: 200px;""></button>","1","pink","neonyellow","[""pink"",""neonyellow"",""low nameability""]","right-left","[""neonyellow"",""pink""]","1","low nameability","9","right","response","1"
"html-audio-button-response","55","277454","0.0-42.0-1.0","CKN_131","131","","","","","","null","stimuli/bleep.m4a","null","pink","neonyellow","[""pink"",""neonyellow"",""low nameability""]","right-left","[""neonyellow"",""pink""]","1","low nameability","9","right","audio_feedback","1"
"html-button-response","56","277969","0.0-43.0","CKN_131","131","","","","","","null","<button class=""jspsych-btn""><img src=""stimuli/white_square.png"" style=""width: 200px;height: 200px;""></button>","null","pink","neonyellow","[""pink"",""neonyellow"",""low nameability""]","right-left","[""neonyellow"",""pink""]","1","low nameability","9","right","iti",""
"html-button-response","57","279603","0.0-44.0","CKN_131","131","","","","","","1625","","0","neonyellow","lightred","[""neonyellow"",""lightred"",""low nameability""]","left-right","[""neonyellow"",""lightred"",""low nameability""]","1","low nameability","10","left","trigger",""
"html-button-response","58","281064","0.0-45.0-0.0","CKN_131","131","","","","","","1456","<button class=""jspsych-btn""><img src=""stimuli/neonyellow.png"" style=""width: 200px;height: 200px;""></button>","0","neonyellow","lightred","[""neonyellow"",""lightred"",""low nameability""]","left-right","[""neonyellow"",""lightred"",""low nameability""]","1","low nameability","10","left","response","1"
"html-audio-button-response","59","281272","0.0-45.0-1.0","CKN_131","131","","","","","","null","stimuli/bleep.m4a","null","neonyellow","lightred","[""neonyellow"",""lightred"",""low nameability""]","left-right","[""neonyellow"",""lightred"",""low nameability""]","1","low nameability","10","left","audio_feedback","1"
"html-button-response","60","281800","0.0-46.0","CKN_131","131","","","","","","null","<button class=""jspsych-btn""><img src=""stimuli/white_square.png"" style=""width: 200px;height: 200px;""></button>","null","neonyellow","lightred","[""neonyellow"",""lightred"",""low nameability""]","left-right","[""neonyellow"",""lightred"",""low nameability""]","1","low nameability","10","left","iti",""
"pavlovia","61","281907","0.0-47.0","CKN_131","131","","","","","","","","","","","","","","","","","","",""
"pavlovia","62","281922","0.0-48.0","CKN_131","131","","","","","","","","","","","","","","","","","","",""
"html-audio-button-response","63","288692","0.0-49.0","CKN_131","131","","","","","","6888","stimuli/tada.m4a","0","","","","","","","","","","",""
"html-button-response","64","289394","0.0-50.0","CKN_131","131","","","","","","696","","0","","","","","","","","","","",""
"html-button-response","65","290534","0.0-51.0","CKN_131","131","","","","","","1134","","0","lightred","neonyellow","[""lightred"",""neonyellow"",""low nameability""]","right-left","[""neonyellow"",""lightred""]","2","low nameability","11","right","trigger",""
"html-button-response","66","292572","0.0-52.0-0.0","CKN_131","131","","","","","","2031","<button class=""jspsych-btn""><img src=""stimuli/lightred.png"" style=""width: 200px;height: 200px;""></button>","1","lightred","neonyellow","[""lightred"",""neonyellow"",""low nameability""]","right-left","[""neonyellow"",""lightred""]","2","low nameability","11","right","response","1"
"html-audio-button-response","67","292774","0.0-52.0-1.0","CKN_131","131","","","","","","null","stimuli/bleep.m4a","null","lightred","neonyellow","[""lightred"",""neonyellow"",""low nameability""]","right-left","[""neonyellow"",""lightred""]","2","low nameability","11","right","audio_feedback","1"
"html-button-response","68","293297","0.0-53.0","CKN_131","131","","","","","","null","<button class=""jspsych-btn""><img src=""stimuli/white_square.png"" style=""width: 200px;height: 200px;""></button>","null","lightred","neonyellow","[""lightred"",""neonyellow"",""low nameability""]","right-left","[""neonyellow"",""lightred""]","2","low nameability","11","right","iti",""
"html-button-response","69","293974","0.0-54.0","CKN_131","131","","","","","","660","","0","mustard","lightred","[""mustard"",""lightred"",""low nameability""]","left-right","[""mustard"",""lightred"",""low nameability""]","2","low nameability","12","left","trigger",""
"html-button-response","70","296511","0.0-55.0-0.0","CKN_131","131","","","","","","2530","<button class=""jspsych-btn""><img src=""stimuli/mustard.png"" style=""width: 200px;height: 200px;""></button>","0","mustard","lightred","[""mustard"",""lightred"",""low nameability""]","left-right","[""mustard"",""lightred"",""low nameability""]","2","low nameability","12","left","response","1"
"html-audio-button-response","71","296717","0.0-55.0-1.0","CKN_131","131","","","","","","null","stimuli/bleep.m4a","null","mustard","lightred","[""mustard"",""lightred"",""low nameability""]","left-right","[""mustard"",""lightred"",""low nameability""]","2","low nameability","12","left","audio_feedback","1"
"html-button-response","72","297239","0.0-56.0","CKN_131","131","","","","","","null","<button class=""jspsych-btn""><img src=""stimuli/white_square.png"" style=""width: 200px;height: 200px;""></button>","null","mustard","lightred","[""mustard"",""lightred"",""low nameability""]","left-right","[""mustard"",""lightred"",""low nameability""]","2","low nameability","12","left","iti",""
"html-button-response","73","298055","0.0-57.0","CKN_131","131","","","","","","808","","0","lightred","pink","[""lightred"",""pink"",""low nameability""]","right-left","[""pink"",""lightred""]","2","low nameability","13","right","trigger",""
"html-button-response","74","299721","0.0-58.0-0.0","CKN_131","131","","","","","","1660","<button class=""jspsych-btn""><img src=""stimuli/lightred.png"" style=""width: 200px;height: 200px;""></button>","1","lightred","pink","[""lightred"",""pink"",""low nameability""]","right-left","[""pink"",""lightred""]","2","low nameability","13","right","response","1"
"html-audio-button-response","75","299928","0.0-58.0-1.0","CKN_131","131","","","","","","null","stimuli/bleep.m4a","null","lightred","pink","[""lightred"",""pink"",""low nameability""]","right-left","[""pink"",""lightred""]","2","low nameability","13","right","audio_feedback","1"
"html-button-response","76","300442","0.0-59.0","CKN_131","131","","","","","","null","<button class=""jspsych-btn""><img src=""stimuli/white_square.png"" style=""width: 200px;height: 200px;""></button>","null","lightred","pink","[""lightred"",""pink"",""low nameability""]","right-left","[""pink"",""lightred""]","2","low nameability","13","right","iti",""
"html-button-response","77","301780","0.0-60.0","CKN_131","131","","","","","","1322","","0","blue","brown","[""blue"",""brown"",""high nameability""]","right-left","[""brown"",""blue""]","2","high nameability","14","right","trigger",""
"html-button-response","78","302798","0.0-61.0-0.0","CKN_131","131","","","","","","1009","<button class=""jspsych-btn""><img src=""stimuli/blue.png"" style=""width: 200px;height: 200px;""></button>","1","blue","brown","[""blue"",""brown"",""high nameability""]","right-left","[""brown"",""blue""]","2","high nameability","14","right","response","1"
"html-audio-button-response","79","303002","0.0-61.0-1.0","CKN_131","131","","","","","","null","stimuli/bleep.m4a","null","blue","brown","[""blue"",""brown"",""high nameability""]","right-left","[""brown"",""blue""]","2","high nameability","14","right","audio_feedback","1"
"html-button-response","80","303517","0.0-62.0","CKN_131","131","","","","","","null","<button class=""jspsych-btn""><img src=""stimuli/white_square.png"" style=""width: 200px;height: 200px;""></button>","null","blue","brown","[""blue"",""brown"",""high nameability""]","right-left","[""brown"",""blue""]","2","high nameability","14","right","iti",""
"html-button-response","81","304060","0.0-63.0","CKN_131","131","","","","","","531","","0","pink","turquoise","[""pink"",""turquoise"",""low nameability""]","right-left","[""turquoise"",""pink""]","2","low nameability","15","right","trigger",""
"html-button-response","82","305477","0.0-64.0-0.0","CKN_131","131","","","","","","1411","<button class=""jspsych-btn""><img src=""stimuli/pink.png"" style=""width: 200px;height: 200px;""></button>","1","pink","turquoise","[""pink"",""turquoise"",""low nameability""]","right-left","[""turquoise"",""pink""]","2","low nameability","15","right","response","1"
"html-audio-button-response","83","305684","0.0-64.0-1.0","CKN_131","131","","","","","","null","stimuli/bleep.m4a","null","pink","turquoise","[""pink"",""turquoise"",""low nameability""]","right-left","[""turquoise"",""pink""]","2","low nameability","15","right","audio_feedback","1"
"html-button-response","84","306203","0.0-65.0","CKN_131","131","","","","","","null","<button class=""jspsych-btn""><img src=""stimuli/white_square.png"" style=""width: 200px;height: 200px;""></button>","null","pink","turquoise","[""pink"",""turquoise"",""low nameability""]","right-left","[""turquoise"",""pink""]","2","low nameability","15","right","iti",""
"html-button-response","85","307055","0.0-66.0","CKN_131","131","","","","","","838","","0","orange","purple","[""orange"",""purple"",""high nameability""]","left-right","[""orange"",""purple"",""high nameability""]","2","high nameability","16","left","trigger",""
"html-button-response","86","309102","0.0-67.0-0.0","CKN_131","131","","","","","","2041","<button class=""jspsych-btn""><img src=""stimuli/orange.png"" style=""width: 200px;height: 200px;""></button>","0","orange","purple","[""orange"",""purple"",""high nameability""]","left-right","[""orange"",""purple"",""high nameability""]","2","high nameability","16","left","response","1"
"html-audio-button-response","87","309311","0.0-67.0-1.0","CKN_131","131","","","","","","null","stimuli/bleep.m4a","null","orange","purple","[""orange"",""purple"",""high nameability""]","left-right","[""orange"",""purple"",""high nameability""]","2","high nameability","16","left","audio_feedback","1"
"html-button-response","88","309847","0.0-68.0","CKN_131","131","","","","","","null","<button class=""jspsych-btn""><img src=""stimuli/white_square.png"" style=""width: 200px;height: 200px;""></button>","null","orange","purple","[""orange"",""purple"",""high nameability""]","left-right","[""orange"",""purple"",""high nameability""]","2","high nameability","16","left","iti",""
"html-button-response","89","310614","0.0-69.0","CKN_131","131","","","","","","751","","0","orange","blue","[""orange"",""blue"",""high nameability""]","right-left","[""blue"",""orange""]","2","high nameability","17","right","trigger",""
"html-button-response","90","311683","0.0-70.0-0.0","CKN_131","131","","","","","","1061","<button class=""jspsych-btn""><img src=""stimuli/orange.png"" style=""width: 200px;height: 200px;""></button>","1","orange","blue","[""orange"",""blue"",""high nameability""]","right-left","[""blue"",""orange""]","2","high nameability","17","right","response","1"
"html-audio-button-response","91","311887","0.0-70.0-1.0","CKN_131","131","","","","","","null","stimuli/bleep.m4a","null","orange","blue","[""orange"",""blue"",""high nameability""]","right-left","[""blue"",""orange""]","2","high nameability","17","right","audio_feedback","1"
"html-button-response","92","312412","0.0-71.0","CKN_131","131","","","","","","null","<button class=""jspsych-btn""><img src=""stimuli/white_square.png"" style=""width: 200px;height: 200px;""></button>","null","orange","blue","[""orange"",""blue"",""high nameability""]","right-left","[""blue"",""orange""]","2","high nameability","17","right","iti",""
"html-button-response","93","314061","0.0-72.0","CKN_131","131","","","","","","1638","","0","brown","purple","[""brown"",""purple"",""high nameability""]","right-left","[""purple"",""brown""]","2","high nameability","18","right","trigger",""
"html-button-response","94","315365","0.0-73.0-0.0","CKN_131","131","","","","","","1296","<button class=""jspsych-btn""><img src=""stimuli/brown.png"" style=""width: 200px;height: 200px;""></button>","1","brown","purple","[""brown"",""purple"",""high nameability""]","right-left","[""purple"",""brown""]","2","high nameability","18","right","response","1"
"html-audio-button-response","95","315567","0.0-73.0-1.0","CKN_131","131","","","","","","null","stimuli/bleep.m4a","null","brown","purple","[""brown"",""purple"",""high nameability""]","right-left","[""purple"",""brown""]","2","high nameability","18","right","audio_feedback","1"
"html-button-response","96","316083","0.0-74.0","CKN_131","131","","","","","","null","<button class=""jspsych-btn""><img src=""stimuli/white_square.png"" style=""width: 200px;height: 200px;""></button>","null","brown","purple","[""brown"",""purple"",""high nameability""]","right-left","[""purple"",""brown""]","2","high nameability","18","right","iti",""
"html-button-response","97","317008","0.0-75.0","CKN_131","131","","","","","","905","","0","red","brown","[""red"",""brown"",""high nameability""]","left-right","[""red"",""brown"",""high nameability""]","2","high nameability","19","left","trigger",""
"html-button-response","98","319687","0.0-76.0-0.0","CKN_131","131","","","","","","2673","<button class=""jspsych-btn""><img src=""stimuli/red.png"" style=""width: 200px;height: 200px;""></button>","0","red","brown","[""red"",""brown"",""high nameability""]","left-right","[""red"",""brown"",""high nameability""]","2","high nameability","19","left","response","1"
"html-audio-button-response","99","319896","0.0-76.0-1.0","CKN_131","131","","","","","","null","stimuli/bleep.m4a","null","red","brown","[""red"",""brown"",""high nameability""]","left-right","[""red"",""brown"",""high nameability""]","2","high nameability","19","left","audio_feedback","1"
"html-button-response","100","320421","0.0-77.0","CKN_131","131","","","","","","null","<button class=""jspsych-btn""><img src=""stimuli/white_square.png"" style=""width: 200px;height: 200px;""></button>","null","red","brown","[""red"",""brown"",""high nameability""]","left-right","[""red"",""brown"",""high nameability""]","2","high nameability","19","left","iti",""
"html-button-response","101","321966","0.0-78.0","CKN_131","131","","","","","","1524","","0","lightred","turquoise","[""lightred"",""turquoise"",""low nameability""]","right-left","[""turquoise"",""lightred""]","2","low nameability","20","right","trigger",""
"html-button-response","102","323003","0.0-79.0-0.0","CKN_131","131","","","","","","1019","<button class=""jspsych-btn""><img src=""stimuli/lightred.png"" style=""width: 200px;height: 200px;""></button>","1","lightred","turquoise","[""lightred"",""turquoise"",""low nameability""]","right-left","[""turquoise"",""lightred""]","2","low nameability","20","right","response","1"
"html-audio-button-response","103","323213","0.0-79.0-1.0","CKN_131","131","","","","","","null","stimuli/bleep.m4a","null","lightred","turquoise","[""lightred"",""turquoise"",""low nameability""]","right-left","[""turquoise"",""lightred""]","2","low nameability","20","right","audio_feedback","1"
"html-button-response","104","323741","0.0-80.0","CKN_131","131","","","","","","null","<button class=""jspsych-btn""><img src=""stimuli/white_square.png"" style=""width: 200px;height: 200px;""></button>","null","lightred","turquoise","[""lightred"",""turquoise"",""low nameability""]","right-left","[""turquoise"",""lightred""]","2","low nameability","20","right","iti",""
"pavlovia","105","323855","0.0-81.0","CKN_131","131","","","","","","","","","","","","","","","","","","",""
"pavlovia","106","323877","0.0-82.0","CKN_131","131","","","","","","","","","","","","","","","","","","",""
"html-audio-button-response","107","327958","0.0-83.0","CKN_131","131","","","","","","4221","stimuli/tada.m4a","0","","","","","","","","","","",""
"html-button-response","108","328469","0.0-84.0","CKN_131","131","","","","","","502","","0","","","","","","","","","","",""
"html-button-response","109","330564","0.0-85.0","CKN_131","131","","","","","","2081","","0","darkgreenblue","lightred","[""darkgreenblue"",""lightred"",""low nameability""]","left-right","[""darkgreenblue"",""lightred"",""low nameability""]","3","low nameability","21","left","trigger",""
"html-button-response","110","332524","0.0-86.0-0.0","CKN_131","131","","","","","","1949","<button class=""jspsych-btn""><img src=""stimuli/darkgreenblue.png"" style=""width: 200px;height: 200px;""></button>","0","darkgreenblue","lightred","[""darkgreenblue"",""lightred"",""low nameability""]","left-right","[""darkgreenblue"",""lightred"",""low nameability""]","3","low nameability","21","left","response","1"
"html-audio-button-response","111","332737","0.0-86.0-1.0","CKN_131","131","","","","","","null","stimuli/bleep.m4a","null","darkgreenblue","lightred","[""darkgreenblue"",""lightred"",""low nameability""]","left-right","[""darkgreenblue"",""lightred"",""low nameability""]","3","low nameability","21","left","audio_feedback","1"
"html-button-response","112","333260","0.0-87.0","CKN_131","131","","","","","","null","<button class=""jspsych-btn""><img src=""stimuli/white_square.png"" style=""width: 200px;height: 200px;""></button>","null","darkgreenblue","lightred","[""darkgreenblue"",""lightred"",""low nameability""]","left-right","[""darkgreenblue"",""lightred"",""low nameability""]","3","low nameability","21","left","iti",""
"html-button-response","113","334005","0.0-88.0","CKN_131","131","","","","","","723","","0","turquoise","darkgreenblue","[""turquoise"",""darkgreenblue"",""low nameability""]","left-right","[""turquoise"",""darkgreenblue"",""low nameability""]","3","low nameability","22","left","trigger",""
"html-button-response","114","337766","0.0-89.0-0.0","CKN_131","131","","","","","","3756","<button class=""jspsych-btn""><img src=""stimuli/turquoise.png"" style=""width: 200px;height: 200px;""></button>","0","turquoise","darkgreenblue","[""turquoise"",""darkgreenblue"",""low nameability""]","left-right","[""turquoise"",""darkgreenblue"",""low nameability""]","3","low nameability","22","left","response","1"
"html-audio-button-response","115","337985","0.0-89.0-1.0","CKN_131","131","","","","","","null","stimuli/bleep.m4a","null","turquoise","darkgreenblue","[""turquoise"",""darkgreenblue"",""low nameability""]","left-right","[""turquoise"",""darkgreenblue"",""low nameability""]","3","low nameability","22","left","audio_feedback","1"
"html-button-response","116","338509","0.0-90.0","CKN_131","131","","","","","","null","<button class=""jspsych-btn""><img src=""stimuli/white_square.png"" style=""width: 200px;height: 200px;""></button>","null","turquoise","darkgreenblue","[""turquoise"",""darkgreenblue"",""low nameability""]","left-right","[""turquoise"",""darkgreenblue"",""low nameability""]","3","low nameability","22","left","iti",""
"html-button-response","117","340334","0.0-91.0","CKN_131","131","","","","","","1788","","0","red","purple","[""red"",""purple"",""high nameability""]","left-right","[""red"",""purple"",""high nameability""]","3","high nameability","23","left","trigger",""
"html-button-response","118","342085","0.0-92.0-0.0","CKN_131","131","","","","","","1737","<button class=""jspsych-btn""><img src=""stimuli/red.png"" style=""width: 200px;height: 200px;""></button>","0","red","purple","[""red"",""purple"",""high nameability""]","left-right","[""red"",""purple"",""high nameability""]","3","high nameability","23","left","response","1"
"html-audio-button-response","119","342295","0.0-92.0-1.0","CKN_131","131","","","","","","null","stimuli/bleep.m4a","null","red","purple","[""red"",""purple"",""high nameability""]","left-right","[""red"",""purple"",""high nameability""]","3","high nameability","23","left","audio_feedback","1"
"html-button-response","120","342818","0.0-93.0","CKN_131","131","","","","","","null","<button class=""jspsych-btn""><img src=""stimuli/white_square.png"" style=""width: 200px;height: 200px;""></button>","null","red","purple","[""red"",""purple"",""high nameability""]","left-right","[""red"",""purple"",""high nameability""]","3","high nameability","23","left","iti",""
"html-button-response","121","346235","0.0-94.0","CKN_131","131","","","","","","3403","","0","blue","red","[""blue"",""red"",""high nameability""]","left-right","[""blue"",""red"",""high nameability""]","3","high nameability","24","left","trigger",""
"html-button-response","122","348049","0.0-95.0-0.0","CKN_131","131","","","","","","1800","<button class=""jspsych-btn""><img src=""stimuli/blue.png"" style=""width: 200px;height: 200px;""></button>","0","blue","red","[""blue"",""red"",""high nameability""]","left-right","[""blue"",""red"",""high nameability""]","3","high nameability","24","left","response","1"
"html-audio-button-response","123","348253","0.0-95.0-1.0","CKN_131","131","","","","","","null","stimuli/bleep.m4a","null","blue","red","[""blue"",""red"",""high nameability""]","left-right","[""blue"",""red"",""high nameability""]","3","high nameability","24","left","audio_feedback","1"
"html-button-response","124","348766","0.0-96.0","CKN_131","131","","","","","","null","<button class=""jspsych-btn""><img src=""stimuli/white_square.png"" style=""width: 200px;height: 200px;""></button>","null","blue","red","[""blue"",""red"",""high nameability""]","left-right","[""blue"",""red"",""high nameability""]","3","high nameability","24","left","iti",""
"html-button-response","125","349813","0.0-97.0","CKN_131","131","","","","","","1007","","0","lightred","mustard","[""lightred"",""mustard"",""low nameability""]","left-right","[""lightred"",""mustard"",""low nameability""]","3","low nameability","25","left","trigger",""
"html-button-response","126","351512","0.0-98.0-0.0","CKN_131","131","","","","","","1691","<button class=""jspsych-btn""><img src=""stimuli/lightred.png"" style=""width: 200px;height: 200px;""></button>","0","lightred","mustard","[""lightred"",""mustard"",""low nameability""]","left-right","[""lightred"",""mustard"",""low nameability""]","3","low nameability","25","left","response","1"
"html-audio-button-response","127","351721","0.0-98.0-1.0","CKN_131","131","","","","","","null","stimuli/bleep.m4a","null","lightred","mustard","[""lightred"",""mustard"",""low nameability""]","left-right","[""lightred"",""mustard"",""low nameability""]","3","low nameability","25","left","audio_feedback","1"
"html-button-response","128","352242","0.0-99.0","CKN_131","131","","","","","","null","<button class=""jspsych-btn""><img src=""stimuli/white_square.png"" style=""width: 200px;height: 200px;""></button>","null","lightred","mustard","[""lightred"",""mustard"",""low nameability""]","left-right","[""lightred"",""mustard"",""low nameability""]","3","low nameability","25","left","iti",""
"html-button-response","129","353092","0.0-100.0","CKN_131","131","","","","","","826","","0","turquoise","lightred","[""turquoise"",""lightred"",""low nameability""]","right-left","[""lightred"",""turquoise""]","3","low nameability","26","right","trigger",""
"html-button-response","130","354355","0.0-101.0-0.0","CKN_131","131","","","","","","1253","<button class=""jspsych-btn""><img src=""stimuli/turquoise.png"" style=""width: 200px;height: 200px;""></button>","1","turquoise","lightred","[""turquoise"",""lightred"",""low nameability""]","right-left","[""lightred"",""turquoise""]","3","low nameability","26","right","response","1"
"html-audio-button-response","131","354557","0.0-101.0-1.0","CKN_131","131","","","","","","null","stimuli/bleep.m4a","null","turquoise","lightred","[""turquoise"",""lightred"",""low nameability""]","right-left","[""lightred"",""turquoise""]","3","low nameability","26","right","audio_feedback","1"
"html-button-response","132","355071","0.0-102.0","CKN_131","131","","","","","","null","<button class=""jspsych-btn""><img src=""stimuli/white_square.png"" style=""width: 200px;height: 200px;""></button>","null","turquoise","lightred","[""turquoise"",""lightred"",""low nameability""]","right-left","[""lightred"",""turquoise""]","3","low nameability","26","right","iti",""
"html-button-response","133","355725","0.0-103.0","CKN_131","131","","","","","","643","","0","red","blue","[""red"",""blue"",""high nameability""]","left-right","[""red"",""blue"",""high nameability""]","3","high nameability","27","left","trigger",""
"html-button-response","134","360481","0.0-104.0-0.0","CKN_131","131","","","","","","4749","<button class=""jspsych-btn""><img src=""stimuli/red.png"" style=""width: 200px;height: 200px;""></button>","0","red","blue","[""red"",""blue"",""high nameability""]","left-right","[""red"",""blue"",""high nameability""]","3","high nameability","27","left","response","1"
"html-audio-button-response","135","360687","0.0-104.0-1.0","CKN_131","131","","","","","","null","stimuli/bleep.m4a","null","red","blue","[""red"",""blue"",""high nameability""]","left-right","[""red"",""blue"",""high nameability""]","3","high nameability","27","left","audio_feedback","1"
"html-button-response","136","361216","0.0-105.0","CKN_131","131","","","","","","null","<button class=""jspsych-btn""><img src=""stimuli/white_square.png"" style=""width: 200px;height: 200px;""></button>","null","red","blue","[""red"",""blue"",""high nameability""]","left-right","[""red"",""blue"",""high nameability""]","3","high nameability","27","left","iti",""
"html-button-response","137","362633","0.0-106.0","CKN_131","131","","","","","","1402","","0","neonyellow","darkgreenblue","[""neonyellow"",""darkgreenblue"",""low nameability""]","right-left","[""darkgreenblue"",""neonyellow""]","3","low nameability","28","right","trigger",""
"html-button-response","138","365267","0.0-107.0-0.0","CKN_131","131","","","","","","2626","<button class=""jspsych-btn""><img src=""stimuli/neonyellow.png"" style=""width: 200px;height: 200px;""></button>","1","neonyellow","darkgreenblue","[""neonyellow"",""darkgreenblue"",""low nameability""]","right-left","[""darkgreenblue"",""neonyellow""]","3","low nameability","28","right","response","1"
"html-audio-button-response","139","365470","0.0-107.0-1.0","CKN_131","131","","","","","","null","stimuli/bleep.m4a","null","neonyellow","darkgreenblue","[""neonyellow"",""darkgreenblue"",""low nameability""]","right-left","[""darkgreenblue"",""neonyellow""]","3","low nameability","28","right","audio_feedback","1"
"html-button-response","140","365988","0.0-108.0","CKN_131","131","","","","","","null","<button class=""jspsych-btn""><img src=""stimuli/white_square.png"" style=""width: 200px;height: 200px;""></button>","null","neonyellow","darkgreenblue","[""neonyellow"",""darkgreenblue"",""low nameability""]","right-left","[""darkgreenblue"",""neonyellow""]","3","low nameability","28","right","iti",""
"html-button-response","141","368062","0.0-109.0","CKN_131","131","","","","","","2061","","0","turquoise","mustard","[""turquoise"",""mustard"",""low nameability""]","left-right","[""turquoise"",""mustard"",""low nameability""]","3","low nameability","29","left","trigger",""
"html-button-response","142","369847","0.0-110.0-0.0","CKN_131","131","","","","","","1778","<button class=""jspsych-btn""><img src=""stimuli/turquoise.png"" style=""width: 200px;height: 200px;""></button>","0","turquoise","mustard","[""turquoise"",""mustard"",""low nameability""]","left-right","[""turquoise"",""mustard"",""low nameability""]","3","low nameability","29","left","response","1"
"html-audio-button-response","143","370056","0.0-110.0-1.0","CKN_131","131","","","","","","null","stimuli/bleep.m4a","null","turquoise","mustard","[""turquoise"",""mustard"",""low nameability""]","left-right","[""turquoise"",""mustard"",""low nameability""]","3","low nameability","29","left","audio_feedback","1"
"html-button-response","144","370578","0.0-111.0","CKN_131","131","","","","","","null","<button class=""jspsych-btn""><img src=""stimuli/white_square.png"" style=""width: 200px;height: 200px;""></button>","null","turquoise","mustard","[""turquoise"",""mustard"",""low nameability""]","left-right","[""turquoise"",""mustard"",""low nameability""]","3","low nameability","29","left","iti",""
"html-button-response","145","371459","0.0-112.0","CKN_131","131","","","","","","868","","0","neonyellow","turquoise","[""neonyellow"",""turquoise"",""low nameability""]","right-left","[""turquoise"",""neonyellow""]","3","low nameability","30","right","trigger",""
"html-button-response","146","372511","0.0-113.0-0.0","CKN_131","131","","","","","","1045","<button class=""jspsych-btn""><img src=""stimuli/neonyellow.png"" style=""width: 200px;height: 200px;""></button>","1","neonyellow","turquoise","[""neonyellow"",""turquoise"",""low nameability""]","right-left","[""turquoise"",""neonyellow""]","3","low nameability","30","right","response","1"
"html-audio-button-response","147","372716","0.0-113.0-1.0","CKN_131","131","","","","","","null","stimuli/bleep.m4a","null","neonyellow","turquoise","[""neonyellow"",""turquoise"",""low nameability""]","right-left","[""turquoise"",""neonyellow""]","3","low nameability","30","right","audio_feedback","1"
"html-button-response","148","373226","0.0-114.0","CKN_131","131","","","","","","null","<button class=""jspsych-btn""><img src=""stimuli/white_square.png"" style=""width: 200px;height: 200px;""></button>","null","neonyellow","turquoise","[""neonyellow"",""turquoise"",""low nameability""]","right-left","[""turquoise"",""neonyellow""]","3","low nameability","30","right","iti",""
"pavlovia","149","373325","0.0-115.0","CKN_131","131","","","","","","","","","","","","","","","","","","",""
"pavlovia","150","373338","0.0-116.0","CKN_131","131","","","","","","","","","","","","","","","","","","",""
"html-audio-button-response","151","377926","0.0-117.0","CKN_131","131","","","","","","4696","stimuli/tada.m4a","0","","","","","","","","","","",""
"html-button-response","152","378501","0.0-118.0","CKN_131","131","","","","","","567","","0","","","","","","","","","","",""
"html-button-response","153","380719","0.0-119.0","CKN_131","131","","","","","","2214","","0","blue","purple","[""blue"",""purple"",""high nameability""]","left-right","[""blue"",""purple"",""high nameability""]","4","high nameability","31","left","trigger",""
"html-button-response","154","382571","0.0-120.0-0.0","CKN_131","131","","","","","","1838","<button class=""jspsych-btn""><img src=""stimuli/blue.png"" style=""width: 200px;height: 200px;""></button>","0","blue","purple","[""blue"",""purple"",""high nameability""]","left-right","[""blue"",""purple"",""high nameability""]","4","high nameability","31","left","response","1"
"html-audio-button-response","155","382794","0.0-120.0-1.0","CKN_131","131","","","","","","null","stimuli/bleep.m4a","null","blue","purple","[""blue"",""purple"",""high nameability""]","left-right","[""blue"",""purple"",""high nameability""]","4","high nameability","31","left","audio_feedback","1"
"html-button-response","156","383324","0.0-121.0","CKN_131","131","","","","","","null","<button class=""jspsych-btn""><img src=""stimuli/white_square.png"" style=""width: 200px;height: 200px;""></button>","null","blue","purple","[""blue"",""purple"",""high nameability""]","left-right","[""blue"",""purple"",""high nameability""]","4","high nameability","31","left","iti",""
"html-button-response","157","384273","0.0-122.0","CKN_131","131","","","","","","916","","0","darkgreenblue","turquoise","[""darkgreenblue"",""turquoise"",""low nameability""]","left-right","[""darkgreenblue"",""turquoise"",""low nameability""]","4","low nameability","32","left","trigger",""
"html-button-response","158","386667","0.0-123.0-0.0","CKN_131","131","","","","","","2380","<button class=""jspsych-btn""><img src=""stimuli/darkgreenblue.png"" style=""width: 200px;height: 200px;""></button>","0","darkgreenblue","turquoise","[""darkgreenblue"",""turquoise"",""low nameability""]","left-right","[""darkgreenblue"",""turquoise"",""low nameability""]","4","low nameability","32","left","response","1"
"html-audio-button-response","159","386878","0.0-123.0-1.0","CKN_131","131","","","","","","null","stimuli/bleep.m4a","null","darkgreenblue","turquoise","[""darkgreenblue"",""turquoise"",""low nameability""]","left-right","[""darkgreenblue"",""turquoise"",""low nameability""]","4","low nameability","32","left","audio_feedback","1"
"html-button-response","160","387398","0.0-124.0","CKN_131","131","","","","","","null","<button class=""jspsych-btn""><img src=""stimuli/white_square.png"" style=""width: 200px;height: 200px;""></button>","null","darkgreenblue","turquoise","[""darkgreenblue"",""turquoise"",""low nameability""]","left-right","[""darkgreenblue"",""turquoise"",""low nameability""]","4","low nameability","32","left","iti",""
"html-button-response","161","388704","0.0-125.0","CKN_131","131","","","","","","1271","","0","darkgreenblue","neonyellow","[""darkgreenblue"",""neonyellow"",""low nameability""]","left-right","[""darkgreenblue"",""neonyellow"",""low nameability""]","4","low nameability","33","left","trigger",""
"html-button-response","162","390512","0.0-126.0-0.0","CKN_131","131","","","","","","1789","<button class=""jspsych-btn""><img src=""stimuli/darkgreenblue.png"" style=""width: 200px;height: 200px;""></button>","0","darkgreenblue","neonyellow","[""darkgreenblue"",""neonyellow"",""low nameability""]","left-right","[""darkgreenblue"",""neonyellow"",""low nameability""]","4","low nameability","33","left","response","1"
"html-audio-button-response","163","390726","0.0-126.0-1.0","CKN_131","131","","","","","","null","stimuli/bleep.m4a","null","darkgreenblue","neonyellow","[""darkgreenblue"",""neonyellow"",""low nameability""]","left-right","[""darkgreenblue"",""neonyellow"",""low nameability""]","4","low nameability","33","left","audio_feedback","1"
"html-button-response","164","391248","0.0-127.0","CKN_131","131","","","","","","null","<button class=""jspsych-btn""><img src=""stimuli/white_square.png"" style=""width: 200px;height: 200px;""></button>","null","darkgreenblue","neonyellow","[""darkgreenblue"",""neonyellow"",""low nameability""]","left-right","[""darkgreenblue"",""neonyellow"",""low nameability""]","4","low nameability","33","left","iti",""
"html-button-response","165","392233","0.0-128.0","CKN_131","131","","","","","","965","","0","lightred","darkgreenblue","[""lightred"",""darkgreenblue"",""low nameability""]","left-right","[""lightred"",""darkgreenblue"",""low nameability""]","4","low nameability","34","left","trigger",""
"html-button-response","166","395431","0.0-129.0-0.0","CKN_131","131","","","","","","3189","<button class=""jspsych-btn""><img src=""stimuli/lightred.png"" style=""width: 200px;height: 200px;""></button>","0","lightred","darkgreenblue","[""lightred"",""darkgreenblue"",""low nameability""]","left-right","[""lightred"",""darkgreenblue"",""low nameability""]","4","low nameability","34","left","response","1"
"html-audio-button-response","167","395639","0.0-129.0-1.0","CKN_131","131","","","","","","null","stimuli/bleep.m4a","null","lightred","darkgreenblue","[""lightred"",""darkgreenblue"",""low nameability""]","left-right","[""lightred"",""darkgreenblue"",""low nameability""]","4","low nameability","34","left","audio_feedback","1"
"html-button-response","168","396184","0.0-130.0","CKN_131","131","","","","","","null","<button class=""jspsych-btn""><img src=""stimuli/white_square.png"" style=""width: 200px;height: 200px;""></button>","null","lightred","darkgreenblue","[""lightred"",""darkgreenblue"",""low nameability""]","left-right","[""lightred"",""darkgreenblue"",""low nameability""]","4","low nameability","34","left","iti",""
"html-button-response","169","398743","0.0-131.0","CKN_131","131","","","","","","2529","","0","yellow","red","[""yellow"",""red"",""high nameability""]","right-left","[""red"",""yellow""]","4","high nameability","35","right","trigger",""
"html-button-response","170","401322","0.0-132.0-0.0","CKN_131","131","","","","","","2572","<button class=""jspsych-btn""><img src=""stimuli/yellow.png"" style=""width: 200px;height: 200px;""></button>","1","yellow","red","[""yellow"",""red"",""high nameability""]","right-left","[""red"",""yellow""]","4","high nameability","35","right","response","1"
"html-audio-button-response","171","401526","0.0-132.0-1.0","CKN_131","131","","","","","","null","stimuli/bleep.m4a","null","yellow","red","[""yellow"",""red"",""high nameability""]","right-left","[""red"",""yellow""]","4","high nameability","35","right","audio_feedback","1"
"html-button-response","172","402042","0.0-133.0","CKN_131","131","","","","","","null","<button class=""jspsych-btn""><img src=""stimuli/white_square.png"" style=""width: 200px;height: 200px;""></button>","null","yellow","red","[""yellow"",""red"",""high nameability""]","right-left","[""red"",""yellow""]","4","high nameability","35","right","iti",""
"html-button-response","173","406960","0.0-134.0","CKN_131","131","","","","","","4909","","0","brown","yellow","[""brown"",""yellow"",""high nameability""]","left-right","[""brown"",""yellow"",""high nameability""]","4","high nameability","36","left","trigger",""
"html-button-response","174","408518","0.0-135.0-0.0","CKN_131","131","","","","","","1548","<button class=""jspsych-btn""><img src=""stimuli/brown.png"" style=""width: 200px;height: 200px;""></button>","0","brown","yellow","[""brown"",""yellow"",""high nameability""]","left-right","[""brown"",""yellow"",""high nameability""]","4","high nameability","36","left","response","1"
"html-audio-button-response","175","408726","0.0-135.0-1.0","CKN_131","131","","","","","","null","stimuli/bleep.m4a","null","brown","yellow","[""brown"",""yellow"",""high nameability""]","left-right","[""brown"",""yellow"",""high nameability""]","4","high nameability","36","left","audio_feedback","1"
"html-button-response","176","409244","0.0-136.0","CKN_131","131","","","","","","176","<button class=""jspsych-btn""><img src=""stimuli/white_square.png"" style=""width: 200px;height: 200px;""></button>","0","brown","yellow","[""brown"",""yellow"",""high nameability""]","left-right","[""brown"",""yellow"",""high nameability""]","4","high nameability","36","left","iti",""
"html-button-response","177","410281","0.0-137.0","CKN_131","131","","","","","","1026","","0","orange","red","[""orange"",""red"",""high nameability""]","left-right","[""orange"",""red"",""high nameability""]","4","high nameability","37","left","trigger",""
"html-button-response","178","411243","0.0-138.0-0.0","CKN_131","131","","","","","","953","<button class=""jspsych-btn""><img src=""stimuli/orange.png"" style=""width: 200px;height: 200px;""></button>","0","orange","red","[""orange"",""red"",""high nameability""]","left-right","[""orange"",""red"",""high nameability""]","4","high nameability","37","left","response","1"
"html-audio-button-response","179","411446","0.0-138.0-1.0","CKN_131","131","","","","","","null","stimuli/bleep.m4a","null","orange","red","[""orange"",""red"",""high nameability""]","left-right","[""orange"",""red"",""high nameability""]","4","high nameability","37","left","audio_feedback","1"
"html-button-response","180","411960","0.0-139.0","CKN_131","131","","","","","","null","<button class=""jspsych-btn""><img src=""stimuli/white_square.png"" style=""width: 200px;height: 200px;""></button>","null","orange","red","[""orange"",""red"",""high nameability""]","left-right","[""orange"",""red"",""high nameability""]","4","high nameability","37","left","iti",""
"html-button-response","181","412840","0.0-140.0","CKN_131","131","","","","","","871","","0","neonyellow","mustard","[""neonyellow"",""mustard"",""low nameability""]","right-left","[""mustard"",""neonyellow""]","4","low nameability","38","right","trigger",""
"html-button-response","182","413914","0.0-141.0-0.0","CKN_131","131","","","","","","1069","<button class=""jspsych-btn""><img src=""stimuli/neonyellow.png"" style=""width: 200px;height: 200px;""></button>","1","neonyellow","mustard","[""neonyellow"",""mustard"",""low nameability""]","right-left","[""mustard"",""neonyellow""]","4","low nameability","38","right","response","1"
"html-audio-button-response","183","414117","0.0-141.0-1.0","CKN_131","131","","","","","","null","stimuli/bleep.m4a","null","neonyellow","mustard","[""neonyellow"",""mustard"",""low nameability""]","right-left","[""mustard"",""neonyellow""]","4","low nameability","38","right","audio_feedback","1"
"html-button-response","184","414643","0.0-142.0","CKN_131","131","","","","","","null","<button class=""jspsych-btn""><img src=""stimuli/white_square.png"" style=""width: 200px;height: 200px;""></button>","null","neonyellow","mustard","[""neonyellow"",""mustard"",""low nameability""]","right-left","[""mustard"",""neonyellow""]","4","low nameability","38","right","iti",""
"html-button-response","185","414985","0.0-143.0","CKN_131","131","","","","","","328","","0","pink","mustard","[""pink"",""mustard"",""low nameability""]","right-left","[""mustard"",""pink""]","4","low nameability","39","right","trigger",""
"html-button-response","186","416877","0.0-144.0-0.0","CKN_131","131","","","","","","1885","<button class=""jspsych-btn""><img src=""stimuli/pink.png"" style=""width: 200px;height: 200px;""></button>","1","pink","mustard","[""pink"",""mustard"",""low nameability""]","right-left","[""mustard"",""pink""]","4","low nameability","39","right","response","1"
"html-audio-button-response","187","417086","0.0-144.0-1.0","CKN_131","131","","","","","","null","stimuli/bleep.m4a","null","pink","mustard","[""pink"",""mustard"",""low nameability""]","right-left","[""mustard"",""pink""]","4","low nameability","39","right","audio_feedback","1"
"html-button-response","188","417611","0.0-145.0","CKN_131","131","","","","","","null","<button class=""jspsych-btn""><img src=""stimuli/white_square.png"" style=""width: 200px;height: 200px;""></button>","null","pink","mustard","[""pink"",""mustard"",""low nameability""]","right-left","[""mustard"",""pink""]","4","low nameability","39","right","iti",""
"html-button-response","189","418169","0.0-146.0","CKN_131","131","","","","","","552","","0","red","yellow","[""red"",""yellow"",""high nameability""]","right-left","[""yellow"",""red""]","4","high nameability","40","right","trigger",""
"html-button-response","190","420265","0.0-147.0-0.0","CKN_131","131","","","","","","2090","<button class=""jspsych-btn""><img src=""stimuli/red.png"" style=""width: 200px;height: 200px;""></button>","1","red","yellow","[""red"",""yellow"",""high nameability""]","right-left","[""yellow"",""red""]","4","high nameability","40","right","response","1"
"html-audio-button-response","191","420471","0.0-147.0-1.0","CKN_131","131","","","","","","null","stimuli/bleep.m4a","null","red","yellow","[""red"",""yellow"",""high nameability""]","right-left","[""yellow"",""red""]","4","high nameability","40","right","audio_feedback","1"
"html-button-response","192","420987","0.0-148.0","CKN_131","131","","","","","","null","<button class=""jspsych-btn""><img src=""stimuli/white_square.png"" style=""width: 200px;height: 200px;""></button>","null","red","yellow","[""red"",""yellow"",""high nameability""]","right-left","[""yellow"",""red""]","4","high nameability","40","right","iti",""
"pavlovia","193","421111","0.0-149.0","CKN_131","131","","","","","","","","","","","","","","","","","","",""
"pavlovia","194","421127","0.0-150.0","CKN_131","131","","","","","","","","","","","","","","","","","","",""
"html-audio-button-response","195","425077","0.0-151.0","CKN_131","131","","","","","","4085","stimuli/tada.m4a","0","","","","","","","","","","",""
"html-button-response","196","425772","0.0-152.0","CKN_131","131","","","","","","690","","0","","","","","","","","","","",""
"html-button-response","197","426697","0.0-153.0","CKN_131","131","","","","","","917","","0","mustard","pink","[""mustard"",""pink"",""low nameability""]","right-left","[""pink"",""mustard""]","5","low nameability","41","right","trigger",""
"html-button-response","198","427741","0.0-154.0-0.0","CKN_131","131","","","","","","1035","<button class=""jspsych-btn""><img src=""stimuli/mustard.png"" style=""width: 200px;height: 200px;""></button>","1","mustard","pink","[""mustard"",""pink"",""low nameability""]","right-left","[""pink"",""mustard""]","5","low nameability","41","right","response","1"
"html-audio-button-response","199","427957","0.0-154.0-1.0","CKN_131","131","","","","","","null","stimuli/bleep.m4a","null","mustard","pink","[""mustard"",""pink"",""low nameability""]","right-left","[""pink"",""mustard""]","5","low nameability","41","right","audio_feedback","1"
"html-button-response","200","428477","0.0-155.0","CKN_131","131","","","","","","null","<button class=""jspsych-btn""><img src=""stimuli/white_square.png"" style=""width: 200px;height: 200px;""></button>","null","mustard","pink","[""mustard"",""pink"",""low nameability""]","right-left","[""pink"",""mustard""]","5","low nameability","41","right","iti",""
"html-button-response","201","429088","0.0-156.0","CKN_131","131","","","","","","600","","0","yellow","blue","[""yellow"",""blue"",""high nameability""]","right-left","[""blue"",""yellow""]","5","high nameability","42","right","trigger",""
"html-button-response","202","429977","0.0-157.0-0.0","CKN_131","131","","","","","","883","<button class=""jspsych-btn""><img src=""stimuli/yellow.png"" style=""width: 200px;height: 200px;""></button>","1","yellow","blue","[""yellow"",""blue"",""high nameability""]","right-left","[""blue"",""yellow""]","5","high nameability","42","right","response","1"
"html-audio-button-response","203","430181","0.0-157.0-1.0","CKN_131","131","","","","","","null","stimuli/bleep.m4a","null","yellow","blue","[""yellow"",""blue"",""high nameability""]","right-left","[""blue"",""yellow""]","5","high nameability","42","right","audio_feedback","1"
"html-button-response","204","430692","0.0-158.0","CKN_131","131","","","","","","null","<button class=""jspsych-btn""><img src=""stimuli/white_square.png"" style=""width: 200px;height: 200px;""></button>","null","yellow","blue","[""yellow"",""blue"",""high nameability""]","right-left","[""blue"",""yellow""]","5","high nameability","42","right","iti",""
"html-button-response","205","432560","0.0-159.0","CKN_131","131","","","","","","1853","","0","purple","brown","[""purple"",""brown"",""high nameability""]","right-left","[""brown"",""purple""]","5","high nameability","43","right","trigger",""
"html-button-response","206","434672","0.0-160.0-0.0","CKN_131","131","","","","","","2106","<button class=""jspsych-btn""><img src=""stimuli/purple.png"" style=""width: 200px;height: 200px;""></button>","1","purple","brown","[""purple"",""brown"",""high nameability""]","right-left","[""brown"",""purple""]","5","high nameability","43","right","response","1"
"html-audio-button-response","207","434878","0.0-160.0-1.0","CKN_131","131","","","","","","null","stimuli/bleep.m4a","null","purple","brown","[""purple"",""brown"",""high nameability""]","right-left","[""brown"",""purple""]","5","high nameability","43","right","audio_feedback","1"
"html-button-response","208","435404","0.0-161.0","CKN_131","131","","","","","","null","<button class=""jspsych-btn""><img src=""stimuli/white_square.png"" style=""width: 200px;height: 200px;""></button>","null","purple","brown","[""purple"",""brown"",""high nameability""]","right-left","[""brown"",""purple""]","5","high nameability","43","right","iti",""
"html-button-response","209","435937","0.0-162.0","CKN_131","131","","","","","","518","","0","mustard","neonyellow","[""mustard"",""neonyellow"",""low nameability""]","left-right","[""mustard"",""neonyellow"",""low nameability""]","5","low nameability","44","left","trigger",""
"html-button-response","210","436880","0.0-163.0-0.0","CKN_131","131","","","","","","938","<button class=""jspsych-btn""><img src=""stimuli/mustard.png"" style=""width: 200px;height: 200px;""></button>","1","mustard","neonyellow","[""mustard"",""neonyellow"",""low nameability""]","left-right","[""mustard"",""neonyellow"",""low nameability""]","5","low nameability","44","left","response","0"
"html-audio-button-response","211","437499","0.0-163.0-1.0","CKN_131","131","","","","","","null","stimuli/boing.m4a","null","mustard","neonyellow","[""mustard"",""neonyellow"",""low nameability""]","left-right","[""mustard"",""neonyellow"",""low nameability""]","5","low nameability","44","left","audio_feedback","0"
"html-button-response","212","439508","0.0-163.1-0.1","CKN_131","131","","","","","","1996","<button class=""jspsych-btn""><img src=""stimuli/mustard.png"" style=""width: 200px;height: 200px;""></button>","0","mustard","neonyellow","[""mustard"",""neonyellow"",""low nameability""]","left-right","[""mustard"",""neonyellow"",""low nameability""]","5","low nameability","44","left","response","1"
"html-audio-button-response","213","439710","0.0-163.1-1.1","CKN_131","131","","","","","","null","stimuli/bleep.m4a","null","mustard","neonyellow","[""mustard"",""neonyellow"",""low nameability""]","left-right","[""mustard"",""neonyellow"",""low nameability""]","5","low nameability","44","left","audio_feedback","1"
"html-button-response","214","440219","0.0-164.0","CKN_131","131","","","","","","null","<button class=""jspsych-btn""><img src=""stimuli/white_square.png"" style=""width: 200px;height: 200px;""></button>","null","mustard","neonyellow","[""mustard"",""neonyellow"",""low nameability""]","left-right","[""mustard"",""neonyellow"",""low nameability""]","5","low nameability","44","left","iti",""
"html-button-response","215","443762","0.0-165.0","CKN_131","131","","","","","","3535","","0","yellow","brown","[""yellow"",""brown"",""high nameability""]","left-right","[""yellow"",""brown"",""high nameability""]","5","high nameability","45","left","trigger",""
"html-button-response","216","445462","0.0-166.0-0.0","CKN_131","131","","","","","","1690","<button class=""jspsych-btn""><img src=""stimuli/yellow.png"" style=""width: 200px;height: 200px;""></button>","0","yellow","brown","[""yellow"",""brown"",""high nameability""]","left-right","[""yellow"",""brown"",""high nameability""]","5","high nameability","45","left","response","1"
"html-audio-button-response","217","445681","0.0-166.0-1.0","CKN_131","131","","","","","","null","stimuli/bleep.m4a","null","yellow","brown","[""yellow"",""brown"",""high nameability""]","left-right","[""yellow"",""brown"",""high nameability""]","5","high nameability","45","left","audio_feedback","1"
"html-button-response","218","446212","0.0-167.0","CKN_131","131","","","","","","null","<button class=""jspsych-btn""><img src=""stimuli/white_square.png"" style=""width: 200px;height: 200px;""></button>","null","yellow","brown","[""yellow"",""brown"",""high nameability""]","left-right","[""yellow"",""brown"",""high nameability""]","5","high nameability","45","left","iti",""
"html-button-response","219","447996","0.0-168.0","CKN_131","131","","","","","","1758","","0","purple","red","[""purple"",""red"",""high nameability""]","left-right","[""purple"",""red"",""high nameability""]","5","high nameability","46","left","trigger",""
"html-button-response","220","448823","0.0-169.0-0.0","CKN_131","131","","","","","","812","<button class=""jspsych-btn""><img src=""stimuli/purple.png"" style=""width: 200px;height: 200px;""></button>","0","purple","red","[""purple"",""red"",""high nameability""]","left-right","[""purple"",""red"",""high nameability""]","5","high nameability","46","left","response","1"
"html-audio-button-response","221","449039","0.0-169.0-1.0","CKN_131","131","","","","","","null","stimuli/bleep.m4a","null","purple","red","[""purple"",""red"",""high nameability""]","left-right","[""purple"",""red"",""high nameability""]","5","high nameability","46","left","audio_feedback","1"
"html-button-response","222","449585","0.0-170.0","CKN_131","131","","","","","","null","<button class=""jspsych-btn""><img src=""stimuli/white_square.png"" style=""width: 200px;height: 200px;""></button>","null","purple","red","[""purple"",""red"",""high nameability""]","left-right","[""purple"",""red"",""high nameability""]","5","high nameability","46","left","iti",""
"html-button-response","223","452359","0.0-171.0","CKN_131","131","","","","","","2749","","0","orange","yellow","[""orange"",""yellow"",""high nameability""]","right-left","[""yellow"",""orange""]","5","high nameability","47","right","trigger",""
"html-button-response","224","455569","0.0-172.0-0.0","CKN_131","131","","","","","","3190","<button class=""jspsych-btn""><img src=""stimuli/orange.png"" style=""width: 200px;height: 200px;""></button>","1","orange","yellow","[""orange"",""yellow"",""high nameability""]","right-left","[""yellow"",""orange""]","5","high nameability","47","right","response","1"
"html-audio-button-response","225","455799","0.0-172.0-1.0","CKN_131","131","","","","","","null","stimuli/bleep.m4a","null","orange","yellow","[""orange"",""yellow"",""high nameability""]","right-left","[""yellow"",""orange""]","5","high nameability","47","right","audio_feedback","1"
"html-button-response","226","456330","0.0-173.0","CKN_131","131","","","","","","128","<button class=""jspsych-btn""><img src=""stimuli/white_square.png"" style=""width: 200px;height: 200px;""></button>","1","orange","yellow","[""orange"",""yellow"",""high nameability""]","right-left","[""yellow"",""orange""]","5","high nameability","47","right","iti",""
"html-button-response","227","459492","0.0-174.0","CKN_131","131","","","","","","3147","","0","pink","lightred","[""pink"",""lightred"",""low nameability""]","right-left","[""lightred"",""pink""]","5","low nameability","48","right","trigger",""
"html-button-response","228","460706","0.0-175.0-0.0","CKN_131","131","","","","","","1205","<button class=""jspsych-btn""><img src=""stimuli/pink.png"" style=""width: 200px;height: 200px;""></button>","1","pink","lightred","[""pink"",""lightred"",""low nameability""]","right-left","[""lightred"",""pink""]","5","low nameability","48","right","response","1"
"html-audio-button-response","229","460909","0.0-175.0-1.0","CKN_131","131","","","","","","null","stimuli/bleep.m4a","null","pink","lightred","[""pink"",""lightred"",""low nameability""]","right-left","[""lightred"",""pink""]","5","low nameability","48","right","audio_feedback","1"
"html-button-response","230","461421","0.0-176.0","CKN_131","131","","","","","","null","<button class=""jspsych-btn""><img src=""stimuli/white_square.png"" style=""width: 200px;height: 200px;""></button>","null","pink","lightred","[""pink"",""lightred"",""low nameability""]","right-left","[""lightred"",""pink""]","5","low nameability","48","right","iti",""
"html-button-response","231","461994","0.0-177.0","CKN_131","131","","","","","","563","","0","brown","orange","[""brown"",""orange"",""high nameability""]","right-left","[""orange"",""brown""]","5","high nameability","49","right","trigger",""
"html-button-response","232","463381","0.0-178.0-0.0","CKN_131","131","","","","","","1377","<button class=""jspsych-btn""><img src=""stimuli/brown.png"" style=""width: 200px;height: 200px;""></button>","1","brown","orange","[""brown"",""orange"",""high nameability""]","right-left","[""orange"",""brown""]","5","high nameability","49","right","response","1"
"html-audio-button-response","233","463605","0.0-178.0-1.0","CKN_131","131","","","","","","null","stimuli/bleep.m4a","null","brown","orange","[""brown"",""orange"",""high nameability""]","right-left","[""orange"",""brown""]","5","high nameability","49","right","audio_feedback","1"
"html-button-response","234","464140","0.0-179.0","CKN_131","131","","","","","","null","<button class=""jspsych-btn""><img src=""stimuli/white_square.png"" style=""width: 200px;height: 200px;""></button>","null","brown","orange","[""brown"",""orange"",""high nameability""]","right-left","[""orange"",""brown""]","5","high nameability","49","right","iti",""
"html-button-response","235","464840","0.0-180.0","CKN_131","131","","","","","","685","","0","neonyellow","pink","[""neonyellow"",""pink"",""low nameability""]","left-right","[""neonyellow"",""pink"",""low nameability""]","5","low nameability","50","left","trigger",""
"html-button-response","236","467504","0.0-181.0-0.0","CKN_131","131","","","","","","2656","<button class=""jspsych-btn""><img src=""stimuli/neonyellow.png"" style=""width: 200px;height: 200px;""></button>","0","neonyellow","pink","[""neonyellow"",""pink"",""low nameability""]","left-right","[""neonyellow"",""pink"",""low nameability""]","5","low nameability","50","left","response","1"
"html-audio-button-response","237","467711","0.0-181.0-1.0","CKN_131","131","","","","","","null","stimuli/bleep.m4a","null","neonyellow","pink","[""neonyellow"",""pink"",""low nameability""]","left-right","[""neonyellow"",""pink"",""low nameability""]","5","low nameability","50","left","audio_feedback","1"
"html-button-response","238","468227","0.0-182.0","CKN_131","131","","","","","","null","<button class=""jspsych-btn""><img src=""stimuli/white_square.png"" style=""width: 200px;height: 200px;""></button>","null","neonyellow","pink","[""neonyellow"",""pink"",""low nameability""]","left-right","[""neonyellow"",""pink"",""low nameability""]","5","low nameability","50","left","iti",""
"pavlovia","239","468343","0.0-183.0","CKN_131","131","","","","","","","","","","","","","","","","","","",""
"pavlovia","240","468357","0.0-184.0","CKN_131","131","","","","","","","","","","","","","","","","","","",""
"html-audio-button-response","241","472169","0.0-185.0","CKN_131","131","","","","","","3944","stimuli/tada.m4a","0","","","","","","","","","","",""
"html-button-response","242","472883","0.0-186.0","CKN_131","131","","","","","","705","","0","","","","","","","","","","",""
"html-button-response","243","475361","0.0-187.0","CKN_131","131","","","","","","2466","","0","darkgreenblue","mustard","[""darkgreenblue"",""mustard"",""low nameability""]","right-left","[""mustard"",""darkgreenblue""]","6","low nameability","51","right","trigger",""
"html-button-response","244","477162","0.0-188.0-0.0","CKN_131","131","","","","","","1792","<button class=""jspsych-btn""><img src=""stimuli/darkgreenblue.png"" style=""width: 200px;height: 200px;""></button>","1","darkgreenblue","mustard","[""darkgreenblue"",""mustard"",""low nameability""]","right-left","[""mustard"",""darkgreenblue""]","6","low nameability","51","right","response","1"
"html-audio-button-response","245","477366","0.0-188.0-1.0","CKN_131","131","","","","","","null","stimuli/bleep.m4a","null","darkgreenblue","mustard","[""darkgreenblue"",""mustard"",""low nameability""]","right-left","[""mustard"",""darkgreenblue""]","6","low nameability","51","right","audio_feedback","1"
"html-button-response","246","477890","0.0-189.0","CKN_131","131","","","","","","null","<button class=""jspsych-btn""><img src=""stimuli/white_square.png"" style=""width: 200px;height: 200px;""></button>","null","darkgreenblue","mustard","[""darkgreenblue"",""mustard"",""low nameability""]","right-left","[""mustard"",""darkgreenblue""]","6","low nameability","51","right","iti",""
"html-button-response","247","478454","0.0-190.0","CKN_131","131","","","","","","550","","0","turquoise","pink","[""turquoise"",""pink"",""low nameability""]","left-right","[""turquoise"",""pink"",""low nameability""]","6","low nameability","52","left","trigger",""
"html-button-response","248","479665","0.0-191.0-0.0","CKN_131","131","","","","","","1202","<button class=""jspsych-btn""><img src=""stimuli/turquoise.png"" style=""width: 200px;height: 200px;""></button>","0","turquoise","pink","[""turquoise"",""pink"",""low nameability""]","left-right","[""turquoise"",""pink"",""low nameability""]","6","low nameability","52","left","response","1"
"html-audio-button-response","249","479875","0.0-191.0-1.0","CKN_131","131","","","","","","null","stimuli/bleep.m4a","null","turquoise","pink","[""turquoise"",""pink"",""low nameability""]","left-right","[""turquoise"",""pink"",""low nameability""]","6","low nameability","52","left","audio_feedback","1"
"html-button-response","250","480411","0.0-192.0","CKN_131","131","","","","","","null","<button class=""jspsych-btn""><img src=""stimuli/white_square.png"" style=""width: 200px;height: 200px;""></button>","null","turquoise","pink","[""turquoise"",""pink"",""low nameability""]","left-right","[""turquoise"",""pink"",""low nameability""]","6","low nameability","52","left","iti",""
"html-button-response","251","481724","0.0-193.0","CKN_131","131","","","","","","1299","","0","orange","brown","[""orange"",""brown"",""high nameability""]","right-left","[""brown"",""orange""]","6","high nameability","53","right","trigger",""
"html-button-response","252","482753","0.0-194.0-0.0","CKN_131","131","","","","","","1022","<button class=""jspsych-btn""><img src=""stimuli/orange.png"" style=""width: 200px;height: 200px;""></button>","1","orange","brown","[""orange"",""brown"",""high nameability""]","right-left","[""brown"",""orange""]","6","high nameability","53","right","response","1"
"html-audio-button-response","253","482961","0.0-194.0-1.0","CKN_131","131","","","","","","null","stimuli/bleep.m4a","null","orange","brown","[""orange"",""brown"",""high nameability""]","right-left","[""brown"",""orange""]","6","high nameability","53","right","audio_feedback","1"
"html-button-response","254","483504","0.0-195.0","CKN_131","131","","","","","","null","<button class=""jspsych-btn""><img src=""stimuli/white_square.png"" style=""width: 200px;height: 200px;""></button>","null","orange","brown","[""orange"",""brown"",""high nameability""]","right-left","[""brown"",""orange""]","6","high nameability","53","right","iti",""
"html-button-response","255","485280","0.0-196.0","CKN_131","131","","","","","","1744","","0","purple","yellow","[""purple"",""yellow"",""high nameability""]","right-left","[""yellow"",""purple""]","6","high nameability","54","right","trigger",""
"html-button-response","256","487316","0.0-197.0-0.0","CKN_131","131","","","","","","2027","<button class=""jspsych-btn""><img src=""stimuli/purple.png"" style=""width: 200px;height: 200px;""></button>","1","purple","yellow","[""purple"",""yellow"",""high nameability""]","right-left","[""yellow"",""purple""]","6","high nameability","54","right","response","1"
"html-audio-button-response","257","487518","0.0-197.0-1.0","CKN_131","131","","","","","","null","stimuli/bleep.m4a","null","purple","yellow","[""purple"",""yellow"",""high nameability""]","right-left","[""yellow"",""purple""]","6","high nameability","54","right","audio_feedback","1"
"html-button-response","258","488033","0.0-198.0","CKN_131","131","","","","","","null","<button class=""jspsych-btn""><img src=""stimuli/white_square.png"" style=""width: 200px;height: 200px;""></button>","null","purple","yellow","[""purple"",""yellow"",""high nameability""]","right-left","[""yellow"",""purple""]","6","high nameability","54","right","iti",""
"html-button-response","259","491326","0.0-199.0","CKN_131","131","","","","","","3278","","0","darkgreenblue","pink","[""darkgreenblue"",""pink"",""low nameability""]","left-right","[""darkgreenblue"",""pink"",""low nameability""]","6","low nameability","55","left","trigger",""
"html-button-response","260","493534","0.0-200.0-0.0","CKN_131","131","","","","","","2200","<button class=""jspsych-btn""><img src=""stimuli/darkgreenblue.png"" style=""width: 200px;height: 200px;""></button>","0","darkgreenblue","pink","[""darkgreenblue"",""pink"",""low nameability""]","left-right","[""darkgreenblue"",""pink"",""low nameability""]","6","low nameability","55","left","response","1"
"html-audio-button-response","261","493742","0.0-200.0-1.0","CKN_131","131","","","","","","null","stimuli/bleep.m4a","null","darkgreenblue","pink","[""darkgreenblue"",""pink"",""low nameability""]","left-right","[""darkgreenblue"",""pink"",""low nameability""]","6","low nameability","55","left","audio_feedback","1"
"html-button-response","262","494260","0.0-201.0","CKN_131","131","","","","","","null","<button class=""jspsych-btn""><img src=""stimuli/white_square.png"" style=""width: 200px;height: 200px;""></button>","null","darkgreenblue","pink","[""darkgreenblue"",""pink"",""low nameability""]","left-right","[""darkgreenblue"",""pink"",""low nameability""]","6","low nameability","55","left","iti",""
"html-button-response","263","495947","0.0-202.0","CKN_131","131","","","","","","1676","","0","brown","red","[""brown"",""red"",""high nameability""]","right-left","[""red"",""brown""]","6","high nameability","56","right","trigger",""
"html-button-response","264","497176","0.0-203.0-0.0","CKN_131","131","","","","","","1225","<button class=""jspsych-btn""><img src=""stimuli/brown.png"" style=""width: 200px;height: 200px;""></button>","1","brown","red","[""brown"",""red"",""high nameability""]","right-left","[""red"",""brown""]","6","high nameability","56","right","response","1"
"html-audio-button-response","265","497380","0.0-203.0-1.0","CKN_131","131","","","","","","null","stimuli/bleep.m4a","null","brown","red","[""brown"",""red"",""high nameability""]","right-left","[""red"",""brown""]","6","high nameability","56","right","audio_feedback","1"
"html-button-response","266","497898","0.0-204.0","CKN_131","131","","","","","","null","<button class=""jspsych-btn""><img src=""stimuli/white_square.png"" style=""width: 200px;height: 200px;""></button>","null","brown","red","[""brown"",""red"",""high nameability""]","right-left","[""red"",""brown""]","6","high nameability","56","right","iti",""
"html-button-response","267","499122","0.0-205.0","CKN_131","131","","","","","","1218","","0","brown","blue","[""brown"",""blue"",""high nameability""]","left-right","[""brown"",""blue"",""high nameability""]","6","high nameability","57","left","trigger",""
"html-button-response","268","501086","0.0-206.0-0.0","CKN_131","131","","","","","","1958","<button class=""jspsych-btn""><img src=""stimuli/brown.png"" style=""width: 200px;height: 200px;""></button>","0","brown","blue","[""brown"",""blue"",""high nameability""]","left-right","[""brown"",""blue"",""high nameability""]","6","high nameability","57","left","response","1"
"html-audio-button-response","269","501298","0.0-206.0-1.0","CKN_131","131","","","","","","null","stimuli/bleep.m4a","null","brown","blue","[""brown"",""blue"",""high nameability""]","left-right","[""brown"",""blue"",""high nameability""]","6","high nameability","57","left","audio_feedback","1"
"html-button-response","270","501823","0.0-207.0","CKN_131","131","","","","","","null","<button class=""jspsych-btn""><img src=""stimuli/white_square.png"" style=""width: 200px;height: 200px;""></button>","null","brown","blue","[""brown"",""blue"",""high nameability""]","left-right","[""brown"",""blue"",""high nameability""]","6","high nameability","57","left","iti",""
"html-button-response","271","502767","0.0-208.0","CKN_131","131","","","","","","925","","0","blue","yellow","[""blue"",""yellow"",""high nameability""]","right-left","[""yellow"",""blue""]","6","high nameability","58","right","trigger",""
"html-button-response","272","503814","0.0-209.0-0.0","CKN_131","131","","","","","","1040","<button class=""jspsych-btn""><img src=""stimuli/blue.png"" style=""width: 200px;height: 200px;""></button>","1","blue","yellow","[""blue"",""yellow"",""high nameability""]","right-left","[""yellow"",""blue""]","6","high nameability","58","right","response","1"
"html-audio-button-response","273","504022","0.0-209.0-1.0","CKN_131","131","","","","","","null","stimuli/bleep.m4a","null","blue","yellow","[""blue"",""yellow"",""high nameability""]","right-left","[""yellow"",""blue""]","6","high nameability","58","right","audio_feedback","1"
"html-button-response","274","504538","0.0-210.0","CKN_131","131","","","","","","null","<button class=""jspsych-btn""><img src=""stimuli/white_square.png"" style=""width: 200px;height: 200px;""></button>","null","blue","yellow","[""blue"",""yellow"",""high nameability""]","right-left","[""yellow"",""blue""]","6","high nameability","58","right","iti",""
"html-button-response","275","505353","0.0-211.0","CKN_131","131","","","","","","802","","0","yellow","purple","[""yellow"",""purple"",""high nameability""]","left-right","[""yellow"",""purple"",""high nameability""]","6","high nameability","59","left","trigger",""
"html-button-response","276","506430","0.0-212.0-0.0","CKN_131","131","","","","","","1067","<button class=""jspsych-btn""><img src=""stimuli/yellow.png"" style=""width: 200px;height: 200px;""></button>","0","yellow","purple","[""yellow"",""purple"",""high nameability""]","left-right","[""yellow"",""purple"",""high nameability""]","6","high nameability","59","left","response","1"
"html-audio-button-response","277","506629","0.0-212.0-1.0","CKN_131","131","","","","","","null","stimuli/bleep.m4a","null","yellow","purple","[""yellow"",""purple"",""high nameability""]","left-right","[""yellow"",""purple"",""high nameability""]","6","high nameability","59","left","audio_feedback","1"
"html-button-response","278","507152","0.0-213.0","CKN_131","131","","","","","","null","<button class=""jspsych-btn""><img src=""stimuli/white_square.png"" style=""width: 200px;height: 200px;""></button>","null","yellow","purple","[""yellow"",""purple"",""high nameability""]","left-right","[""yellow"",""purple"",""high nameability""]","6","high nameability","59","left","iti",""
"html-button-response","279","507884","0.0-214.0","CKN_131","131","","","","","","718","","0","blue","orange","[""blue"",""orange"",""high nameability""]","left-right","[""blue"",""orange"",""high nameability""]","6","high nameability","60","left","trigger",""
"html-button-response","280","508847","0.0-215.0-0.0","CKN_131","131","","","","","","958","<button class=""jspsych-btn""><img src=""stimuli/blue.png"" style=""width: 200px;height: 200px;""></button>","0","blue","orange","[""blue"",""orange"",""high nameability""]","left-right","[""blue"",""orange"",""high nameability""]","6","high nameability","60","left","response","1"
"html-audio-button-response","281","509052","0.0-215.0-1.0","CKN_131","131","","","","","","null","stimuli/bleep.m4a","null","blue","orange","[""blue"",""orange"",""high nameability""]","left-right","[""blue"",""orange"",""high nameability""]","6","high nameability","60","left","audio_feedback","1"
"html-button-response","282","509575","0.0-216.0","CKN_131","131","","","","","","null","<button class=""jspsych-btn""><img src=""stimuli/white_square.png"" style=""width: 200px;height: 200px;""></button>","null","blue","orange","[""blue"",""orange"",""high nameability""]","left-right","[""blue"",""orange"",""high nameability""]","6","high nameability","60","left","iti",""
