"trial_type","trial_index","time_elapsed","internal_node_id","subject_id","seed","success","timeout","failed_images","failed_audio","failed_video","rt","stimulus","response","target","foil","choices","combination_order","choices_in_order","round","condition","trial_counter","target_location","trial_kind","correct"
"pavlovia","0","21","0.0-0.0","CKN_136","136","","","","","","","","","","","","","","","","","","",""
"preload","1","696","0.0-1.0","CKN_136","136","true","false","[]","[]","[]","","","","","","","","","","","","","",""
"fullscreen","2","2630","0.0-2.0","CKN_136","136","true","","","","","","","","","","","","","","","","","",""
"html-button-response","3","157626","0.0-3.0","CKN_136","136","","","","","","154963","","0","","","","","","","","","","",""
"html-button-response","4","163170","0.0-4.0","CKN_136","136","","","","","","5523","","0","star","square","[""square"",""star""]","left-right","[""square"",""star""]","1","practice","1","right","trigger",""
"html-button-response","5","172743","0.0-5.0-0.0","CKN_136","136","","","","","","9557","<button class=""jspsych-btn""><img src=""stimuli/star.png"" style=""width: 200px;height: 200px;""></button>","1","star","square","[""square"",""star""]","left-right","[""square"",""star""]","1","practice","1","right","response","1"
"html-audio-button-response","6","172951","0.0-5.0-1.0","CKN_136","136","","","","","","null","stimuli/bleep.m4a","null","star","square","[""square"",""star""]","left-right","[""square"",""star""]","1","practice","1","right","audio_feedback","1"
"html-button-response","7","173478","0.0-6.0","CKN_136","136","","","","","","null","<button class=""jspsych-btn""><img src=""stimuli/white_square.png"" style=""width: 200px;height: 200px;""></button>","null","star","square","[""square"",""star""]","left-right","[""square"",""star""]","1","practice","1","right","iti",""
"html-button-response","8","176667","0.0-7.0","CKN_136","136","","","","","","3162","","0","triangle","pentagram","[""triangle"",""pentagram""]","left-right","[""triangle"",""pentagram""]","1","practice","1","left","trigger",""
"html-button-response","9","179974","0.0-8.0-0.0","CKN_136","136","","","","","","3297","<button class=""jspsych-btn""><img src=""stimuli/triangle.png"" style=""width: 200px;height: 200px;""></button>","0","triangle","pentagram","[""triangle"",""pentagram""]","left-right","[""triangle"",""pentagram""]","1","practice","1","left","response","1"
"html-audio-button-response","10","180191","0.0-8.0-1.0","CKN_136","136","","","","","","null","stimuli/bleep.m4a","null","triangle","pentagram","[""triangle"",""pentagram""]","left-right","[""triangle"",""pentagram""]","1","practice","1","left","audio_feedback","1"
"html-button-response","11","180704","0.0-9.0","CKN_136","136","","","","","","null","<button class=""jspsych-btn""><img src=""stimuli/white_square.png"" style=""width: 200px;height: 200px;""></button>","null","triangle","pentagram","[""triangle"",""pentagram""]","left-right","[""triangle"",""pentagram""]","1","practice","1","left","iti",""
"html-button-response","12","184303","0.0-10.0","CKN_136","136","","","","","","3585","","0","diamond","rectangle","[""rectangle"",""diamond""]","left-right","[""rectangle"",""diamond""]","1","practice","1","right","trigger",""
"html-button-response","13","194043","0.0-11.0-0.0","CKN_136","136","","","","","","9729","<button class=""jspsych-btn""><img src=""stimuli/diamond.png"" style=""width: 200px;height: 200px;""></button>","1","diamond","rectangle","[""rectangle"",""diamond""]","left-right","[""rectangle"",""diamond""]","1","practice","1","right","response","1"
"html-audio-button-response","14","194258","0.0-11.0-1.0","CKN_136","136","","","","","","null","stimuli/bleep.m4a","null","diamond","rectangle","[""rectangle"",""diamond""]","left-right","[""rectangle"",""diamond""]","1","practice","1","right","audio_feedback","1"
"html-button-response","15","194778","0.0-12.0","CKN_136","136","","","","","","null","<button class=""jspsych-btn""><img src=""stimuli/white_square.png"" style=""width: 200px;height: 200px;""></button>","null","diamond","rectangle","[""rectangle"",""diamond""]","left-right","[""rectangle"",""diamond""]","1","practice","1","right","iti",""
"html-button-response","16","198641","0.0-13.0","CKN_136","136","","","","","","3848","","0","pentagram","star","[""pentagram"",""star""]","left-right","[""pentagram"",""star""]","1","practice","1","left","trigger",""
"html-button-response","17","200719","0.0-14.0-0.0","CKN_136","136","","","","","","2069","<button class=""jspsych-btn""><img src=""stimuli/pentagram.png"" style=""width: 200px;height: 200px;""></button>","0","pentagram","star","[""pentagram"",""star""]","left-right","[""pentagram"",""star""]","1","practice","1","left","response","1"
"html-audio-button-response","18","200919","0.0-14.0-1.0","CKN_136","136","","","","","","null","stimuli/bleep.m4a","null","pentagram","star","[""pentagram"",""star""]","left-right","[""pentagram"",""star""]","1","practice","1","left","audio_feedback","1"
"html-button-response","19","201434","0.0-15.0","CKN_136","136","","","","","","null","<button class=""jspsych-btn""><img src=""stimuli/white_square.png"" style=""width: 200px;height: 200px;""></button>","null","pentagram","star","[""pentagram"",""star""]","left-right","[""pentagram"",""star""]","1","practice","1","left","iti",""
"html-button-response","20","204821","0.0-16.0","CKN_136","136","","","","","","3369","","0","","","","","","","","","","",""
"html-button-response","21","211740","0.0-17.0","CKN_136","136","","","","","","6912","","0","orange","red","[""orange"",""red"",""high nameability""]","right-left","[""red"",""orange""]","1","high nameability","1","right","trigger",""
"html-button-response","22","217738","0.0-18.0-0.0","CKN_136","136","","","","","","5989","<button class=""jspsych-btn""><img src=""stimuli/orange.png"" style=""width: 200px;height: 200px;""></button>","1","orange","red","[""orange"",""red"",""high nameability""]","right-left","[""red"",""orange""]","1","high nameability","1","right","response","1"
"html-audio-button-response","23","217943","0.0-18.0-1.0","CKN_136","136","","","","","","null","stimuli/bleep.m4a","null","orange","red","[""orange"",""red"",""high nameability""]","right-left","[""red"",""orange""]","1","high nameability","1","right","audio_feedback","1"
"html-button-response","24","218455","0.0-19.0","CKN_136","136","","","","","","null","<button class=""jspsych-btn""><img src=""stimuli/white_square.png"" style=""width: 200px;height: 200px;""></button>","null","orange","red","[""orange"",""red"",""high nameability""]","right-left","[""red"",""orange""]","1","high nameability","1","right","iti",""
"html-button-response","25","220210","0.0-20.0","CKN_136","136","","","","","","1751","","0","turquoise","lightred","[""turquoise"",""lightred"",""low nameability""]","right-left","[""lightred"",""turquoise""]","1","low nameability","2","right","trigger",""
"html-button-response","26","221902","0.0-21.0-0.0","CKN_136","136","","","","","","1685","<button class=""jspsych-btn""><img src=""stimuli/turquoise.png"" style=""width: 200px;height: 200px;""></button>","1","turquoise","lightred","[""turquoise"",""lightred"",""low nameability""]","right-left","[""lightred"",""turquoise""]","1","low nameability","2","right","response","1"
"html-audio-button-response","27","222111","0.0-21.0-1.0","CKN_136","136","","","","","","null","stimuli/bleep.m4a","null","turquoise","lightred","[""turquoise"",""lightred"",""low nameability""]","right-left","[""lightred"",""turquoise""]","1","low nameability","2","right","audio_feedback","1"
"html-button-response","28","222635","0.0-22.0","CKN_136","136","","","","","","null","<button class=""jspsych-btn""><img src=""stimuli/white_square.png"" style=""width: 200px;height: 200px;""></button>","null","turquoise","lightred","[""turquoise"",""lightred"",""low nameability""]","right-left","[""lightred"",""turquoise""]","1","low nameability","2","right","iti",""
"html-button-response","29","223966","0.0-23.0","CKN_136","136","","","","","","1319","","0","mustard","turquoise","[""mustard"",""turquoise"",""low nameability""]","left-right","[""mustard"",""turquoise"",""low nameability""]","1","low nameability","3","left","trigger",""
"html-button-response","30","225444","0.0-24.0-0.0","CKN_136","136","","","","","","1471","<button class=""jspsych-btn""><img src=""stimuli/mustard.png"" style=""width: 200px;height: 200px;""></button>","0","mustard","turquoise","[""mustard"",""turquoise"",""low nameability""]","left-right","[""mustard"",""turquoise"",""low nameability""]","1","low nameability","3","left","response","1"
"html-audio-button-response","31","225646","0.0-24.0-1.0","CKN_136","136","","","","","","null","stimuli/bleep.m4a","null","mustard","turquoise","[""mustard"",""turquoise"",""low nameability""]","left-right","[""mustard"",""turquoise"",""low nameability""]","1","low nameability","3","left","audio_feedback","1"
"html-button-response","32","226166","0.0-25.0","CKN_136","136","","","","","","null","<button class=""jspsych-btn""><img src=""stimuli/white_square.png"" style=""width: 200px;height: 200px;""></button>","null","mustard","turquoise","[""mustard"",""turquoise"",""low nameability""]","left-right","[""mustard"",""turquoise"",""low nameability""]","1","low nameability","3","left","iti",""
"html-button-response","33","231325","0.0-26.0","CKN_136","136","","","","","","5148","","0","orange","blue","[""orange"",""blue"",""high nameability""]","right-left","[""blue"",""orange""]","1","high nameability","4","right","trigger",""
"html-button-response","34","232650","0.0-27.0-0.0","CKN_136","136","","","","","","1318","<button class=""jspsych-btn""><img src=""stimuli/orange.png"" style=""width: 200px;height: 200px;""></button>","1","orange","blue","[""orange"",""blue"",""high nameability""]","right-left","[""blue"",""orange""]","1","high nameability","4","right","response","1"
"html-audio-button-response","35","232854","0.0-27.0-1.0","CKN_136","136","","","","","","null","stimuli/bleep.m4a","null","orange","blue","[""orange"",""blue"",""high nameability""]","right-left","[""blue"",""orange""]","1","high nameability","4","right","audio_feedback","1"
"html-button-response","36","233373","0.0-28.0","CKN_136","136","","","","","","null","<button class=""jspsych-btn""><img src=""stimuli/white_square.png"" style=""width: 200px;height: 200px;""></button>","null","orange","blue","[""orange"",""blue"",""high nameability""]","right-left","[""blue"",""orange""]","1","high nameability","4","right","iti",""
"html-button-response","37","235285","0.0-29.0","CKN_136","136","","","","","","1899","","0","purple","orange","[""purple"",""orange"",""high nameability""]","right-left","[""orange"",""purple""]","1","high nameability","5","right","trigger",""
"html-button-response","38","236515","0.0-30.0-0.0","CKN_136","136","","","","","","1225","<button class=""jspsych-btn""><img src=""stimuli/purple.png"" style=""width: 200px;height: 200px;""></button>","1","purple","orange","[""purple"",""orange"",""high nameability""]","right-left","[""orange"",""purple""]","1","high nameability","5","right","response","1"
"html-audio-button-response","39","236719","0.0-30.0-1.0","CKN_136","136","","","","","","null","stimuli/bleep.m4a","null","purple","orange","[""purple"",""orange"",""high nameability""]","right-left","[""orange"",""purple""]","1","high nameability","5","right","audio_feedback","1"
"html-button-response","40","237232","0.0-31.0","CKN_136","136","","","","","","null","<button class=""jspsych-btn""><img src=""stimuli/white_square.png"" style=""width: 200px;height: 200px;""></button>","null","purple","orange","[""purple"",""orange"",""high nameability""]","right-left","[""orange"",""purple""]","1","high nameability","5","right","iti",""
"html-button-response","41","239988","0.0-32.0","CKN_136","136","","","","","","2739","","0","blue","red","[""blue"",""red"",""high nameability""]","left-right","[""blue"",""red"",""high nameability""]","1","high nameability","6","left","trigger",""
"html-button-response","42","243292","0.0-33.0-0.0","CKN_136","136","","","","","","3299","<button class=""jspsych-btn""><img src=""stimuli/blue.png"" style=""width: 200px;height: 200px;""></button>","0","blue","red","[""blue"",""red"",""high nameability""]","left-right","[""blue"",""red"",""high nameability""]","1","high nameability","6","left","response","1"
"html-audio-button-response","43","243495","0.0-33.0-1.0","CKN_136","136","","","","","","null","stimuli/bleep.m4a","null","blue","red","[""blue"",""red"",""high nameability""]","left-right","[""blue"",""red"",""high nameability""]","1","high nameability","6","left","audio_feedback","1"
"html-button-response","44","244013","0.0-34.0","CKN_136","136","","","","","","null","<button class=""jspsych-btn""><img src=""stimuli/white_square.png"" style=""width: 200px;height: 200px;""></button>","null","blue","red","[""blue"",""red"",""high nameability""]","left-right","[""blue"",""red"",""high nameability""]","1","high nameability","6","left","iti",""
"html-button-response","45","245255","0.0-35.0","CKN_136","136","","","","","","1235","","0","turquoise","pink","[""turquoise"",""pink"",""low nameability""]","left-right","[""turquoise"",""pink"",""low nameability""]","1","low nameability","7","left","trigger",""
"html-button-response","46","246767","0.0-36.0-0.0","CKN_136","136","","","","","","1506","<button class=""jspsych-btn""><img src=""stimuli/turquoise.png"" style=""width: 200px;height: 200px;""></button>","0","turquoise","pink","[""turquoise"",""pink"",""low nameability""]","left-right","[""turquoise"",""pink"",""low nameability""]","1","low nameability","7","left","response","1"
"html-audio-button-response","47","246982","0.0-36.0-1.0","CKN_136","136","","","","","","null","stimuli/bleep.m4a","null","turquoise","pink","[""turquoise"",""pink"",""low nameability""]","left-right","[""turquoise"",""pink"",""low nameability""]","1","low nameability","7","left","audio_feedback","1"
"html-button-response","48","247496","0.0-37.0","CKN_136","136","","","","","","null","<button class=""jspsych-btn""><img src=""stimuli/white_square.png"" style=""width: 200px;height: 200px;""></button>","null","turquoise","pink","[""turquoise"",""pink"",""low nameability""]","left-right","[""turquoise"",""pink"",""low nameability""]","1","low nameability","7","left","iti",""
"html-button-response","49","248368","0.0-38.0","CKN_136","136","","","","","","858","","0","lightred","neonyellow","[""lightred"",""neonyellow"",""low nameability""]","left-right","[""lightred"",""neonyellow"",""low nameability""]","1","low nameability","8","left","trigger",""
"html-button-response","50","250926","0.0-39.0-0.0","CKN_136","136","","","","","","2550","<button class=""jspsych-btn""><img src=""stimuli/lightred.png"" style=""width: 200px;height: 200px;""></button>","0","lightred","neonyellow","[""lightred"",""neonyellow"",""low nameability""]","left-right","[""lightred"",""neonyellow"",""low nameability""]","1","low nameability","8","left","response","1"
"html-audio-button-response","51","251136","0.0-39.0-1.0","CKN_136","136","","","","","","null","stimuli/bleep.m4a","null","lightred","neonyellow","[""lightred"",""neonyellow"",""low nameability""]","left-right","[""lightred"",""neonyellow"",""low nameability""]","1","low nameability","8","left","audio_feedback","1"
"html-button-response","52","251665","0.0-40.0","CKN_136","136","","","","","","null","<button class=""jspsych-btn""><img src=""stimuli/white_square.png"" style=""width: 200px;height: 200px;""></button>","null","lightred","neonyellow","[""lightred"",""neonyellow"",""low nameability""]","left-right","[""lightred"",""neonyellow"",""low nameability""]","1","low nameability","8","left","iti",""
"html-button-response","53","256319","0.0-41.0","CKN_136","136","","","","","","4633","","0","blue","purple","[""blue"",""purple"",""high nameability""]","left-right","[""blue"",""purple"",""high nameability""]","1","high nameability","9","left","trigger",""
"html-button-response","54","260493","0.0-42.0-0.0","CKN_136","136","","","","","","4147","<button class=""jspsych-btn""><img src=""stimuli/blue.png"" style=""width: 200px;height: 200px;""></button>","0","blue","purple","[""blue"",""purple"",""high nameability""]","left-right","[""blue"",""purple"",""high nameability""]","1","high nameability","9","left","response","1"
"html-audio-button-response","55","260711","0.0-42.0-1.0","CKN_136","136","","","","","","null","stimuli/bleep.m4a","null","blue","purple","[""blue"",""purple"",""high nameability""]","left-right","[""blue"",""purple"",""high nameability""]","1","high nameability","9","left","audio_feedback","1"
"html-button-response","56","261238","0.0-43.0","CKN_136","136","","","","","","null","<button class=""jspsych-btn""><img src=""stimuli/white_square.png"" style=""width: 200px;height: 200px;""></button>","null","blue","purple","[""blue"",""purple"",""high nameability""]","left-right","[""blue"",""purple"",""high nameability""]","1","high nameability","9","left","iti",""
"html-button-response","57","267335","0.0-44.0","CKN_136","136","","","","","","6078","","0","neonyellow","pink","[""neonyellow"",""pink"",""low nameability""]","left-right","[""neonyellow"",""pink"",""low nameability""]","1","low nameability","10","left","trigger",""
"html-button-response","58","276161","0.0-45.0-0.0","CKN_136","136","","","","","","8809","<button class=""jspsych-btn""><img src=""stimuli/neonyellow.png"" style=""width: 200px;height: 200px;""></button>","0","neonyellow","pink","[""neonyellow"",""pink"",""low nameability""]","left-right","[""neonyellow"",""pink"",""low nameability""]","1","low nameability","10","left","response","1"
"html-audio-button-response","59","276375","0.0-45.0-1.0","CKN_136","136","","","","","","null","stimuli/bleep.m4a","null","neonyellow","pink","[""neonyellow"",""pink"",""low nameability""]","left-right","[""neonyellow"",""pink"",""low nameability""]","1","low nameability","10","left","audio_feedback","1"
"html-button-response","60","276896","0.0-46.0","CKN_136","136","","","","","","null","<button class=""jspsych-btn""><img src=""stimuli/white_square.png"" style=""width: 200px;height: 200px;""></button>","null","neonyellow","pink","[""neonyellow"",""pink"",""low nameability""]","left-right","[""neonyellow"",""pink"",""low nameability""]","1","low nameability","10","left","iti",""
"pavlovia","61","277003","0.0-47.0","CKN_136","136","","","","","","","","","","","","","","","","","","",""
"pavlovia","62","277019","0.0-48.0","CKN_136","136","","","","","","","","","","","","","","","","","","",""
"html-audio-button-response","63","284208","0.0-49.0","CKN_136","136","","","","","","7312","stimuli/tada.m4a","0","","","","","","","","","","",""
"html-button-response","64","284676","0.0-50.0","CKN_136","136","","","","","","458","","0","","","","","","","","","","",""
"html-button-response","65","287788","0.0-51.0","CKN_136","136","","","","","","3104","","0","lightred","mustard","[""lightred"",""mustard"",""low nameability""]","left-right","[""lightred"",""mustard"",""low nameability""]","2","low nameability","11","left","trigger",""
"html-button-response","66","289004","0.0-52.0-0.0","CKN_136","136","","","","","","1210","<button class=""jspsych-btn""><img src=""stimuli/lightred.png"" style=""width: 200px;height: 200px;""></button>","0","lightred","mustard","[""lightred"",""mustard"",""low nameability""]","left-right","[""lightred"",""mustard"",""low nameability""]","2","low nameability","11","left","response","1"
"html-audio-button-response","67","289215","0.0-52.0-1.0","CKN_136","136","","","","","","null","stimuli/bleep.m4a","null","lightred","mustard","[""lightred"",""mustard"",""low nameability""]","left-right","[""lightred"",""mustard"",""low nameability""]","2","low nameability","11","left","audio_feedback","1"
"html-button-response","68","289733","0.0-53.0","CKN_136","136","","","","","","null","<button class=""jspsych-btn""><img src=""stimuli/white_square.png"" style=""width: 200px;height: 200px;""></button>","null","lightred","mustard","[""lightred"",""mustard"",""low nameability""]","left-right","[""lightred"",""mustard"",""low nameability""]","2","low nameability","11","left","iti",""
"html-button-response","69","290511","0.0-54.0","CKN_136","136","","","","","","771","","0","lightred","pink","[""lightred"",""pink"",""low nameability""]","left-right","[""lightred"",""pink"",""low nameability""]","2","low nameability","12","left","trigger",""
"html-button-response","70","291405","0.0-55.0-0.0","CKN_136","136","","","","","","888","<button class=""jspsych-btn""><img src=""stimuli/lightred.png"" style=""width: 200px;height: 200px;""></button>","0","lightred","pink","[""lightred"",""pink"",""low nameability""]","left-right","[""lightred"",""pink"",""low nameability""]","2","low nameability","12","left","response","1"
"html-audio-button-response","71","291607","0.0-55.0-1.0","CKN_136","136","","","","","","null","stimuli/bleep.m4a","null","lightred","pink","[""lightred"",""pink"",""low nameability""]","left-right","[""lightred"",""pink"",""low nameability""]","2","low nameability","12","left","audio_feedback","1"
"html-button-response","72","292121","0.0-56.0","CKN_136","136","","","","","","null","<button class=""jspsych-btn""><img src=""stimuli/white_square.png"" style=""width: 200px;height: 200px;""></button>","null","lightred","pink","[""lightred"",""pink"",""low nameability""]","left-right","[""lightred"",""pink"",""low nameability""]","2","low nameability","12","left","iti",""
"html-button-response","73","294550","0.0-57.0","CKN_136","136","","","","","","2415","","0","yellow","purple","[""yellow"",""purple"",""high nameability""]","right-left","[""purple"",""yellow""]","2","high nameability","13","right","trigger",""
"html-button-response","74","295966","0.0-58.0-0.0","CKN_136","136","","","","","","1408","<button class=""jspsych-btn""><img src=""stimuli/yellow.png"" style=""width: 200px;height: 200px;""></button>","1","yellow","purple","[""yellow"",""purple"",""high nameability""]","right-left","[""purple"",""yellow""]","2","high nameability","13","right","response","1"
"html-audio-button-response","75","296166","0.0-58.0-1.0","CKN_136","136","","","","","","null","stimuli/bleep.m4a","null","yellow","purple","[""yellow"",""purple"",""high nameability""]","right-left","[""purple"",""yellow""]","2","high nameability","13","right","audio_feedback","1"
"html-button-response","76","296687","0.0-59.0","CKN_136","136","","","","","","null","<button class=""jspsych-btn""><img src=""stimuli/white_square.png"" style=""width: 200px;height: 200px;""></button>","null","yellow","purple","[""yellow"",""purple"",""high nameability""]","right-left","[""purple"",""yellow""]","2","high nameability","13","right","iti",""
"html-button-response","77","300466","0.0-60.0","CKN_136","136","","","","","","3770","","0","brown","red","[""brown"",""red"",""high nameability""]","right-left","[""red"",""brown""]","2","high nameability","14","right","trigger",""
"html-button-response","78","302894","0.0-61.0-0.0","CKN_136","136","","","","","","2418","<button class=""jspsych-btn""><img src=""stimuli/brown.png"" style=""width: 200px;height: 200px;""></button>","1","brown","red","[""brown"",""red"",""high nameability""]","right-left","[""red"",""brown""]","2","high nameability","14","right","response","1"
"html-audio-button-response","79","303102","0.0-61.0-1.0","CKN_136","136","","","","","","null","stimuli/bleep.m4a","null","brown","red","[""brown"",""red"",""high nameability""]","right-left","[""red"",""brown""]","2","high nameability","14","right","audio_feedback","1"
"html-button-response","80","303617","0.0-62.0","CKN_136","136","","","","","","null","<button class=""jspsych-btn""><img src=""stimuli/white_square.png"" style=""width: 200px;height: 200px;""></button>","null","brown","red","[""brown"",""red"",""high nameability""]","right-left","[""red"",""brown""]","2","high nameability","14","right","iti",""
"html-button-response","81","308224","0.0-63.0","CKN_136","136","","","","","","4589","","0","lightred","darkgreenblue","[""lightred"",""darkgreenblue"",""low nameability""]","right-left","[""darkgreenblue"",""lightred""]","2","low nameability","15","right","trigger",""
"html-button-response","82","316469","0.0-64.0-0.0","CKN_136","136","","","","","","8231","<button class=""jspsych-btn""><img src=""stimuli/lightred.png"" style=""width: 200px;height: 200px;""></button>","1","lightred","darkgreenblue","[""lightred"",""darkgreenblue"",""low nameability""]","right-left","[""darkgreenblue"",""lightred""]","2","low nameability","15","right","response","1"
"html-audio-button-response","83","316695","0.0-64.0-1.0","CKN_136","136","","","","","","null","stimuli/bleep.m4a","null","lightred","darkgreenblue","[""lightred"",""darkgreenblue"",""low nameability""]","right-left","[""darkgreenblue"",""lightred""]","2","low nameability","15","right","audio_feedback","1"
"html-button-response","84","317222","0.0-65.0","CKN_136","136","","","","","","226","<button class=""jspsych-btn""><img src=""stimuli/white_square.png"" style=""width: 200px;height: 200px;""></button>","1","lightred","darkgreenblue","[""lightred"",""darkgreenblue"",""low nameability""]","right-left","[""darkgreenblue"",""lightred""]","2","low nameability","15","right","iti",""
"html-button-response","85","319964","0.0-66.0","CKN_136","136","","","","","","2727","","0","yellow","blue","[""yellow"",""blue"",""high nameability""]","right-left","[""blue"",""yellow""]","2","high nameability","16","right","trigger",""
"html-button-response","86","321161","0.0-67.0-0.0","CKN_136","136","","","","","","1182","<button class=""jspsych-btn""><img src=""stimuli/yellow.png"" style=""width: 200px;height: 200px;""></button>","1","yellow","blue","[""yellow"",""blue"",""high nameability""]","right-left","[""blue"",""yellow""]","2","high nameability","16","right","response","1"
"html-audio-button-response","87","321376","0.0-67.0-1.0","CKN_136","136","","","","","","null","stimuli/bleep.m4a","null","yellow","blue","[""yellow"",""blue"",""high nameability""]","right-left","[""blue"",""yellow""]","2","high nameability","16","right","audio_feedback","1"
"html-button-response","88","321903","0.0-68.0","CKN_136","136","","","","","","null","<button class=""jspsych-btn""><img src=""stimuli/white_square.png"" style=""width: 200px;height: 200px;""></button>","null","yellow","blue","[""yellow"",""blue"",""high nameability""]","right-left","[""blue"",""yellow""]","2","high nameability","16","right","iti",""
"html-button-response","89","327690","0.0-69.0","CKN_136","136","","","","","","5771","","0","pink","lightred","[""pink"",""lightred"",""low nameability""]","right-left","[""lightred"",""pink""]","2","low nameability","17","right","trigger",""
"html-button-response","90","329043","0.0-70.0-0.0","CKN_136","136","","","","","","1345","<button class=""jspsych-btn""><img src=""stimuli/pink.png"" style=""width: 200px;height: 200px;""></button>","1","pink","lightred","[""pink"",""lightred"",""low nameability""]","right-left","[""lightred"",""pink""]","2","low nameability","17","right","response","1"
"html-audio-button-response","91","329247","0.0-70.0-1.0","CKN_136","136","","","","","","null","stimuli/bleep.m4a","null","pink","lightred","[""pink"",""lightred"",""low nameability""]","right-left","[""lightred"",""pink""]","2","low nameability","17","right","audio_feedback","1"
"html-button-response","92","329786","0.0-71.0","CKN_136","136","","","","","","null","<button class=""jspsych-btn""><img src=""stimuli/white_square.png"" style=""width: 200px;height: 200px;""></button>","null","pink","lightred","[""pink"",""lightred"",""low nameability""]","right-left","[""lightred"",""pink""]","2","low nameability","17","right","iti",""
"html-button-response","93","334246","0.0-72.0","CKN_136","136","","","","","","4423","","0","turquoise","neonyellow","[""turquoise"",""neonyellow"",""low nameability""]","right-left","[""neonyellow"",""turquoise""]","2","low nameability","18","right","trigger",""
"html-button-response","94","335300","0.0-73.0-0.0","CKN_136","136","","","","","","1047","<button class=""jspsych-btn""><img src=""stimuli/turquoise.png"" style=""width: 200px;height: 200px;""></button>","1","turquoise","neonyellow","[""turquoise"",""neonyellow"",""low nameability""]","right-left","[""neonyellow"",""turquoise""]","2","low nameability","18","right","response","1"
"html-audio-button-response","95","335513","0.0-73.0-1.0","CKN_136","136","","","","","","null","stimuli/bleep.m4a","null","turquoise","neonyellow","[""turquoise"",""neonyellow"",""low nameability""]","right-left","[""neonyellow"",""turquoise""]","2","low nameability","18","right","audio_feedback","1"
"html-button-response","96","336035","0.0-74.0","CKN_136","136","","","","","","null","<button class=""jspsych-btn""><img src=""stimuli/white_square.png"" style=""width: 200px;height: 200px;""></button>","null","turquoise","neonyellow","[""turquoise"",""neonyellow"",""low nameability""]","right-left","[""neonyellow"",""turquoise""]","2","low nameability","18","right","iti",""
"html-button-response","97","338474","0.0-75.0","CKN_136","136","","","","","","2433","","0","red","brown","[""red"",""brown"",""high nameability""]","left-right","[""red"",""brown"",""high nameability""]","2","high nameability","19","left","trigger",""
"html-button-response","98","339608","0.0-76.0-0.0","CKN_136","136","","","","","","1126","<button class=""jspsych-btn""><img src=""stimuli/red.png"" style=""width: 200px;height: 200px;""></button>","0","red","brown","[""red"",""brown"",""high nameability""]","left-right","[""red"",""brown"",""high nameability""]","2","high nameability","19","left","response","1"
"html-audio-button-response","99","339816","0.0-76.0-1.0","CKN_136","136","","","","","","null","stimuli/bleep.m4a","null","red","brown","[""red"",""brown"",""high nameability""]","left-right","[""red"",""brown"",""high nameability""]","2","high nameability","19","left","audio_feedback","1"
"html-button-response","100","340345","0.0-77.0","CKN_136","136","","","","","","null","<button class=""jspsych-btn""><img src=""stimuli/white_square.png"" style=""width: 200px;height: 200px;""></button>","null","red","brown","[""red"",""brown"",""high nameability""]","left-right","[""red"",""brown"",""high nameability""]","2","high nameability","19","left","iti",""
"html-button-response","101","342218","0.0-78.0","CKN_136","136","","","","","","1860","","0","neonyellow","turquoise","[""neonyellow"",""turquoise"",""low nameability""]","left-right","[""neonyellow"",""turquoise"",""low nameability""]","2","low nameability","20","left","trigger",""
"html-button-response","102","343314","0.0-79.0-0.0","CKN_136","136","","","","","","1088","<button class=""jspsych-btn""><img src=""stimuli/neonyellow.png"" style=""width: 200px;height: 200px;""></button>","0","neonyellow","turquoise","[""neonyellow"",""turquoise"",""low nameability""]","left-right","[""neonyellow"",""turquoise"",""low nameability""]","2","low nameability","20","left","response","1"
"html-audio-button-response","103","343519","0.0-79.0-1.0","CKN_136","136","","","","","","null","stimuli/bleep.m4a","null","neonyellow","turquoise","[""neonyellow"",""turquoise"",""low nameability""]","left-right","[""neonyellow"",""turquoise"",""low nameability""]","2","low nameability","20","left","audio_feedback","1"
"html-button-response","104","344037","0.0-80.0","CKN_136","136","","","","","","null","<button class=""jspsych-btn""><img src=""stimuli/white_square.png"" style=""width: 200px;height: 200px;""></button>","null","neonyellow","turquoise","[""neonyellow"",""turquoise"",""low nameability""]","left-right","[""neonyellow"",""turquoise"",""low nameability""]","2","low nameability","20","left","iti",""
"pavlovia","105","344122","0.0-81.0","CKN_136","136","","","","","","","","","","","","","","","","","","",""
"pavlovia","106","344138","0.0-82.0","CKN_136","136","","","","","","","","","","","","","","","","","","",""
"html-audio-button-response","107","348026","0.0-83.0","CKN_136","136","","","","","","3979","stimuli/tada.m4a","0","","","","","","","","","","",""
"html-button-response","108","349263","0.0-84.0","CKN_136","136","","","","","","1229","","0","","","","","","","","","","",""
"html-button-response","109","351288","0.0-85.0","CKN_136","136","","","","","","2019","","0","brown","orange","[""brown"",""orange"",""high nameability""]","right-left","[""orange"",""brown""]","3","high nameability","21","right","trigger",""
"html-button-response","110","352629","0.0-86.0-0.0","CKN_136","136","","","","","","1334","<button class=""jspsych-btn""><img src=""stimuli/brown.png"" style=""width: 200px;height: 200px;""></button>","1","brown","orange","[""brown"",""orange"",""high nameability""]","right-left","[""orange"",""brown""]","3","high nameability","21","right","response","1"
"html-audio-button-response","111","352830","0.0-86.0-1.0","CKN_136","136","","","","","","null","stimuli/bleep.m4a","null","brown","orange","[""brown"",""orange"",""high nameability""]","right-left","[""orange"",""brown""]","3","high nameability","21","right","audio_feedback","1"
"html-button-response","112","353343","0.0-87.0","CKN_136","136","","","","","","null","<button class=""jspsych-btn""><img src=""stimuli/white_square.png"" style=""width: 200px;height: 200px;""></button>","null","brown","orange","[""brown"",""orange"",""high nameability""]","right-left","[""orange"",""brown""]","3","high nameability","21","right","iti",""
"html-button-response","113","354099","0.0-88.0","CKN_136","136","","","","","","725","","0","mustard","lightred","[""mustard"",""lightred"",""low nameability""]","right-left","[""lightred"",""mustard""]","3","low nameability","22","right","trigger",""
"html-button-response","114","355253","0.0-89.0-0.0","CKN_136","136","","","","","","1144","<button class=""jspsych-btn""><img src=""stimuli/mustard.png"" style=""width: 200px;height: 200px;""></button>","1","mustard","lightred","[""mustard"",""lightred"",""low nameability""]","right-left","[""lightred"",""mustard""]","3","low nameability","22","right","response","1"
"html-audio-button-response","115","355455","0.0-89.0-1.0","CKN_136","136","","","","","","null","stimuli/bleep.m4a","null","mustard","lightred","[""mustard"",""lightred"",""low nameability""]","right-left","[""lightred"",""mustard""]","3","low nameability","22","right","audio_feedback","1"
"html-button-response","116","355972","0.0-90.0","CKN_136","136","","","","","","null","<button class=""jspsych-btn""><img src=""stimuli/white_square.png"" style=""width: 200px;height: 200px;""></button>","null","mustard","lightred","[""mustard"",""lightred"",""low nameability""]","right-left","[""lightred"",""mustard""]","3","low nameability","22","right","iti",""
"html-button-response","117","356569","0.0-91.0","CKN_136","136","","","","","","581","","0","purple","red","[""purple"",""red"",""high nameability""]","left-right","[""purple"",""red"",""high nameability""]","3","high nameability","23","left","trigger",""
"html-button-response","118","359841","0.0-92.0-0.0","CKN_136","136","","","","","","3263","<button class=""jspsych-btn""><img src=""stimuli/purple.png"" style=""width: 200px;height: 200px;""></button>","0","purple","red","[""purple"",""red"",""high nameability""]","left-right","[""purple"",""red"",""high nameability""]","3","high nameability","23","left","response","1"
"html-audio-button-response","119","360048","0.0-92.0-1.0","CKN_136","136","","","","","","null","stimuli/bleep.m4a","null","purple","red","[""purple"",""red"",""high nameability""]","left-right","[""purple"",""red"",""high nameability""]","3","high nameability","23","left","audio_feedback","1"
"html-button-response","120","360563","0.0-93.0","CKN_136","136","","","","","","null","<button class=""jspsych-btn""><img src=""stimuli/white_square.png"" style=""width: 200px;height: 200px;""></button>","null","purple","red","[""purple"",""red"",""high nameability""]","left-right","[""purple"",""red"",""high nameability""]","3","high nameability","23","left","iti",""
"html-button-response","121","365195","0.0-94.0","CKN_136","136","","","","","","4618","","0","turquoise","mustard","[""turquoise"",""mustard"",""low nameability""]","left-right","[""turquoise"",""mustard"",""low nameability""]","3","low nameability","24","left","trigger",""
"html-button-response","122","366447","0.0-95.0-0.0","CKN_136","136","","","","","","1243","<button class=""jspsych-btn""><img src=""stimuli/turquoise.png"" style=""width: 200px;height: 200px;""></button>","0","turquoise","mustard","[""turquoise"",""mustard"",""low nameability""]","left-right","[""turquoise"",""mustard"",""low nameability""]","3","low nameability","24","left","response","1"
"html-audio-button-response","123","366655","0.0-95.0-1.0","CKN_136","136","","","","","","null","stimuli/bleep.m4a","null","turquoise","mustard","[""turquoise"",""mustard"",""low nameability""]","left-right","[""turquoise"",""mustard"",""low nameability""]","3","low nameability","24","left","audio_feedback","1"
"html-button-response","124","367175","0.0-96.0","CKN_136","136","","","","","","null","<button class=""jspsych-btn""><img src=""stimuli/white_square.png"" style=""width: 200px;height: 200px;""></button>","null","turquoise","mustard","[""turquoise"",""mustard"",""low nameability""]","left-right","[""turquoise"",""mustard"",""low nameability""]","3","low nameability","24","left","iti",""
"html-button-response","125","371020","0.0-97.0","CKN_136","136","","","","","","3831","","0","pink","neonyellow","[""pink"",""neonyellow"",""low nameability""]","right-left","[""neonyellow"",""pink""]","3","low nameability","25","right","trigger",""
"html-button-response","126","372674","0.0-98.0-0.0","CKN_136","136","","","","","","1646","<button class=""jspsych-btn""><img src=""stimuli/pink.png"" style=""width: 200px;height: 200px;""></button>","1","pink","neonyellow","[""pink"",""neonyellow"",""low nameability""]","right-left","[""neonyellow"",""pink""]","3","low nameability","25","right","response","1"
"html-audio-button-response","127","372880","0.0-98.0-1.0","CKN_136","136","","","","","","null","stimuli/bleep.m4a","null","pink","neonyellow","[""pink"",""neonyellow"",""low nameability""]","right-left","[""neonyellow"",""pink""]","3","low nameability","25","right","audio_feedback","1"
"html-button-response","128","373402","0.0-99.0","CKN_136","136","","","","","","null","<button class=""jspsych-btn""><img src=""stimuli/white_square.png"" style=""width: 200px;height: 200px;""></button>","null","pink","neonyellow","[""pink"",""neonyellow"",""low nameability""]","right-left","[""neonyellow"",""pink""]","3","low nameability","25","right","iti",""
"html-button-response","129","377720","0.0-100.0","CKN_136","136","","","","","","4305","","0","lightred","turquoise","[""lightred"",""turquoise"",""low nameability""]","left-right","[""lightred"",""turquoise"",""low nameability""]","3","low nameability","26","left","trigger",""
"html-button-response","130","378796","0.0-101.0-0.0","CKN_136","136","","","","","","1069","<button class=""jspsych-btn""><img src=""stimuli/lightred.png"" style=""width: 200px;height: 200px;""></button>","0","lightred","turquoise","[""lightred"",""turquoise"",""low nameability""]","left-right","[""lightred"",""turquoise"",""low nameability""]","3","low nameability","26","left","response","1"
"html-audio-button-response","131","378999","0.0-101.0-1.0","CKN_136","136","","","","","","null","stimuli/bleep.m4a","null","lightred","turquoise","[""lightred"",""turquoise"",""low nameability""]","left-right","[""lightred"",""turquoise"",""low nameability""]","3","low nameability","26","left","audio_feedback","1"
"html-button-response","132","379528","0.0-102.0","CKN_136","136","","","","","","null","<button class=""jspsych-btn""><img src=""stimuli/white_square.png"" style=""width: 200px;height: 200px;""></button>","null","lightred","turquoise","[""lightred"",""turquoise"",""low nameability""]","left-right","[""lightred"",""turquoise"",""low nameability""]","3","low nameability","26","left","iti",""
"html-button-response","133","380483","0.0-103.0","CKN_136","136","","","","","","938","","0","darkgreenblue","mustard","[""darkgreenblue"",""mustard"",""low nameability""]","right-left","[""mustard"",""darkgreenblue""]","3","low nameability","27","right","trigger",""
"html-button-response","134","381693","0.0-104.0-0.0","CKN_136","136","","","","","","1203","<button class=""jspsych-btn""><img src=""stimuli/darkgreenblue.png"" style=""width: 200px;height: 200px;""></button>","1","darkgreenblue","mustard","[""darkgreenblue"",""mustard"",""low nameability""]","right-left","[""mustard"",""darkgreenblue""]","3","low nameability","27","right","response","1"
"html-audio-button-response","135","381897","0.0-104.0-1.0","CKN_136","136","","","","","","null","stimuli/bleep.m4a","null","darkgreenblue","mustard","[""darkgreenblue"",""mustard"",""low nameability""]","right-left","[""mustard"",""darkgreenblue""]","3","low nameability","27","right","audio_feedback","1"
"html-button-response","136","382415","0.0-105.0","CKN_136","136","","","","","","null","<button class=""jspsych-btn""><img src=""stimuli/white_square.png"" style=""width: 200px;height: 200px;""></button>","null","darkgreenblue","mustard","[""darkgreenblue"",""mustard"",""low nameability""]","right-left","[""mustard"",""darkgreenblue""]","3","low nameability","27","right","iti",""
"html-button-response","137","394136","0.0-106.0","CKN_136","136","","","","","","11714","","0","pink","turquoise","[""pink"",""turquoise"",""low nameability""]","right-left","[""turquoise"",""pink""]","3","low nameability","28","right","trigger",""
"html-button-response","138","396229","0.0-107.0-0.0","CKN_136","136","","","","","","2084","<button class=""jspsych-btn""><img src=""stimuli/pink.png"" style=""width: 200px;height: 200px;""></button>","1","pink","turquoise","[""pink"",""turquoise"",""low nameability""]","right-left","[""turquoise"",""pink""]","3","low nameability","28","right","response","1"
"html-audio-button-response","139","396438","0.0-107.0-1.0","CKN_136","136","","","","","","null","stimuli/bleep.m4a","null","pink","turquoise","[""pink"",""turquoise"",""low nameability""]","right-left","[""turquoise"",""pink""]","3","low nameability","28","right","audio_feedback","1"
"html-button-response","140","396954","0.0-108.0","CKN_136","136","","","","","","null","<button class=""jspsych-btn""><img src=""stimuli/white_square.png"" style=""width: 200px;height: 200px;""></button>","null","pink","turquoise","[""pink"",""turquoise"",""low nameability""]","right-left","[""turquoise"",""pink""]","3","low nameability","28","right","iti",""
"html-button-response","141","403108","0.0-109.0","CKN_136","136","","","","","","6141","","0","blue","orange","[""blue"",""orange"",""high nameability""]","left-right","[""blue"",""orange"",""high nameability""]","3","high nameability","29","left","trigger",""
"html-button-response","142","404334","0.0-110.0-0.0","CKN_136","136","","","","","","1217","<button class=""jspsych-btn""><img src=""stimuli/blue.png"" style=""width: 200px;height: 200px;""></button>","0","blue","orange","[""blue"",""orange"",""high nameability""]","left-right","[""blue"",""orange"",""high nameability""]","3","high nameability","29","left","response","1"
"html-audio-button-response","143","404544","0.0-110.0-1.0","CKN_136","136","","","","","","null","stimuli/bleep.m4a","null","blue","orange","[""blue"",""orange"",""high nameability""]","left-right","[""blue"",""orange"",""high nameability""]","3","high nameability","29","left","audio_feedback","1"
"html-button-response","144","405056","0.0-111.0","CKN_136","136","","","","","","null","<button class=""jspsych-btn""><img src=""stimuli/white_square.png"" style=""width: 200px;height: 200px;""></button>","null","blue","orange","[""blue"",""orange"",""high nameability""]","left-right","[""blue"",""orange"",""high nameability""]","3","high nameability","29","left","iti",""
"html-button-response","145","407265","0.0-112.0","CKN_136","136","","","","","","2191","","0","purple","yellow","[""purple"",""yellow"",""high nameability""]","right-left","[""yellow"",""purple""]","3","high nameability","30","right","trigger",""
"html-button-response","146","408687","0.0-113.0-0.0","CKN_136","136","","","","","","1416","<button class=""jspsych-btn""><img src=""stimuli/purple.png"" style=""width: 200px;height: 200px;""></button>","1","purple","yellow","[""purple"",""yellow"",""high nameability""]","right-left","[""yellow"",""purple""]","3","high nameability","30","right","response","1"
"html-audio-button-response","147","408887","0.0-113.0-1.0","CKN_136","136","","","","","","null","stimuli/bleep.m4a","null","purple","yellow","[""purple"",""yellow"",""high nameability""]","right-left","[""yellow"",""purple""]","3","high nameability","30","right","audio_feedback","1"
"html-button-response","148","409398","0.0-114.0","CKN_136","136","","","","","","null","<button class=""jspsych-btn""><img src=""stimuli/white_square.png"" style=""width: 200px;height: 200px;""></button>","null","purple","yellow","[""purple"",""yellow"",""high nameability""]","right-left","[""yellow"",""purple""]","3","high nameability","30","right","iti",""
"pavlovia","149","409485","0.0-115.0","CKN_136","136","","","","","","","","","","","","","","","","","","",""
"pavlovia","150","409498","0.0-116.0","CKN_136","136","","","","","","","","","","","","","","","","","","",""
"html-audio-button-response","151","414641","0.0-117.0","CKN_136","136","","","","","","5237","stimuli/tada.m4a","0","","","","","","","","","","",""
"html-button-response","152","416293","0.0-118.0","CKN_136","136","","","","","","1645","","0","","","","","","","","","","",""
"html-button-response","153","418155","0.0-119.0","CKN_136","136","","","","","","1858","","0","darkgreenblue","neonyellow","[""darkgreenblue"",""neonyellow"",""low nameability""]","right-left","[""neonyellow"",""darkgreenblue""]","4","low nameability","31","right","trigger",""
"html-button-response","154","420442","0.0-120.0-0.0","CKN_136","136","","","","","","2280","<button class=""jspsych-btn""><img src=""stimuli/darkgreenblue.png"" style=""width: 200px;height: 200px;""></button>","1","darkgreenblue","neonyellow","[""darkgreenblue"",""neonyellow"",""low nameability""]","right-left","[""neonyellow"",""darkgreenblue""]","4","low nameability","31","right","response","1"
"html-audio-button-response","155","420647","0.0-120.0-1.0","CKN_136","136","","","","","","null","stimuli/bleep.m4a","null","darkgreenblue","neonyellow","[""darkgreenblue"",""neonyellow"",""low nameability""]","right-left","[""neonyellow"",""darkgreenblue""]","4","low nameability","31","right","audio_feedback","1"
"html-button-response","156","421164","0.0-121.0","CKN_136","136","","","","","","null","<button class=""jspsych-btn""><img src=""stimuli/white_square.png"" style=""width: 200px;height: 200px;""></button>","null","darkgreenblue","neonyellow","[""darkgreenblue"",""neonyellow"",""low nameability""]","right-left","[""neonyellow"",""darkgreenblue""]","4","low nameability","31","right","iti",""
"html-button-response","157","427114","0.0-122.0","CKN_136","136","","","","","","5932","","0","red","yellow","[""red"",""yellow"",""high nameability""]","right-left","[""yellow"",""red""]","4","high nameability","32","right","trigger",""
"html-button-response","158","438363","0.0-123.0-0.0","CKN_136","136","","","","","","11243","<button class=""jspsych-btn""><img src=""stimuli/red.png"" style=""width: 200px;height: 200px;""></button>","1","red","yellow","[""red"",""yellow"",""high nameability""]","right-left","[""yellow"",""red""]","4","high nameability","32","right","response","1"
"html-audio-button-response","159","438567","0.0-123.0-1.0","CKN_136","136","","","","","","null","stimuli/bleep.m4a","null","red","yellow","[""red"",""yellow"",""high nameability""]","right-left","[""yellow"",""red""]","4","high nameability","32","right","audio_feedback","1"
"html-button-response","160","439085","0.0-124.0","CKN_136","136","","","","","","null","<button class=""jspsych-btn""><img src=""stimuli/white_square.png"" style=""width: 200px;height: 200px;""></button>","null","red","yellow","[""red"",""yellow"",""high nameability""]","right-left","[""yellow"",""red""]","4","high nameability","32","right","iti",""
"html-button-response","161","446635","0.0-125.0","CKN_136","136","","","","","","7535","","0","red","orange","[""red"",""orange"",""high nameability""]","right-left","[""orange"",""red""]","4","high nameability","33","right","trigger",""
"html-button-response","162","449328","0.0-126.0-0.0","CKN_136","136","","","","","","2685","<button class=""jspsych-btn""><img src=""stimuli/red.png"" style=""width: 200px;height: 200px;""></button>","1","red","orange","[""red"",""orange"",""high nameability""]","right-left","[""orange"",""red""]","4","high nameability","33","right","response","1"
"html-audio-button-response","163","449535","0.0-126.0-1.0","CKN_136","136","","","","","","null","stimuli/bleep.m4a","null","red","orange","[""red"",""orange"",""high nameability""]","right-left","[""orange"",""red""]","4","high nameability","33","right","audio_feedback","1"
"html-button-response","164","450047","0.0-127.0","CKN_136","136","","","","","","null","<button class=""jspsych-btn""><img src=""stimuli/white_square.png"" style=""width: 200px;height: 200px;""></button>","null","red","orange","[""red"",""orange"",""high nameability""]","right-left","[""orange"",""red""]","4","high nameability","33","right","iti",""
"html-button-response","165","454217","0.0-128.0","CKN_136","136","","","","","","4161","","0","red","purple","[""red"",""purple"",""high nameability""]","right-left","[""purple"",""red""]","4","high nameability","34","right","trigger",""
"html-button-response","166","455423","0.0-129.0-0.0","CKN_136","136","","","","","","1198","<button class=""jspsych-btn""><img src=""stimuli/red.png"" style=""width: 200px;height: 200px;""></button>","1","red","purple","[""red"",""purple"",""high nameability""]","right-left","[""purple"",""red""]","4","high nameability","34","right","response","1"
"html-audio-button-response","167","455625","0.0-129.0-1.0","CKN_136","136","","","","","","null","stimuli/bleep.m4a","null","red","purple","[""red"",""purple"",""high nameability""]","right-left","[""purple"",""red""]","4","high nameability","34","right","audio_feedback","1"
"html-button-response","168","456139","0.0-130.0","CKN_136","136","","","","","","null","<button class=""jspsych-btn""><img src=""stimuli/white_square.png"" style=""width: 200px;height: 200px;""></button>","null","red","purple","[""red"",""purple"",""high nameability""]","right-left","[""purple"",""red""]","4","high nameability","34","right","iti",""
"html-button-response","169","457046","0.0-131.0","CKN_136","136","","","","","","891","","0","neonyellow","lightred","[""neonyellow"",""lightred"",""low nameability""]","left-right","[""neonyellow"",""lightred"",""low nameability""]","4","low nameability","35","left","trigger",""
"html-button-response","170","460864","0.0-132.0-0.0","CKN_136","136","","","","","","3810","<button class=""jspsych-btn""><img src=""stimuli/neonyellow.png"" style=""width: 200px;height: 200px;""></button>","0","neonyellow","lightred","[""neonyellow"",""lightred"",""low nameability""]","left-right","[""neonyellow"",""lightred"",""low nameability""]","4","low nameability","35","left","response","1"
"html-audio-button-response","171","461069","0.0-132.0-1.0","CKN_136","136","","","","","","null","stimuli/bleep.m4a","null","neonyellow","lightred","[""neonyellow"",""lightred"",""low nameability""]","left-right","[""neonyellow"",""lightred"",""low nameability""]","4","low nameability","35","left","audio_feedback","1"
"html-button-response","172","461598","0.0-133.0","CKN_136","136","","","","","","null","<button class=""jspsych-btn""><img src=""stimuli/white_square.png"" style=""width: 200px;height: 200px;""></button>","null","neonyellow","lightred","[""neonyellow"",""lightred"",""low nameability""]","left-right","[""neonyellow"",""lightred"",""low nameability""]","4","low nameability","35","left","iti",""
"html-button-response","173","468277","0.0-134.0","CKN_136","136","","","","","","6660","","0","brown","purple","[""brown"",""purple"",""high nameability""]","left-right","[""brown"",""purple"",""high nameability""]","4","high nameability","36","left","trigger",""
"html-button-response","174","470784","0.0-135.0-0.0","CKN_136","136","","","","","","2500","<button class=""jspsych-btn""><img src=""stimuli/brown.png"" style=""width: 200px;height: 200px;""></button>","0","brown","purple","[""brown"",""purple"",""high nameability""]","left-right","[""brown"",""purple"",""high nameability""]","4","high nameability","36","left","response","1"
"html-audio-button-response","175","470988","0.0-135.0-1.0","CKN_136","136","","","","","","null","stimuli/bleep.m4a","null","brown","purple","[""brown"",""purple"",""high nameability""]","left-right","[""brown"",""purple"",""high nameability""]","4","high nameability","36","left","audio_feedback","1"
"html-button-response","176","471504","0.0-136.0","CKN_136","136","","","","","","null","<button class=""jspsych-btn""><img src=""stimuli/white_square.png"" style=""width: 200px;height: 200px;""></button>","null","brown","purple","[""brown"",""purple"",""high nameability""]","left-right","[""brown"",""purple"",""high nameability""]","4","high nameability","36","left","iti",""
"html-button-response","177","476751","0.0-137.0","CKN_136","136","","","","","","5237","","0","mustard","darkgreenblue","[""mustard"",""darkgreenblue"",""low nameability""]","left-right","[""mustard"",""darkgreenblue"",""low nameability""]","4","low nameability","37","left","trigger",""
"html-button-response","178","479498","0.0-138.0-0.0","CKN_136","136","","","","","","2741","<button class=""jspsych-btn""><img src=""stimuli/mustard.png"" style=""width: 200px;height: 200px;""></button>","0","mustard","darkgreenblue","[""mustard"",""darkgreenblue"",""low nameability""]","left-right","[""mustard"",""darkgreenblue"",""low nameability""]","4","low nameability","37","left","response","1"
"html-audio-button-response","179","479703","0.0-138.0-1.0","CKN_136","136","","","","","","null","stimuli/bleep.m4a","null","mustard","darkgreenblue","[""mustard"",""darkgreenblue"",""low nameability""]","left-right","[""mustard"",""darkgreenblue"",""low nameability""]","4","low nameability","37","left","audio_feedback","1"
"html-button-response","180","480225","0.0-139.0","CKN_136","136","","","","","","null","<button class=""jspsych-btn""><img src=""stimuli/white_square.png"" style=""width: 200px;height: 200px;""></button>","null","mustard","darkgreenblue","[""mustard"",""darkgreenblue"",""low nameability""]","left-right","[""mustard"",""darkgreenblue"",""low nameability""]","4","low nameability","37","left","iti",""
"html-button-response","181","482025","0.0-140.0","CKN_136","136","","","","","","1780","","0","yellow","orange","[""yellow"",""orange"",""high nameability""]","right-left","[""orange"",""yellow""]","4","high nameability","38","right","trigger",""
"html-button-response","182","485617","0.0-141.0-0.0","CKN_136","136","","","","","","3583","<button class=""jspsych-btn""><img src=""stimuli/yellow.png"" style=""width: 200px;height: 200px;""></button>","1","yellow","orange","[""yellow"",""orange"",""high nameability""]","right-left","[""orange"",""yellow""]","4","high nameability","38","right","response","1"
"html-audio-button-response","183","485824","0.0-141.0-1.0","CKN_136","136","","","","","","null","stimuli/bleep.m4a","null","yellow","orange","[""yellow"",""orange"",""high nameability""]","right-left","[""orange"",""yellow""]","4","high nameability","38","right","audio_feedback","1"
"html-button-response","184","486346","0.0-142.0","CKN_136","136","","","","","","null","<button class=""jspsych-btn""><img src=""stimuli/white_square.png"" style=""width: 200px;height: 200px;""></button>","null","yellow","orange","[""yellow"",""orange"",""high nameability""]","right-left","[""orange"",""yellow""]","4","high nameability","38","right","iti",""
"html-button-response","185","489760","0.0-143.0","CKN_136","136","","","","","","3404","","0","purple","brown","[""purple"",""brown"",""high nameability""]","left-right","[""purple"",""brown"",""high nameability""]","4","high nameability","39","left","trigger",""
"html-button-response","186","491048","0.0-144.0-0.0","CKN_136","136","","","","","","1280","<button class=""jspsych-btn""><img src=""stimuli/purple.png"" style=""width: 200px;height: 200px;""></button>","0","purple","brown","[""purple"",""brown"",""high nameability""]","left-right","[""purple"",""brown"",""high nameability""]","4","high nameability","39","left","response","1"
"html-audio-button-response","187","491255","0.0-144.0-1.0","CKN_136","136","","","","","","null","stimuli/bleep.m4a","null","purple","brown","[""purple"",""brown"",""high nameability""]","left-right","[""purple"",""brown"",""high nameability""]","4","high nameability","39","left","audio_feedback","1"
"html-button-response","188","491765","0.0-145.0","CKN_136","136","","","","","","null","<button class=""jspsych-btn""><img src=""stimuli/white_square.png"" style=""width: 200px;height: 200px;""></button>","null","purple","brown","[""purple"",""brown"",""high nameability""]","left-right","[""purple"",""brown"",""high nameability""]","4","high nameability","39","left","iti",""
"html-button-response","189","495457","0.0-146.0","CKN_136","136","","","","","","3678","","0","mustard","pink","[""mustard"",""pink"",""low nameability""]","right-left","[""pink"",""mustard""]","4","low nameability","40","right","trigger",""
"html-button-response","190","496971","0.0-147.0-0.0","CKN_136","136","","","","","","1502","<button class=""jspsych-btn""><img src=""stimuli/mustard.png"" style=""width: 200px;height: 200px;""></button>","1","mustard","pink","[""mustard"",""pink"",""low nameability""]","right-left","[""pink"",""mustard""]","4","low nameability","40","right","response","1"
"html-audio-button-response","191","497174","0.0-147.0-1.0","CKN_136","136","","","","","","null","stimuli/bleep.m4a","null","mustard","pink","[""mustard"",""pink"",""low nameability""]","right-left","[""pink"",""mustard""]","4","low nameability","40","right","audio_feedback","1"
"html-button-response","192","497705","0.0-148.0","CKN_136","136","","","","","","null","<button class=""jspsych-btn""><img src=""stimuli/white_square.png"" style=""width: 200px;height: 200px;""></button>","null","mustard","pink","[""mustard"",""pink"",""low nameability""]","right-left","[""pink"",""mustard""]","4","low nameability","40","right","iti",""
"pavlovia","193","497785","0.0-149.0","CKN_136","136","","","","","","","","","","","","","","","","","","",""
"pavlovia","194","497797","0.0-150.0","CKN_136","136","","","","","","","","","","","","","","","","","","",""
"html-audio-button-response","195","504468","0.0-151.0","CKN_136","136","","","","","","6755","stimuli/tada.m4a","0","","","","","","","","","","",""
"html-button-response","196","507513","0.0-152.0","CKN_136","136","","","","","","3037","","0","","","","","","","","","","",""
"html-button-response","197","508989","0.0-153.0","CKN_136","136","","","","","","1468","","0","yellow","brown","[""yellow"",""brown"",""high nameability""]","left-right","[""yellow"",""brown"",""high nameability""]","5","high nameability","41","left","trigger",""
"html-button-response","198","511277","0.0-154.0-0.0","CKN_136","136","","","","","","2280","<button class=""jspsych-btn""><img src=""stimuli/yellow.png"" style=""width: 200px;height: 200px;""></button>","0","yellow","brown","[""yellow"",""brown"",""high nameability""]","left-right","[""yellow"",""brown"",""high nameability""]","5","high nameability","41","left","response","1"
"html-audio-button-response","199","511487","0.0-154.0-1.0","CKN_136","136","","","","","","null","stimuli/bleep.m4a","null","yellow","brown","[""yellow"",""brown"",""high nameability""]","left-right","[""yellow"",""brown"",""high nameability""]","5","high nameability","41","left","audio_feedback","1"
"html-button-response","200","512006","0.0-155.0","CKN_136","136","","","","","","null","<button class=""jspsych-btn""><img src=""stimuli/white_square.png"" style=""width: 200px;height: 200px;""></button>","null","yellow","brown","[""yellow"",""brown"",""high nameability""]","left-right","[""yellow"",""brown"",""high nameability""]","5","high nameability","41","left","iti",""
"html-button-response","201","512698","0.0-156.0","CKN_136","136","","","","","","680","","0","neonyellow","mustard","[""neonyellow"",""mustard"",""low nameability""]","right-left","[""mustard"",""neonyellow""]","5","low nameability","42","right","trigger",""
"html-button-response","202","514002","0.0-157.0-0.0","CKN_136","136","","","","","","1297","<button class=""jspsych-btn""><img src=""stimuli/neonyellow.png"" style=""width: 200px;height: 200px;""></button>","1","neonyellow","mustard","[""neonyellow"",""mustard"",""low nameability""]","right-left","[""mustard"",""neonyellow""]","5","low nameability","42","right","response","1"
"html-audio-button-response","203","514211","0.0-157.0-1.0","CKN_136","136","","","","","","null","stimuli/bleep.m4a","null","neonyellow","mustard","[""neonyellow"",""mustard"",""low nameability""]","right-left","[""mustard"",""neonyellow""]","5","low nameability","42","right","audio_feedback","1"
"html-button-response","204","514739","0.0-158.0","CKN_136","136","","","","","","null","<button class=""jspsych-btn""><img src=""stimuli/white_square.png"" style=""width: 200px;height: 200px;""></button>","null","neonyellow","mustard","[""neonyellow"",""mustard"",""low nameability""]","right-left","[""mustard"",""neonyellow""]","5","low nameability","42","right","iti",""
"html-button-response","205","515397","0.0-159.0","CKN_136","136","","","","","","645","","0","darkgreenblue","pink","[""darkgreenblue"",""pink"",""low nameability""]","left-right","[""darkgreenblue"",""pink"",""low nameability""]","5","low nameability","43","left","trigger",""
"html-button-response","206","529795","0.0-160.0-0.0","CKN_136","136","","","","","","14390","<button class=""jspsych-btn""><img src=""stimuli/darkgreenblue.png"" style=""width: 200px;height: 200px;""></button>","0","darkgreenblue","pink","[""darkgreenblue"",""pink"",""low nameability""]","left-right","[""darkgreenblue"",""pink"",""low nameability""]","5","low nameability","43","left","response","1"
"html-audio-button-response","207","529999","0.0-160.0-1.0","CKN_136","136","","","","","","null","stimuli/bleep.m4a","null","darkgreenblue","pink","[""darkgreenblue"",""pink"",""low nameability""]","left-right","[""darkgreenblue"",""pink"",""low nameability""]","5","low nameability","43","left","audio_feedback","1"
"html-button-response","208","530514","0.0-161.0","CKN_136","136","","","","","","null","<button class=""jspsych-btn""><img src=""stimuli/white_square.png"" style=""width: 200px;height: 200px;""></button>","null","darkgreenblue","pink","[""darkgreenblue"",""pink"",""low nameability""]","left-right","[""darkgreenblue"",""pink"",""low nameability""]","5","low nameability","43","left","iti",""
"html-button-response","209","537392","0.0-162.0","CKN_136","136","","","","","","6869","","0","brown","blue","[""brown"",""blue"",""high nameability""]","left-right","[""brown"",""blue"",""high nameability""]","5","high nameability","44","left","trigger",""
"html-button-response","210","540172","0.0-163.0-0.0","CKN_136","136","","","","","","2767","<button class=""jspsych-btn""><img src=""stimuli/brown.png"" style=""width: 200px;height: 200px;""></button>","0","brown","blue","[""brown"",""blue"",""high nameability""]","left-right","[""brown"",""blue"",""high nameability""]","5","high nameability","44","left","response","1"
"html-audio-button-response","211","540381","0.0-163.0-1.0","CKN_136","136","","","","","","null","stimuli/bleep.m4a","null","brown","blue","[""brown"",""blue"",""high nameability""]","left-right","[""brown"",""blue"",""high nameability""]","5","high nameability","44","left","audio_feedback","1"
"html-button-response","212","540895","0.0-164.0","CKN_136","136","","","","","","null","<button class=""jspsych-btn""><img src=""stimuli/white_square.png"" style=""width: 200px;height: 200px;""></button>","null","brown","blue","[""brown"",""blue"",""high nameability""]","left-right","[""brown"",""blue"",""high nameability""]","5","high nameability","44","left","iti",""
"html-button-response","213","541848","0.0-165.0","CKN_136","136","","","","","","937","","0","darkgreenblue","lightred","[""darkgreenblue"",""lightred"",""low nameability""]","left-right","[""darkgreenblue"",""lightred"",""low nameability""]","5","low nameability","45","left","trigger",""
"html-button-response","214","544421","0.0-166.0-0.0","CKN_136","136","","","","","","2566","<button class=""jspsych-btn""><img src=""stimuli/darkgreenblue.png"" style=""width: 200px;height: 200px;""></button>","0","darkgreenblue","lightred","[""darkgreenblue"",""lightred"",""low nameability""]","left-right","[""darkgreenblue"",""lightred"",""low nameability""]","5","low nameability","45","left","response","1"
"html-audio-button-response","215","544641","0.0-166.0-1.0","CKN_136","136","","","","","","null","stimuli/bleep.m4a","null","darkgreenblue","lightred","[""darkgreenblue"",""lightred"",""low nameability""]","left-right","[""darkgreenblue"",""lightred"",""low nameability""]","5","low nameability","45","left","audio_feedback","1"
"html-button-response","216","545155","0.0-167.0","CKN_136","136","","","","","","null","<button class=""jspsych-btn""><img src=""stimuli/white_square.png"" style=""width: 200px;height: 200px;""></button>","null","darkgreenblue","lightred","[""darkgreenblue"",""lightred"",""low nameability""]","left-right","[""darkgreenblue"",""lightred"",""low nameability""]","5","low nameability","45","left","iti",""
"html-button-response","217","548370","0.0-168.0","CKN_136","136","","","","","","3204","","0","orange","yellow","[""orange"",""yellow"",""high nameability""]","right-left","[""yellow"",""orange""]","5","high nameability","46","right","trigger",""
"html-button-response","218","549812","0.0-169.0-0.0","CKN_136","136","","","","","","1434","<button class=""jspsych-btn""><img src=""stimuli/orange.png"" style=""width: 200px;height: 200px;""></button>","1","orange","yellow","[""orange"",""yellow"",""high nameability""]","right-left","[""yellow"",""orange""]","5","high nameability","46","right","response","1"
"html-audio-button-response","219","550023","0.0-169.0-1.0","CKN_136","136","","","","","","null","stimuli/bleep.m4a","null","orange","yellow","[""orange"",""yellow"",""high nameability""]","right-left","[""yellow"",""orange""]","5","high nameability","46","right","audio_feedback","1"
"html-button-response","220","550544","0.0-170.0","CKN_136","136","","","","","","null","<button class=""jspsych-btn""><img src=""stimuli/white_square.png"" style=""width: 200px;height: 200px;""></button>","null","orange","yellow","[""orange"",""yellow"",""high nameability""]","right-left","[""yellow"",""orange""]","5","high nameability","46","right","iti",""
"html-button-response","221","552485","0.0-171.0","CKN_136","136","","","","","","1931","","0","blue","brown","[""blue"",""brown"",""high nameability""]","left-right","[""blue"",""brown"",""high nameability""]","5","high nameability","47","left","trigger",""
"html-button-response","222","554689","0.0-172.0-0.0","CKN_136","136","","","","","","2192","<button class=""jspsych-btn""><img src=""stimuli/blue.png"" style=""width: 200px;height: 200px;""></button>","0","blue","brown","[""blue"",""brown"",""high nameability""]","left-right","[""blue"",""brown"",""high nameability""]","5","high nameability","47","left","response","1"
"html-audio-button-response","223","554895","0.0-172.0-1.0","CKN_136","136","","","","","","null","stimuli/bleep.m4a","null","blue","brown","[""blue"",""brown"",""high nameability""]","left-right","[""blue"",""brown"",""high nameability""]","5","high nameability","47","left","audio_feedback","1"
"html-button-response","224","555404","0.0-173.0","CKN_136","136","","","","","","null","<button class=""jspsych-btn""><img src=""stimuli/white_square.png"" style=""width: 200px;height: 200px;""></button>","null","blue","brown","[""blue"",""brown"",""high nameability""]","left-right","[""blue"",""brown"",""high nameability""]","5","high nameability","47","left","iti",""
"html-button-response","225","556401","0.0-174.0","CKN_136","136","","","","","","991","","0","darkgreenblue","turquoise","[""darkgreenblue"",""turquoise"",""low nameability""]","left-right","[""darkgreenblue"",""turquoise"",""low nameability""]","5","low nameability","48","left","trigger",""
"html-button-response","226","557521","0.0-175.0-0.0","CKN_136","136","","","","","","1114","<button class=""jspsych-btn""><img src=""stimuli/darkgreenblue.png"" style=""width: 200px;height: 200px;""></button>","0","darkgreenblue","turquoise","[""darkgreenblue"",""turquoise"",""low nameability""]","left-right","[""darkgreenblue"",""turquoise"",""low nameability""]","5","low nameability","48","left","response","1"
"html-audio-button-response","227","557726","0.0-175.0-1.0","CKN_136","136","","","","","","null","stimuli/bleep.m4a","null","darkgreenblue","turquoise","[""darkgreenblue"",""turquoise"",""low nameability""]","left-right","[""darkgreenblue"",""turquoise"",""low nameability""]","5","low nameability","48","left","audio_feedback","1"
"html-button-response","228","558243","0.0-176.0","CKN_136","136","","","","","","null","<button class=""jspsych-btn""><img src=""stimuli/white_square.png"" style=""width: 200px;height: 200px;""></button>","null","darkgreenblue","turquoise","[""darkgreenblue"",""turquoise"",""low nameability""]","left-right","[""darkgreenblue"",""turquoise"",""low nameability""]","5","low nameability","48","left","iti",""
"html-button-response","229","561952","0.0-177.0","CKN_136","136","","","","","","3697","","0","purple","blue","[""purple"",""blue"",""high nameability""]","left-right","[""purple"",""blue"",""high nameability""]","5","high nameability","49","left","trigger",""
"html-button-response","230","565838","0.0-178.0-0.0","CKN_136","136","","","","","","3873","<button class=""jspsych-btn""><img src=""stimuli/purple.png"" style=""width: 200px;height: 200px;""></button>","0","purple","blue","[""purple"",""blue"",""high nameability""]","left-right","[""purple"",""blue"",""high nameability""]","5","high nameability","49","left","response","1"
"html-audio-button-response","231","566056","0.0-178.0-1.0","CKN_136","136","","","","","","null","stimuli/bleep.m4a","null","purple","blue","[""purple"",""blue"",""high nameability""]","left-right","[""purple"",""blue"",""high nameability""]","5","high nameability","49","left","audio_feedback","1"
"html-button-response","232","566570","0.0-179.0","CKN_136","136","","","","","","null","<button class=""jspsych-btn""><img src=""stimuli/white_square.png"" style=""width: 200px;height: 200px;""></button>","null","purple","blue","[""purple"",""blue"",""high nameability""]","left-right","[""purple"",""blue"",""high nameability""]","5","high nameability","49","left","iti",""
"html-button-response","233","568775","0.0-180.0","CKN_136","136","","","","","","2192","","0","blue","yellow","[""blue"",""yellow"",""high nameability""]","right-left","[""yellow"",""blue""]","5","high nameability","50","right","trigger",""
"html-button-response","234","571701","0.0-181.0-0.0","CKN_136","136","","","","","","2919","<button class=""jspsych-btn""><img src=""stimuli/blue.png"" style=""width: 200px;height: 200px;""></button>","1","blue","yellow","[""blue"",""yellow"",""high nameability""]","right-left","[""yellow"",""blue""]","5","high nameability","50","right","response","1"
"html-audio-button-response","235","571911","0.0-181.0-1.0","CKN_136","136","","","","","","null","stimuli/bleep.m4a","null","blue","yellow","[""blue"",""yellow"",""high nameability""]","right-left","[""yellow"",""blue""]","5","high nameability","50","right","audio_feedback","1"
"html-button-response","236","572438","0.0-182.0","CKN_136","136","","","","","","null","<button class=""jspsych-btn""><img src=""stimuli/white_square.png"" style=""width: 200px;height: 200px;""></button>","null","blue","yellow","[""blue"",""yellow"",""high nameability""]","right-left","[""yellow"",""blue""]","5","high nameability","50","right","iti",""
"pavlovia","237","572511","0.0-183.0","CKN_136","136","","","","","","","","","","","","","","","","","","",""
"pavlovia","238","572519","0.0-184.0","CKN_136","136","","","","","","","","","","","","","","","","","","",""
"html-audio-button-response","239","592959","0.0-185.0","CKN_136","136","","","","","","20523","stimuli/tada.m4a","0","","","","","","","","","","",""
"html-button-response","240","593777","0.0-186.0","CKN_136","136","","","","","","812","","0","","","","","","","","","","",""
"html-button-response","241","596361","0.0-187.0","CKN_136","136","","","","","","2578","","0","brown","yellow","[""brown"",""yellow"",""high nameability""]","right-left","[""yellow"",""brown""]","6","high nameability","51","right","trigger",""
"html-button-response","242","597696","0.0-188.0-0.0","CKN_136","136","","","","","","1328","<button class=""jspsych-btn""><img src=""stimuli/brown.png"" style=""width: 200px;height: 200px;""></button>","1","brown","yellow","[""brown"",""yellow"",""high nameability""]","right-left","[""yellow"",""brown""]","6","high nameability","51","right","response","1"
"html-audio-button-response","243","597903","0.0-188.0-1.0","CKN_136","136","","","","","","null","stimuli/bleep.m4a","null","brown","yellow","[""brown"",""yellow"",""high nameability""]","right-left","[""yellow"",""brown""]","6","high nameability","51","right","audio_feedback","1"
"html-button-response","244","598417","0.0-189.0","CKN_136","136","","","","","","null","<button class=""jspsych-btn""><img src=""stimuli/white_square.png"" style=""width: 200px;height: 200px;""></button>","null","brown","yellow","[""brown"",""yellow"",""high nameability""]","right-left","[""yellow"",""brown""]","6","high nameability","51","right","iti",""
"html-button-response","245","599119","0.0-190.0","CKN_136","136","","","","","","683","","0","neonyellow","darkgreenblue","[""neonyellow"",""darkgreenblue"",""low nameability""]","right-left","[""darkgreenblue"",""neonyellow""]","6","low nameability","52","right","trigger",""
"html-button-response","246","602424","0.0-191.0-0.0","CKN_136","136","","","","","","3297","<button class=""jspsych-btn""><img src=""stimuli/neonyellow.png"" style=""width: 200px;height: 200px;""></button>","1","neonyellow","darkgreenblue","[""neonyellow"",""darkgreenblue"",""low nameability""]","right-left","[""darkgreenblue"",""neonyellow""]","6","low nameability","52","right","response","1"
"html-audio-button-response","247","602631","0.0-191.0-1.0","CKN_136","136","","","","","","null","stimuli/bleep.m4a","null","neonyellow","darkgreenblue","[""neonyellow"",""darkgreenblue"",""low nameability""]","right-left","[""darkgreenblue"",""neonyellow""]","6","low nameability","52","right","audio_feedback","1"
"html-button-response","248","603155","0.0-192.0","CKN_136","136","","","","","","null","<button class=""jspsych-btn""><img src=""stimuli/white_square.png"" style=""width: 200px;height: 200px;""></button>","null","neonyellow","darkgreenblue","[""neonyellow"",""darkgreenblue"",""low nameability""]","right-left","[""darkgreenblue"",""neonyellow""]","6","low nameability","52","right","iti",""
"html-button-response","249","603762","0.0-193.0","CKN_136","136","","","","","","598","","0","turquoise","darkgreenblue","[""turquoise"",""darkgreenblue"",""low nameability""]","right-left","[""darkgreenblue"",""turquoise""]","6","low nameability","53","right","trigger",""
"html-button-response","250","604892","0.0-194.0-0.0","CKN_136","136","","","","","","1122","<button class=""jspsych-btn""><img src=""stimuli/turquoise.png"" style=""width: 200px;height: 200px;""></button>","1","turquoise","darkgreenblue","[""turquoise"",""darkgreenblue"",""low nameability""]","right-left","[""darkgreenblue"",""turquoise""]","6","low nameability","53","right","response","1"
"html-audio-button-response","251","605095","0.0-194.0-1.0","CKN_136","136","","","","","","null","stimuli/bleep.m4a","null","turquoise","darkgreenblue","[""turquoise"",""darkgreenblue"",""low nameability""]","right-left","[""darkgreenblue"",""turquoise""]","6","low nameability","53","right","audio_feedback","1"
"html-button-response","252","605606","0.0-195.0","CKN_136","136","","","","","","null","<button class=""jspsych-btn""><img src=""stimuli/white_square.png"" style=""width: 200px;height: 200px;""></button>","null","turquoise","darkgreenblue","[""turquoise"",""darkgreenblue"",""low nameability""]","right-left","[""darkgreenblue"",""turquoise""]","6","low nameability","53","right","iti",""
"html-button-response","253","608257","0.0-196.0","CKN_136","136","","","","","","2638","","0","pink","mustard","[""pink"",""mustard"",""low nameability""]","left-right","[""pink"",""mustard"",""low nameability""]","6","low nameability","54","left","trigger",""
"html-button-response","254","610813","0.0-197.0-0.0","CKN_136","136","","","","","","2543","<button class=""jspsych-btn""><img src=""stimuli/pink.png"" style=""width: 200px;height: 200px;""></button>","0","pink","mustard","[""pink"",""mustard"",""low nameability""]","left-right","[""pink"",""mustard"",""low nameability""]","6","low nameability","54","left","response","1"
"html-audio-button-response","255","611022","0.0-197.0-1.0","CKN_136","136","","","","","","null","stimuli/bleep.m4a","null","pink","mustard","[""pink"",""mustard"",""low nameability""]","left-right","[""pink"",""mustard"",""low nameability""]","6","low nameability","54","left","audio_feedback","1"
"html-button-response","256","611539","0.0-198.0","CKN_136","136","","","","","","null","<button class=""jspsych-btn""><img src=""stimuli/white_square.png"" style=""width: 200px;height: 200px;""></button>","null","pink","mustard","[""pink"",""mustard"",""low nameability""]","left-right","[""pink"",""mustard"",""low nameability""]","6","low nameability","54","left","iti",""
"html-button-response","257","614802","0.0-199.0","CKN_136","136","","","","","","3246","","0","orange","brown","[""orange"",""brown"",""high nameability""]","right-left","[""brown"",""orange""]","6","high nameability","55","right","trigger",""
"html-button-response","258","616213","0.0-200.0-0.0","CKN_136","136","","","","","","1404","<button class=""jspsych-btn""><img src=""stimuli/orange.png"" style=""width: 200px;height: 200px;""></button>","1","orange","brown","[""orange"",""brown"",""high nameability""]","right-left","[""brown"",""orange""]","6","high nameability","55","right","response","1"
"html-audio-button-response","259","616421","0.0-200.0-1.0","CKN_136","136","","","","","","null","stimuli/bleep.m4a","null","orange","brown","[""orange"",""brown"",""high nameability""]","right-left","[""brown"",""orange""]","6","high nameability","55","right","audio_feedback","1"
"html-button-response","260","616936","0.0-201.0","CKN_136","136","","","","","","null","<button class=""jspsych-btn""><img src=""stimuli/white_square.png"" style=""width: 200px;height: 200px;""></button>","null","orange","brown","[""orange"",""brown"",""high nameability""]","right-left","[""brown"",""orange""]","6","high nameability","55","right","iti",""
"html-button-response","261","619346","0.0-202.0","CKN_136","136","","","","","","2393","","0","orange","purple","[""orange"",""purple"",""high nameability""]","left-right","[""orange"",""purple"",""high nameability""]","6","high nameability","56","left","trigger",""
"html-button-response","262","622233","0.0-203.0-0.0","CKN_136","136","","","","","","2878","<button class=""jspsych-btn""><img src=""stimuli/orange.png"" style=""width: 200px;height: 200px;""></button>","0","orange","purple","[""orange"",""purple"",""high nameability""]","left-right","[""orange"",""purple"",""high nameability""]","6","high nameability","56","left","response","1"
"html-audio-button-response","263","622447","0.0-203.0-1.0","CKN_136","136","","","","","","null","stimuli/bleep.m4a","null","orange","purple","[""orange"",""purple"",""high nameability""]","left-right","[""orange"",""purple"",""high nameability""]","6","high nameability","56","left","audio_feedback","1"
"html-button-response","264","622972","0.0-204.0","CKN_136","136","","","","","","null","<button class=""jspsych-btn""><img src=""stimuli/white_square.png"" style=""width: 200px;height: 200px;""></button>","null","orange","purple","[""orange"",""purple"",""high nameability""]","left-right","[""orange"",""purple"",""high nameability""]","6","high nameability","56","left","iti",""
"html-button-response","265","624956","0.0-205.0","CKN_136","136","","","","","","1962","","0","mustard","neonyellow","[""mustard"",""neonyellow"",""low nameability""]","left-right","[""mustard"",""neonyellow"",""low nameability""]","6","low nameability","57","left","trigger",""
"html-button-response","266","632498","0.0-206.0-0.0","CKN_136","136","","","","","","7535","<button class=""jspsych-btn""><img src=""stimuli/mustard.png"" style=""width: 200px;height: 200px;""></button>","0","mustard","neonyellow","[""mustard"",""neonyellow"",""low nameability""]","left-right","[""mustard"",""neonyellow"",""low nameability""]","6","low nameability","57","left","response","1"
"html-audio-button-response","267","632703","0.0-206.0-1.0","CKN_136","136","","","","","","null","stimuli/bleep.m4a","null","mustard","neonyellow","[""mustard"",""neonyellow"",""low nameability""]","left-right","[""mustard"",""neonyellow"",""low nameability""]","6","low nameability","57","left","audio_feedback","1"
"html-button-response","268","633216","0.0-207.0","CKN_136","136","","","","","","null","<button class=""jspsych-btn""><img src=""stimuli/white_square.png"" style=""width: 200px;height: 200px;""></button>","null","mustard","neonyellow","[""mustard"",""neonyellow"",""low nameability""]","left-right","[""mustard"",""neonyellow"",""low nameability""]","6","low nameability","57","left","iti",""
"html-button-response","269","634354","0.0-208.0","CKN_136","136","","","","","","1122","","0","yellow","red","[""yellow"",""red"",""high nameability""]","left-right","[""yellow"",""red"",""high nameability""]","6","high nameability","58","left","trigger",""
"html-button-response","270","637100","0.0-209.0-0.0","CKN_136","136","","","","","","2738","<button class=""jspsych-btn""><img src=""stimuli/yellow.png"" style=""width: 200px;height: 200px;""></button>","0","yellow","red","[""yellow"",""red"",""high nameability""]","left-right","[""yellow"",""red"",""high nameability""]","6","high nameability","58","left","response","1"
"html-audio-button-response","271","637303","0.0-209.0-1.0","CKN_136","136","","","","","","null","stimuli/bleep.m4a","null","yellow","red","[""yellow"",""red"",""high nameability""]","left-right","[""yellow"",""red"",""high nameability""]","6","high nameability","58","left","audio_feedback","1"
"html-button-response","272","637818","0.0-210.0","CKN_136","136","","","","","","null","<button class=""jspsych-btn""><img src=""stimuli/white_square.png"" style=""width: 200px;height: 200px;""></button>","null","yellow","red","[""yellow"",""red"",""high nameability""]","left-right","[""yellow"",""red"",""high nameability""]","6","high nameability","58","left","iti",""
"html-button-response","273","639681","0.0-211.0","CKN_136","136","","","","","","1846","","0","pink","darkgreenblue","[""pink"",""darkgreenblue"",""low nameability""]","right-left","[""darkgreenblue"",""pink""]","6","low nameability","59","right","trigger",""
"html-button-response","274","642047","0.0-212.0-0.0","CKN_136","136","","","","","","2359","<button class=""jspsych-btn""><img src=""stimuli/pink.png"" style=""width: 200px;height: 200px;""></button>","1","pink","darkgreenblue","[""pink"",""darkgreenblue"",""low nameability""]","right-left","[""darkgreenblue"",""pink""]","6","low nameability","59","right","response","1"
"html-audio-button-response","275","642252","0.0-212.0-1.0","CKN_136","136","","","","","","null","stimuli/bleep.m4a","null","pink","darkgreenblue","[""pink"",""darkgreenblue"",""low nameability""]","right-left","[""darkgreenblue"",""pink""]","6","low nameability","59","right","audio_feedback","1"
"html-button-response","276","642765","0.0-213.0","CKN_136","136","","","","","","null","<button class=""jspsych-btn""><img src=""stimuli/white_square.png"" style=""width: 200px;height: 200px;""></button>","null","pink","darkgreenblue","[""pink"",""darkgreenblue"",""low nameability""]","right-left","[""darkgreenblue"",""pink""]","6","low nameability","59","right","iti",""
"html-button-response","277","645814","0.0-214.0","CKN_136","136","","","","","","3035","","0","red","blue","[""red"",""blue"",""high nameability""]","left-right","[""red"",""blue"",""high nameability""]","6","high nameability","60","left","trigger",""
"html-button-response","278","648595","0.0-215.0-0.0","CKN_136","136","","","","","","2774","<button class=""jspsych-btn""><img src=""stimuli/red.png"" style=""width: 200px;height: 200px;""></button>","0","red","blue","[""red"",""blue"",""high nameability""]","left-right","[""red"",""blue"",""high nameability""]","6","high nameability","60","left","response","1"
"html-audio-button-response","279","648801","0.0-215.0-1.0","CKN_136","136","","","","","","null","stimuli/bleep.m4a","null","red","blue","[""red"",""blue"",""high nameability""]","left-right","[""red"",""blue"",""high nameability""]","6","high nameability","60","left","audio_feedback","1"
"html-button-response","280","649327","0.0-216.0","CKN_136","136","","","","","","null","<button class=""jspsych-btn""><img src=""stimuli/white_square.png"" style=""width: 200px;height: 200px;""></button>","null","red","blue","[""red"",""blue"",""high nameability""]","left-right","[""red"",""blue"",""high nameability""]","6","high nameability","60","left","iti",""
