"trial_type","trial_index","time_elapsed","internal_node_id","subject_id","seed","success","timeout","failed_images","failed_audio","failed_video","rt","stimulus","response","target","foil","choices","combination_order","choices_in_order","round","condition","trial_counter","target_location","trial_kind","correct"
"pavlovia","0","18","0.0-0.0","CKN_141","141","","","","","","","","","","","","","","","","","","",""
"preload","1","1267","0.0-1.0","CKN_141","141","true","false","[]","[]","[]","","","","","","","","","","","","","",""
"fullscreen","2","3357","0.0-2.0","CKN_141","141","true","","","","","","","","","","","","","","","","","",""
"html-button-response","3","211715","0.0-3.0","CKN_141","141","","","","","","208331","","0","","","","","","","","","","",""
"html-button-response","4","215860","0.0-4.0","CKN_141","141","","","","","","4129","","0","star","square","[""square"",""star""]","left-right","[""square"",""star""]","1","practice","1","right","trigger",""
"html-button-response","5","223402","0.0-5.0-0.0","CKN_141","141","","","","","","7528","<button class=""jspsych-btn""><img src=""stimuli/star.png"" style=""width: 200px;height: 200px;""></button>","1","star","square","[""square"",""star""]","left-right","[""square"",""star""]","1","practice","1","right","response","1"
"html-audio-button-response","6","223612","0.0-5.0-1.0","CKN_141","141","","","","","","null","stimuli/bleep.m4a","null","star","square","[""square"",""star""]","left-right","[""square"",""star""]","1","practice","1","right","audio_feedback","1"
"html-button-response","7","224136","0.0-6.0","CKN_141","141","","","","","","null","<button class=""jspsych-btn""><img src=""stimuli/white_square.png"" style=""width: 200px;height: 200px;""></button>","null","star","square","[""square"",""star""]","left-right","[""square"",""star""]","1","practice","1","right","iti",""
"html-button-response","8","227746","0.0-7.0","CKN_141","141","","","","","","3586","","0","triangle","pentagram","[""triangle"",""pentagram""]","left-right","[""triangle"",""pentagram""]","1","practice","1","left","trigger",""
"html-button-response","9","230532","0.0-8.0-0.0","CKN_141","141","","","","","","2776","<button class=""jspsych-btn""><img src=""stimuli/triangle.png"" style=""width: 200px;height: 200px;""></button>","0","triangle","pentagram","[""triangle"",""pentagram""]","left-right","[""triangle"",""pentagram""]","1","practice","1","left","response","1"
"html-audio-button-response","10","230747","0.0-8.0-1.0","CKN_141","141","","","","","","null","stimuli/bleep.m4a","null","triangle","pentagram","[""triangle"",""pentagram""]","left-right","[""triangle"",""pentagram""]","1","practice","1","left","audio_feedback","1"
"html-button-response","11","231267","0.0-9.0","CKN_141","141","","","","","","null","<button class=""jspsych-btn""><img src=""stimuli/white_square.png"" style=""width: 200px;height: 200px;""></button>","null","triangle","pentagram","[""triangle"",""pentagram""]","left-right","[""triangle"",""pentagram""]","1","practice","1","left","iti",""
"html-button-response","12","235791","0.0-10.0","CKN_141","141","","","","","","4506","","0","diamond","rectangle","[""rectangle"",""diamond""]","left-right","[""rectangle"",""diamond""]","1","practice","1","right","trigger",""
"html-button-response","13","237794","0.0-11.0-0.0","CKN_141","141","","","","","","1995","<button class=""jspsych-btn""><img src=""stimuli/diamond.png"" style=""width: 200px;height: 200px;""></button>","1","diamond","rectangle","[""rectangle"",""diamond""]","left-right","[""rectangle"",""diamond""]","1","practice","1","right","response","1"
"html-audio-button-response","14","237997","0.0-11.0-1.0","CKN_141","141","","","","","","null","stimuli/bleep.m4a","null","diamond","rectangle","[""rectangle"",""diamond""]","left-right","[""rectangle"",""diamond""]","1","practice","1","right","audio_feedback","1"
"html-button-response","15","238510","0.0-12.0","CKN_141","141","","","","","","null","<button class=""jspsych-btn""><img src=""stimuli/white_square.png"" style=""width: 200px;height: 200px;""></button>","null","diamond","rectangle","[""rectangle"",""diamond""]","left-right","[""rectangle"",""diamond""]","1","practice","1","right","iti",""
"html-button-response","16","239778","0.0-13.0","CKN_141","141","","","","","","1255","","0","pentagram","star","[""pentagram"",""star""]","left-right","[""pentagram"",""star""]","1","practice","1","left","trigger",""
"html-button-response","17","245669","0.0-14.0-0.0","CKN_141","141","","","","","","5883","<button class=""jspsych-btn""><img src=""stimuli/pentagram.png"" style=""width: 200px;height: 200px;""></button>","0","pentagram","star","[""pentagram"",""star""]","left-right","[""pentagram"",""star""]","1","practice","1","left","response","1"
"html-audio-button-response","18","245872","0.0-14.0-1.0","CKN_141","141","","","","","","null","stimuli/bleep.m4a","null","pentagram","star","[""pentagram"",""star""]","left-right","[""pentagram"",""star""]","1","practice","1","left","audio_feedback","1"
"html-button-response","19","246386","0.0-15.0","CKN_141","141","","","","","","null","<button class=""jspsych-btn""><img src=""stimuli/white_square.png"" style=""width: 200px;height: 200px;""></button>","null","pentagram","star","[""pentagram"",""star""]","left-right","[""pentagram"",""star""]","1","practice","1","left","iti",""
"html-button-response","20","250429","0.0-16.0","CKN_141","141","","","","","","4032","","0","","","","","","","","","","",""
"html-button-response","21","251936","0.0-17.0","CKN_141","141","","","","","","1500","","0","yellow","brown","[""yellow"",""brown"",""high nameability""]","left-right","[""yellow"",""brown"",""high nameability""]","1","high nameability","1","left","trigger",""
"html-button-response","22","254274","0.0-18.0-0.0","CKN_141","141","","","","","","2329","<button class=""jspsych-btn""><img src=""stimuli/yellow.png"" style=""width: 200px;height: 200px;""></button>","0","yellow","brown","[""yellow"",""brown"",""high nameability""]","left-right","[""yellow"",""brown"",""high nameability""]","1","high nameability","1","left","response","1"
"html-audio-button-response","23","254477","0.0-18.0-1.0","CKN_141","141","","","","","","null","stimuli/bleep.m4a","null","yellow","brown","[""yellow"",""brown"",""high nameability""]","left-right","[""yellow"",""brown"",""high nameability""]","1","high nameability","1","left","audio_feedback","1"
"html-button-response","24","254993","0.0-19.0","CKN_141","141","","","","","","null","<button class=""jspsych-btn""><img src=""stimuli/white_square.png"" style=""width: 200px;height: 200px;""></button>","null","yellow","brown","[""yellow"",""brown"",""high nameability""]","left-right","[""yellow"",""brown"",""high nameability""]","1","high nameability","1","left","iti",""
"html-button-response","25","256396","0.0-20.0","CKN_141","141","","","","","","1392","","0","orange","brown","[""orange"",""brown"",""high nameability""]","left-right","[""orange"",""brown"",""high nameability""]","1","high nameability","2","left","trigger",""
"html-button-response","26","260630","0.0-21.0-0.0","CKN_141","141","","","","","","4224","<button class=""jspsych-btn""><img src=""stimuli/orange.png"" style=""width: 200px;height: 200px;""></button>","0","orange","brown","[""orange"",""brown"",""high nameability""]","left-right","[""orange"",""brown"",""high nameability""]","1","high nameability","2","left","response","1"
"html-audio-button-response","27","260829","0.0-21.0-1.0","CKN_141","141","","","","","","null","stimuli/bleep.m4a","null","orange","brown","[""orange"",""brown"",""high nameability""]","left-right","[""orange"",""brown"",""high nameability""]","1","high nameability","2","left","audio_feedback","1"
"html-button-response","28","261352","0.0-22.0","CKN_141","141","","","","","","null","<button class=""jspsych-btn""><img src=""stimuli/white_square.png"" style=""width: 200px;height: 200px;""></button>","null","orange","brown","[""orange"",""brown"",""high nameability""]","left-right","[""orange"",""brown"",""high nameability""]","1","high nameability","2","left","iti",""
"html-button-response","29","262551","0.0-23.0","CKN_141","141","","","","","","1187","","0","yellow","purple","[""yellow"",""purple"",""high nameability""]","right-left","[""purple"",""yellow""]","1","high nameability","3","right","trigger",""
"html-button-response","30","264697","0.0-24.0-0.0","CKN_141","141","","","","","","2140","<button class=""jspsych-btn""><img src=""stimuli/yellow.png"" style=""width: 200px;height: 200px;""></button>","1","yellow","purple","[""yellow"",""purple"",""high nameability""]","right-left","[""purple"",""yellow""]","1","high nameability","3","right","response","1"
"html-audio-button-response","31","264903","0.0-24.0-1.0","CKN_141","141","","","","","","null","stimuli/bleep.m4a","null","yellow","purple","[""yellow"",""purple"",""high nameability""]","right-left","[""purple"",""yellow""]","1","high nameability","3","right","audio_feedback","1"
"html-button-response","32","265427","0.0-25.0","CKN_141","141","","","","","","null","<button class=""jspsych-btn""><img src=""stimuli/white_square.png"" style=""width: 200px;height: 200px;""></button>","null","yellow","purple","[""yellow"",""purple"",""high nameability""]","right-left","[""purple"",""yellow""]","1","high nameability","3","right","iti",""
"html-button-response","33","267318","0.0-26.0","CKN_141","141","","","","","","1883","","0","mustard","lightred","[""mustard"",""lightred"",""low nameability""]","right-left","[""lightred"",""mustard""]","1","low nameability","4","right","trigger",""
"html-button-response","34","269879","0.0-27.0-0.0","CKN_141","141","","","","","","2554","<button class=""jspsych-btn""><img src=""stimuli/mustard.png"" style=""width: 200px;height: 200px;""></button>","1","mustard","lightred","[""mustard"",""lightred"",""low nameability""]","right-left","[""lightred"",""mustard""]","1","low nameability","4","right","response","1"
"html-audio-button-response","35","270084","0.0-27.0-1.0","CKN_141","141","","","","","","null","stimuli/bleep.m4a","null","mustard","lightred","[""mustard"",""lightred"",""low nameability""]","right-left","[""lightred"",""mustard""]","1","low nameability","4","right","audio_feedback","1"
"html-button-response","36","270595","0.0-28.0","CKN_141","141","","","","","","null","<button class=""jspsych-btn""><img src=""stimuli/white_square.png"" style=""width: 200px;height: 200px;""></button>","null","mustard","lightred","[""mustard"",""lightred"",""low nameability""]","right-left","[""lightred"",""mustard""]","1","low nameability","4","right","iti",""
"html-button-response","37","272437","0.0-29.0","CKN_141","141","","","","","","1820","","0","brown","red","[""brown"",""red"",""high nameability""]","right-left","[""red"",""brown""]","1","high nameability","5","right","trigger",""
"html-button-response","38","274004","0.0-30.0-0.0","CKN_141","141","","","","","","1560","<button class=""jspsych-btn""><img src=""stimuli/brown.png"" style=""width: 200px;height: 200px;""></button>","1","brown","red","[""brown"",""red"",""high nameability""]","right-left","[""red"",""brown""]","1","high nameability","5","right","response","1"
"html-audio-button-response","39","274207","0.0-30.0-1.0","CKN_141","141","","","","","","null","stimuli/bleep.m4a","null","brown","red","[""brown"",""red"",""high nameability""]","right-left","[""red"",""brown""]","1","high nameability","5","right","audio_feedback","1"
"html-button-response","40","274718","0.0-31.0","CKN_141","141","","","","","","null","<button class=""jspsych-btn""><img src=""stimuli/white_square.png"" style=""width: 200px;height: 200px;""></button>","null","brown","red","[""brown"",""red"",""high nameability""]","right-left","[""red"",""brown""]","1","high nameability","5","right","iti",""
"html-button-response","41","278554","0.0-32.0","CKN_141","141","","","","","","3820","","0","brown","blue","[""brown"",""blue"",""high nameability""]","right-left","[""blue"",""brown""]","1","high nameability","6","right","trigger",""
"html-button-response","42","279764","0.0-33.0-0.0","CKN_141","141","","","","","","1205","<button class=""jspsych-btn""><img src=""stimuli/brown.png"" style=""width: 200px;height: 200px;""></button>","1","brown","blue","[""brown"",""blue"",""high nameability""]","right-left","[""blue"",""brown""]","1","high nameability","6","right","response","1"
"html-audio-button-response","43","279966","0.0-33.0-1.0","CKN_141","141","","","","","","null","stimuli/bleep.m4a","null","brown","blue","[""brown"",""blue"",""high nameability""]","right-left","[""blue"",""brown""]","1","high nameability","6","right","audio_feedback","1"
"html-button-response","44","280479","0.0-34.0","CKN_141","141","","","","","","null","<button class=""jspsych-btn""><img src=""stimuli/white_square.png"" style=""width: 200px;height: 200px;""></button>","null","brown","blue","[""brown"",""blue"",""high nameability""]","right-left","[""blue"",""brown""]","1","high nameability","6","right","iti",""
"html-button-response","45","282807","0.0-35.0","CKN_141","141","","","","","","2315","","0","lightred","neonyellow","[""lightred"",""neonyellow"",""low nameability""]","right-left","[""neonyellow"",""lightred""]","1","low nameability","7","right","trigger",""
"html-button-response","46","283799","0.0-36.0-0.0","CKN_141","141","","","","","","983","<button class=""jspsych-btn""><img src=""stimuli/lightred.png"" style=""width: 200px;height: 200px;""></button>","1","lightred","neonyellow","[""lightred"",""neonyellow"",""low nameability""]","right-left","[""neonyellow"",""lightred""]","1","low nameability","7","right","response","1"
"html-audio-button-response","47","284011","0.0-36.0-1.0","CKN_141","141","","","","","","null","stimuli/bleep.m4a","null","lightred","neonyellow","[""lightred"",""neonyellow"",""low nameability""]","right-left","[""neonyellow"",""lightred""]","1","low nameability","7","right","audio_feedback","1"
"html-button-response","48","284526","0.0-37.0","CKN_141","141","","","","","","null","<button class=""jspsych-btn""><img src=""stimuli/white_square.png"" style=""width: 200px;height: 200px;""></button>","null","lightred","neonyellow","[""lightred"",""neonyellow"",""low nameability""]","right-left","[""neonyellow"",""lightred""]","1","low nameability","7","right","iti",""
"html-button-response","49","285711","0.0-38.0","CKN_141","141","","","","","","1175","","0","neonyellow","lightred","[""neonyellow"",""lightred"",""low nameability""]","right-left","[""lightred"",""neonyellow""]","1","low nameability","8","right","trigger",""
"html-button-response","50","286697","0.0-39.0-0.0","CKN_141","141","","","","","","979","<button class=""jspsych-btn""><img src=""stimuli/neonyellow.png"" style=""width: 200px;height: 200px;""></button>","1","neonyellow","lightred","[""neonyellow"",""lightred"",""low nameability""]","right-left","[""lightred"",""neonyellow""]","1","low nameability","8","right","response","1"
"html-audio-button-response","51","286897","0.0-39.0-1.0","CKN_141","141","","","","","","null","stimuli/bleep.m4a","null","neonyellow","lightred","[""neonyellow"",""lightred"",""low nameability""]","right-left","[""lightred"",""neonyellow""]","1","low nameability","8","right","audio_feedback","1"
"html-button-response","52","287410","0.0-40.0","CKN_141","141","","","","","","null","<button class=""jspsych-btn""><img src=""stimuli/white_square.png"" style=""width: 200px;height: 200px;""></button>","null","neonyellow","lightred","[""neonyellow"",""lightred"",""low nameability""]","right-left","[""lightred"",""neonyellow""]","1","low nameability","8","right","iti",""
"html-button-response","53","288741","0.0-41.0","CKN_141","141","","","","","","1319","","0","mustard","pink","[""mustard"",""pink"",""low nameability""]","right-left","[""pink"",""mustard""]","1","low nameability","9","right","trigger",""
"html-button-response","54","289679","0.0-42.0-0.0","CKN_141","141","","","","","","930","<button class=""jspsych-btn""><img src=""stimuli/mustard.png"" style=""width: 200px;height: 200px;""></button>","1","mustard","pink","[""mustard"",""pink"",""low nameability""]","right-left","[""pink"",""mustard""]","1","low nameability","9","right","response","1"
"html-audio-button-response","55","289882","0.0-42.0-1.0","CKN_141","141","","","","","","null","stimuli/bleep.m4a","null","mustard","pink","[""mustard"",""pink"",""low nameability""]","right-left","[""pink"",""mustard""]","1","low nameability","9","right","audio_feedback","1"
"html-button-response","56","290394","0.0-43.0","CKN_141","141","","","","","","null","<button class=""jspsych-btn""><img src=""stimuli/white_square.png"" style=""width: 200px;height: 200px;""></button>","null","mustard","pink","[""mustard"",""pink"",""low nameability""]","right-left","[""pink"",""mustard""]","1","low nameability","9","right","iti",""
"html-button-response","57","291470","0.0-44.0","CKN_141","141","","","","","","1066","","0","blue","yellow","[""blue"",""yellow"",""high nameability""]","left-right","[""blue"",""yellow"",""high nameability""]","1","high nameability","10","left","trigger",""
"html-button-response","58","292220","0.0-45.0-0.0","CKN_141","141","","","","","","744","<button class=""jspsych-btn""><img src=""stimuli/blue.png"" style=""width: 200px;height: 200px;""></button>","1","blue","yellow","[""blue"",""yellow"",""high nameability""]","left-right","[""blue"",""yellow"",""high nameability""]","1","high nameability","10","left","response","0"
"html-audio-button-response","59","292843","0.0-45.0-1.0","CKN_141","141","","","","","","null","stimuli/boing.m4a","null","blue","yellow","[""blue"",""yellow"",""high nameability""]","left-right","[""blue"",""yellow"",""high nameability""]","1","high nameability","10","left","audio_feedback","0"
"html-button-response","60","296045","0.0-45.1-0.1","CKN_141","141","","","","","","3193","<button class=""jspsych-btn""><img src=""stimuli/blue.png"" style=""width: 200px;height: 200px;""></button>","0","blue","yellow","[""blue"",""yellow"",""high nameability""]","left-right","[""blue"",""yellow"",""high nameability""]","1","high nameability","10","left","response","1"
"html-audio-button-response","61","296248","0.0-45.1-1.1","CKN_141","141","","","","","","null","stimuli/bleep.m4a","null","blue","yellow","[""blue"",""yellow"",""high nameability""]","left-right","[""blue"",""yellow"",""high nameability""]","1","high nameability","10","left","audio_feedback","1"
"html-button-response","62","296771","0.0-46.0","CKN_141","141","","","","","","null","<button class=""jspsych-btn""><img src=""stimuli/white_square.png"" style=""width: 200px;height: 200px;""></button>","null","blue","yellow","[""blue"",""yellow"",""high nameability""]","left-right","[""blue"",""yellow"",""high nameability""]","1","high nameability","10","left","iti",""
"pavlovia","63","296847","0.0-47.0","CKN_141","141","","","","","","","","","","","","","","","","","","",""
"pavlovia","64","296856","0.0-48.0","CKN_141","141","","","","","","","","","","","","","","","","","","",""
"html-audio-button-response","65","301474","0.0-49.0","CKN_141","141","","","","","","4696","stimuli/tada.m4a","0","","","","","","","","","","",""
"html-button-response","66","301969","0.0-50.0","CKN_141","141","","","","","","487","","0","","","","","","","","","","",""
"html-button-response","67","303388","0.0-51.0","CKN_141","141","","","","","","1413","","0","neonyellow","darkgreenblue","[""neonyellow"",""darkgreenblue"",""low nameability""]","right-left","[""darkgreenblue"",""neonyellow""]","2","low nameability","11","right","trigger",""
"html-button-response","68","305410","0.0-52.0-0.0","CKN_141","141","","","","","","2012","<button class=""jspsych-btn""><img src=""stimuli/neonyellow.png"" style=""width: 200px;height: 200px;""></button>","1","neonyellow","darkgreenblue","[""neonyellow"",""darkgreenblue"",""low nameability""]","right-left","[""darkgreenblue"",""neonyellow""]","2","low nameability","11","right","response","1"
"html-audio-button-response","69","305618","0.0-52.0-1.0","CKN_141","141","","","","","","null","stimuli/bleep.m4a","null","neonyellow","darkgreenblue","[""neonyellow"",""darkgreenblue"",""low nameability""]","right-left","[""darkgreenblue"",""neonyellow""]","2","low nameability","11","right","audio_feedback","1"
"html-button-response","70","306134","0.0-53.0","CKN_141","141","","","","","","null","<button class=""jspsych-btn""><img src=""stimuli/white_square.png"" style=""width: 200px;height: 200px;""></button>","null","neonyellow","darkgreenblue","[""neonyellow"",""darkgreenblue"",""low nameability""]","right-left","[""darkgreenblue"",""neonyellow""]","2","low nameability","11","right","iti",""
"html-button-response","71","308835","0.0-54.0","CKN_141","141","","","","","","2688","","0","pink","neonyellow","[""pink"",""neonyellow"",""low nameability""]","left-right","[""pink"",""neonyellow"",""low nameability""]","2","low nameability","12","left","trigger",""
"html-button-response","72","316652","0.0-55.0-0.0","CKN_141","141","","","","","","7808","<button class=""jspsych-btn""><img src=""stimuli/pink.png"" style=""width: 200px;height: 200px;""></button>","0","pink","neonyellow","[""pink"",""neonyellow"",""low nameability""]","left-right","[""pink"",""neonyellow"",""low nameability""]","2","low nameability","12","left","response","1"
"html-audio-button-response","73","316856","0.0-55.0-1.0","CKN_141","141","","","","","","null","stimuli/bleep.m4a","null","pink","neonyellow","[""pink"",""neonyellow"",""low nameability""]","left-right","[""pink"",""neonyellow"",""low nameability""]","2","low nameability","12","left","audio_feedback","1"
"html-button-response","74","317371","0.0-56.0","CKN_141","141","","","","","","null","<button class=""jspsych-btn""><img src=""stimuli/white_square.png"" style=""width: 200px;height: 200px;""></button>","null","pink","neonyellow","[""pink"",""neonyellow"",""low nameability""]","left-right","[""pink"",""neonyellow"",""low nameability""]","2","low nameability","12","left","iti",""
"html-button-response","75","318665","0.0-57.0","CKN_141","141","","","","","","1282","","0","orange","purple","[""orange"",""purple"",""high nameability""]","right-left","[""purple"",""orange""]","2","high nameability","13","right","trigger",""
"html-button-response","76","320150","0.0-58.0-0.0","CKN_141","141","","","","","","1477","<button class=""jspsych-btn""><img src=""stimuli/orange.png"" style=""width: 200px;height: 200px;""></button>","1","orange","purple","[""orange"",""purple"",""high nameability""]","right-left","[""purple"",""orange""]","2","high nameability","13","right","response","1"
"html-audio-button-response","77","320349","0.0-58.0-1.0","CKN_141","141","","","","","","null","stimuli/bleep.m4a","null","orange","purple","[""orange"",""purple"",""high nameability""]","right-left","[""purple"",""orange""]","2","high nameability","13","right","audio_feedback","1"
"html-button-response","78","320861","0.0-59.0","CKN_141","141","","","","","","null","<button class=""jspsych-btn""><img src=""stimuli/white_square.png"" style=""width: 200px;height: 200px;""></button>","null","orange","purple","[""orange"",""purple"",""high nameability""]","right-left","[""purple"",""orange""]","2","high nameability","13","right","iti",""
"html-button-response","79","322211","0.0-60.0","CKN_141","141","","","","","","1336","","0","yellow","red","[""yellow"",""red"",""high nameability""]","right-left","[""red"",""yellow""]","2","high nameability","14","right","trigger",""
"html-button-response","80","323760","0.0-61.0-0.0","CKN_141","141","","","","","","1539","<button class=""jspsych-btn""><img src=""stimuli/yellow.png"" style=""width: 200px;height: 200px;""></button>","1","yellow","red","[""yellow"",""red"",""high nameability""]","right-left","[""red"",""yellow""]","2","high nameability","14","right","response","1"
"html-audio-button-response","81","323964","0.0-61.0-1.0","CKN_141","141","","","","","","null","stimuli/bleep.m4a","null","yellow","red","[""yellow"",""red"",""high nameability""]","right-left","[""red"",""yellow""]","2","high nameability","14","right","audio_feedback","1"
"html-button-response","82","324474","0.0-62.0","CKN_141","141","","","","","","null","<button class=""jspsych-btn""><img src=""stimuli/white_square.png"" style=""width: 200px;height: 200px;""></button>","null","yellow","red","[""yellow"",""red"",""high nameability""]","right-left","[""red"",""yellow""]","2","high nameability","14","right","iti",""
"html-button-response","83","325782","0.0-63.0","CKN_141","141","","","","","","1295","","0","blue","purple","[""blue"",""purple"",""high nameability""]","left-right","[""blue"",""purple"",""high nameability""]","2","high nameability","15","left","trigger",""
"html-button-response","84","327490","0.0-64.0-0.0","CKN_141","141","","","","","","1703","<button class=""jspsych-btn""><img src=""stimuli/blue.png"" style=""width: 200px;height: 200px;""></button>","0","blue","purple","[""blue"",""purple"",""high nameability""]","left-right","[""blue"",""purple"",""high nameability""]","2","high nameability","15","left","response","1"
"html-audio-button-response","85","327698","0.0-64.0-1.0","CKN_141","141","","","","","","null","stimuli/bleep.m4a","null","blue","purple","[""blue"",""purple"",""high nameability""]","left-right","[""blue"",""purple"",""high nameability""]","2","high nameability","15","left","audio_feedback","1"
"html-button-response","86","328213","0.0-65.0","CKN_141","141","","","","","","null","<button class=""jspsych-btn""><img src=""stimuli/white_square.png"" style=""width: 200px;height: 200px;""></button>","null","blue","purple","[""blue"",""purple"",""high nameability""]","left-right","[""blue"",""purple"",""high nameability""]","2","high nameability","15","left","iti",""
"html-button-response","87","330876","0.0-66.0","CKN_141","141","","","","","","2649","","0","lightred","mustard","[""lightred"",""mustard"",""low nameability""]","right-left","[""mustard"",""lightred""]","2","low nameability","16","right","trigger",""
"html-button-response","88","332903","0.0-67.0-0.0","CKN_141","141","","","","","","2020","<button class=""jspsych-btn""><img src=""stimuli/lightred.png"" style=""width: 200px;height: 200px;""></button>","1","lightred","mustard","[""lightred"",""mustard"",""low nameability""]","right-left","[""mustard"",""lightred""]","2","low nameability","16","right","response","1"
"html-audio-button-response","89","333107","0.0-67.0-1.0","CKN_141","141","","","","","","null","stimuli/bleep.m4a","null","lightred","mustard","[""lightred"",""mustard"",""low nameability""]","right-left","[""mustard"",""lightred""]","2","low nameability","16","right","audio_feedback","1"
"html-button-response","90","333618","0.0-68.0","CKN_141","141","","","","","","null","<button class=""jspsych-btn""><img src=""stimuli/white_square.png"" style=""width: 200px;height: 200px;""></button>","null","lightred","mustard","[""lightred"",""mustard"",""low nameability""]","right-left","[""mustard"",""lightred""]","2","low nameability","16","right","iti",""
"html-button-response","91","334793","0.0-69.0","CKN_141","141","","","","","","1162","","0","pink","lightred","[""pink"",""lightred"",""low nameability""]","left-right","[""pink"",""lightred"",""low nameability""]","2","low nameability","17","left","trigger",""
"html-button-response","92","340337","0.0-70.0-0.0","CKN_141","141","","","","","","5538","<button class=""jspsych-btn""><img src=""stimuli/pink.png"" style=""width: 200px;height: 200px;""></button>","0","pink","lightred","[""pink"",""lightred"",""low nameability""]","left-right","[""pink"",""lightred"",""low nameability""]","2","low nameability","17","left","response","1"
"html-audio-button-response","93","340541","0.0-70.0-1.0","CKN_141","141","","","","","","null","stimuli/bleep.m4a","null","pink","lightred","[""pink"",""lightred"",""low nameability""]","left-right","[""pink"",""lightred"",""low nameability""]","2","low nameability","17","left","audio_feedback","1"
"html-button-response","94","341056","0.0-71.0","CKN_141","141","","","","","","null","<button class=""jspsych-btn""><img src=""stimuli/white_square.png"" style=""width: 200px;height: 200px;""></button>","null","pink","lightred","[""pink"",""lightred"",""low nameability""]","left-right","[""pink"",""lightred"",""low nameability""]","2","low nameability","17","left","iti",""
"html-button-response","95","342418","0.0-72.0","CKN_141","141","","","","","","1348","","0","orange","blue","[""orange"",""blue"",""high nameability""]","right-left","[""blue"",""orange""]","2","high nameability","18","right","trigger",""
"html-button-response","96","344378","0.0-73.0-0.0","CKN_141","141","","","","","","1951","<button class=""jspsych-btn""><img src=""stimuli/orange.png"" style=""width: 200px;height: 200px;""></button>","1","orange","blue","[""orange"",""blue"",""high nameability""]","right-left","[""blue"",""orange""]","2","high nameability","18","right","response","1"
"html-audio-button-response","97","344586","0.0-73.0-1.0","CKN_141","141","","","","","","null","stimuli/bleep.m4a","null","orange","blue","[""orange"",""blue"",""high nameability""]","right-left","[""blue"",""orange""]","2","high nameability","18","right","audio_feedback","1"
"html-button-response","98","345110","0.0-74.0","CKN_141","141","","","","","","null","<button class=""jspsych-btn""><img src=""stimuli/white_square.png"" style=""width: 200px;height: 200px;""></button>","null","orange","blue","[""orange"",""blue"",""high nameability""]","right-left","[""blue"",""orange""]","2","high nameability","18","right","iti",""
"html-button-response","99","346981","0.0-75.0","CKN_141","141","","","","","","1856","","0","yellow","orange","[""yellow"",""orange"",""high nameability""]","left-right","[""yellow"",""orange"",""high nameability""]","2","high nameability","19","left","trigger",""
"html-button-response","100","348465","0.0-76.0-0.0","CKN_141","141","","","","","","1478","<button class=""jspsych-btn""><img src=""stimuli/yellow.png"" style=""width: 200px;height: 200px;""></button>","0","yellow","orange","[""yellow"",""orange"",""high nameability""]","left-right","[""yellow"",""orange"",""high nameability""]","2","high nameability","19","left","response","1"
"html-audio-button-response","101","348672","0.0-76.0-1.0","CKN_141","141","","","","","","null","stimuli/bleep.m4a","null","yellow","orange","[""yellow"",""orange"",""high nameability""]","left-right","[""yellow"",""orange"",""high nameability""]","2","high nameability","19","left","audio_feedback","1"
"html-button-response","102","349187","0.0-77.0","CKN_141","141","","","","","","null","<button class=""jspsych-btn""><img src=""stimuli/white_square.png"" style=""width: 200px;height: 200px;""></button>","null","yellow","orange","[""yellow"",""orange"",""high nameability""]","left-right","[""yellow"",""orange"",""high nameability""]","2","high nameability","19","left","iti",""
"html-button-response","103","351484","0.0-78.0","CKN_141","141","","","","","","2281","","0","blue","orange","[""blue"",""orange"",""high nameability""]","right-left","[""orange"",""blue""]","2","high nameability","20","right","trigger",""
"html-button-response","104","352962","0.0-79.0-0.0","CKN_141","141","","","","","","1470","<button class=""jspsych-btn""><img src=""stimuli/blue.png"" style=""width: 200px;height: 200px;""></button>","1","blue","orange","[""blue"",""orange"",""high nameability""]","right-left","[""orange"",""blue""]","2","high nameability","20","right","response","1"
"html-audio-button-response","105","353171","0.0-79.0-1.0","CKN_141","141","","","","","","null","stimuli/bleep.m4a","null","blue","orange","[""blue"",""orange"",""high nameability""]","right-left","[""orange"",""blue""]","2","high nameability","20","right","audio_feedback","1"
"html-button-response","106","353682","0.0-80.0","CKN_141","141","","","","","","null","<button class=""jspsych-btn""><img src=""stimuli/white_square.png"" style=""width: 200px;height: 200px;""></button>","null","blue","orange","[""blue"",""orange"",""high nameability""]","right-left","[""orange"",""blue""]","2","high nameability","20","right","iti",""
"pavlovia","107","353729","0.0-81.0","CKN_141","141","","","","","","","","","","","","","","","","","","",""
"pavlovia","108","353738","0.0-82.0","CKN_141","141","","","","","","","","","","","","","","","","","","",""
"html-audio-button-response","109","357763","0.0-83.0","CKN_141","141","","","","","","4075","stimuli/tada.m4a","0","","","","","","","","","","",""
"html-button-response","110","358466","0.0-84.0","CKN_141","141","","","","","","697","","0","","","","","","","","","","",""
"html-button-response","111","359707","0.0-85.0","CKN_141","141","","","","","","1233","","0","purple","red","[""purple"",""red"",""high nameability""]","left-right","[""purple"",""red"",""high nameability""]","3","high nameability","21","left","trigger",""
"html-button-response","112","364567","0.0-86.0-0.0","CKN_141","141","","","","","","4852","<button class=""jspsych-btn""><img src=""stimuli/purple.png"" style=""width: 200px;height: 200px;""></button>","0","purple","red","[""purple"",""red"",""high nameability""]","left-right","[""purple"",""red"",""high nameability""]","3","high nameability","21","left","response","1"
"html-audio-button-response","113","364764","0.0-86.0-1.0","CKN_141","141","","","","","","null","stimuli/bleep.m4a","null","purple","red","[""purple"",""red"",""high nameability""]","left-right","[""purple"",""red"",""high nameability""]","3","high nameability","21","left","audio_feedback","1"
"html-button-response","114","365280","0.0-87.0","CKN_141","141","","","","","","null","<button class=""jspsych-btn""><img src=""stimuli/white_square.png"" style=""width: 200px;height: 200px;""></button>","null","purple","red","[""purple"",""red"",""high nameability""]","left-right","[""purple"",""red"",""high nameability""]","3","high nameability","21","left","iti",""
"html-button-response","115","366257","0.0-88.0","CKN_141","141","","","","","","961","","0","darkgreenblue","turquoise","[""darkgreenblue"",""turquoise"",""low nameability""]","left-right","[""darkgreenblue"",""turquoise"",""low nameability""]","3","low nameability","22","left","trigger",""
"html-button-response","116","370391","0.0-89.0-0.0","CKN_141","141","","","","","","4125","<button class=""jspsych-btn""><img src=""stimuli/darkgreenblue.png"" style=""width: 200px;height: 200px;""></button>","0","darkgreenblue","turquoise","[""darkgreenblue"",""turquoise"",""low nameability""]","left-right","[""darkgreenblue"",""turquoise"",""low nameability""]","3","low nameability","22","left","response","1"
"html-audio-button-response","117","370595","0.0-89.0-1.0","CKN_141","141","","","","","","null","stimuli/bleep.m4a","null","darkgreenblue","turquoise","[""darkgreenblue"",""turquoise"",""low nameability""]","left-right","[""darkgreenblue"",""turquoise"",""low nameability""]","3","low nameability","22","left","audio_feedback","1"
"html-button-response","118","371113","0.0-90.0","CKN_141","141","","","","","","null","<button class=""jspsych-btn""><img src=""stimuli/white_square.png"" style=""width: 200px;height: 200px;""></button>","null","darkgreenblue","turquoise","[""darkgreenblue"",""turquoise"",""low nameability""]","left-right","[""darkgreenblue"",""turquoise"",""low nameability""]","3","low nameability","22","left","iti",""
"html-button-response","119","372220","0.0-91.0","CKN_141","141","","","","","","1095","","0","mustard","neonyellow","[""mustard"",""neonyellow"",""low nameability""]","right-left","[""neonyellow"",""mustard""]","3","low nameability","23","right","trigger",""
"html-button-response","120","374464","0.0-92.0-0.0","CKN_141","141","","","","","","2236","<button class=""jspsych-btn""><img src=""stimuli/mustard.png"" style=""width: 200px;height: 200px;""></button>","1","mustard","neonyellow","[""mustard"",""neonyellow"",""low nameability""]","right-left","[""neonyellow"",""mustard""]","3","low nameability","23","right","response","1"
"html-audio-button-response","121","374671","0.0-92.0-1.0","CKN_141","141","","","","","","null","stimuli/bleep.m4a","null","mustard","neonyellow","[""mustard"",""neonyellow"",""low nameability""]","right-left","[""neonyellow"",""mustard""]","3","low nameability","23","right","audio_feedback","1"
"html-button-response","122","375193","0.0-93.0","CKN_141","141","","","","","","null","<button class=""jspsych-btn""><img src=""stimuli/white_square.png"" style=""width: 200px;height: 200px;""></button>","null","mustard","neonyellow","[""mustard"",""neonyellow"",""low nameability""]","right-left","[""neonyellow"",""mustard""]","3","low nameability","23","right","iti",""
"html-button-response","123","376099","0.0-94.0","CKN_141","141","","","","","","895","","0","purple","blue","[""purple"",""blue"",""high nameability""]","left-right","[""purple"",""blue"",""high nameability""]","3","high nameability","24","left","trigger",""
"html-button-response","124","380753","0.0-95.0-0.0","CKN_141","141","","","","","","4647","<button class=""jspsych-btn""><img src=""stimuli/purple.png"" style=""width: 200px;height: 200px;""></button>","0","purple","blue","[""purple"",""blue"",""high nameability""]","left-right","[""purple"",""blue"",""high nameability""]","3","high nameability","24","left","response","1"
"html-audio-button-response","125","380959","0.0-95.0-1.0","CKN_141","141","","","","","","null","stimuli/bleep.m4a","null","purple","blue","[""purple"",""blue"",""high nameability""]","left-right","[""purple"",""blue"",""high nameability""]","3","high nameability","24","left","audio_feedback","1"
"html-button-response","126","381472","0.0-96.0","CKN_141","141","","","","","","null","<button class=""jspsych-btn""><img src=""stimuli/white_square.png"" style=""width: 200px;height: 200px;""></button>","null","purple","blue","[""purple"",""blue"",""high nameability""]","left-right","[""purple"",""blue"",""high nameability""]","3","high nameability","24","left","iti",""
"html-button-response","127","382540","0.0-97.0","CKN_141","141","","","","","","1054","","0","red","orange","[""red"",""orange"",""high nameability""]","left-right","[""red"",""orange"",""high nameability""]","3","high nameability","25","left","trigger",""
"html-button-response","128","385127","0.0-98.0-0.0","CKN_141","141","","","","","","2574","<button class=""jspsych-btn""><img src=""stimuli/red.png"" style=""width: 200px;height: 200px;""></button>","0","red","orange","[""red"",""orange"",""high nameability""]","left-right","[""red"",""orange"",""high nameability""]","3","high nameability","25","left","response","1"
"html-audio-button-response","129","385328","0.0-98.0-1.0","CKN_141","141","","","","","","null","stimuli/bleep.m4a","null","red","orange","[""red"",""orange"",""high nameability""]","left-right","[""red"",""orange"",""high nameability""]","3","high nameability","25","left","audio_feedback","1"
"html-button-response","130","385837","0.0-99.0","CKN_141","141","","","","","","null","<button class=""jspsych-btn""><img src=""stimuli/white_square.png"" style=""width: 200px;height: 200px;""></button>","null","red","orange","[""red"",""orange"",""high nameability""]","left-right","[""red"",""orange"",""high nameability""]","3","high nameability","25","left","iti",""
"html-button-response","131","387098","0.0-100.0","CKN_141","141","","","","","","1255","","0","purple","orange","[""purple"",""orange"",""high nameability""]","left-right","[""purple"",""orange"",""high nameability""]","3","high nameability","26","left","trigger",""
"html-button-response","132","388904","0.0-101.0-0.0","CKN_141","141","","","","","","1796","<button class=""jspsych-btn""><img src=""stimuli/purple.png"" style=""width: 200px;height: 200px;""></button>","0","purple","orange","[""purple"",""orange"",""high nameability""]","left-right","[""purple"",""orange"",""high nameability""]","3","high nameability","26","left","response","1"
"html-audio-button-response","133","389103","0.0-101.0-1.0","CKN_141","141","","","","","","null","stimuli/bleep.m4a","null","purple","orange","[""purple"",""orange"",""high nameability""]","left-right","[""purple"",""orange"",""high nameability""]","3","high nameability","26","left","audio_feedback","1"
"html-button-response","134","389613","0.0-102.0","CKN_141","141","","","","","","null","<button class=""jspsych-btn""><img src=""stimuli/white_square.png"" style=""width: 200px;height: 200px;""></button>","null","purple","orange","[""purple"",""orange"",""high nameability""]","left-right","[""purple"",""orange"",""high nameability""]","3","high nameability","26","left","iti",""
"html-button-response","135","392487","0.0-103.0","CKN_141","141","","","","","","2868","","0","red","blue","[""red"",""blue"",""high nameability""]","right-left","[""blue"",""red""]","3","high nameability","27","right","trigger",""
"html-button-response","136","394072","0.0-104.0-0.0","CKN_141","141","","","","","","1574","<button class=""jspsych-btn""><img src=""stimuli/red.png"" style=""width: 200px;height: 200px;""></button>","1","red","blue","[""red"",""blue"",""high nameability""]","right-left","[""blue"",""red""]","3","high nameability","27","right","response","1"
"html-audio-button-response","137","394273","0.0-104.0-1.0","CKN_141","141","","","","","","null","stimuli/bleep.m4a","null","red","blue","[""red"",""blue"",""high nameability""]","right-left","[""blue"",""red""]","3","high nameability","27","right","audio_feedback","1"
"html-button-response","138","394794","0.0-105.0","CKN_141","141","","","","","","null","<button class=""jspsych-btn""><img src=""stimuli/white_square.png"" style=""width: 200px;height: 200px;""></button>","null","red","blue","[""red"",""blue"",""high nameability""]","right-left","[""blue"",""red""]","3","high nameability","27","right","iti",""
"html-button-response","139","395771","0.0-106.0","CKN_141","141","","","","","","967","","0","turquoise","darkgreenblue","[""turquoise"",""darkgreenblue"",""low nameability""]","right-left","[""darkgreenblue"",""turquoise""]","3","low nameability","28","right","trigger",""
"html-button-response","140","397398","0.0-107.0-0.0","CKN_141","141","","","","","","1619","<button class=""jspsych-btn""><img src=""stimuli/turquoise.png"" style=""width: 200px;height: 200px;""></button>","1","turquoise","darkgreenblue","[""turquoise"",""darkgreenblue"",""low nameability""]","right-left","[""darkgreenblue"",""turquoise""]","3","low nameability","28","right","response","1"
"html-audio-button-response","141","397603","0.0-107.0-1.0","CKN_141","141","","","","","","null","stimuli/bleep.m4a","null","turquoise","darkgreenblue","[""turquoise"",""darkgreenblue"",""low nameability""]","right-left","[""darkgreenblue"",""turquoise""]","3","low nameability","28","right","audio_feedback","1"
"html-button-response","142","398116","0.0-108.0","CKN_141","141","","","","","","null","<button class=""jspsych-btn""><img src=""stimuli/white_square.png"" style=""width: 200px;height: 200px;""></button>","null","turquoise","darkgreenblue","[""turquoise"",""darkgreenblue"",""low nameability""]","right-left","[""darkgreenblue"",""turquoise""]","3","low nameability","28","right","iti",""
"html-button-response","143","399335","0.0-109.0","CKN_141","141","","","","","","1209","","0","purple","brown","[""purple"",""brown"",""high nameability""]","right-left","[""brown"",""purple""]","3","high nameability","29","right","trigger",""
"html-button-response","144","400558","0.0-110.0-0.0","CKN_141","141","","","","","","1214","<button class=""jspsych-btn""><img src=""stimuli/purple.png"" style=""width: 200px;height: 200px;""></button>","1","purple","brown","[""purple"",""brown"",""high nameability""]","right-left","[""brown"",""purple""]","3","high nameability","29","right","response","1"
"html-audio-button-response","145","400759","0.0-110.0-1.0","CKN_141","141","","","","","","null","stimuli/bleep.m4a","null","purple","brown","[""purple"",""brown"",""high nameability""]","right-left","[""brown"",""purple""]","3","high nameability","29","right","audio_feedback","1"
"html-button-response","146","401278","0.0-111.0","CKN_141","141","","","","","","null","<button class=""jspsych-btn""><img src=""stimuli/white_square.png"" style=""width: 200px;height: 200px;""></button>","null","purple","brown","[""purple"",""brown"",""high nameability""]","right-left","[""brown"",""purple""]","3","high nameability","29","right","iti",""
"html-button-response","147","402458","0.0-112.0","CKN_141","141","","","","","","1170","","0","turquoise","pink","[""turquoise"",""pink"",""low nameability""]","right-left","[""pink"",""turquoise""]","3","low nameability","30","right","trigger",""
"html-button-response","148","405077","0.0-113.0-0.0","CKN_141","141","","","","","","2612","<button class=""jspsych-btn""><img src=""stimuli/turquoise.png"" style=""width: 200px;height: 200px;""></button>","1","turquoise","pink","[""turquoise"",""pink"",""low nameability""]","right-left","[""pink"",""turquoise""]","3","low nameability","30","right","response","1"
"html-audio-button-response","149","405282","0.0-113.0-1.0","CKN_141","141","","","","","","null","stimuli/bleep.m4a","null","turquoise","pink","[""turquoise"",""pink"",""low nameability""]","right-left","[""pink"",""turquoise""]","3","low nameability","30","right","audio_feedback","1"
"html-button-response","150","405794","0.0-114.0","CKN_141","141","","","","","","137","<button class=""jspsych-btn""><img src=""stimuli/white_square.png"" style=""width: 200px;height: 200px;""></button>","1","turquoise","pink","[""turquoise"",""pink"",""low nameability""]","right-left","[""pink"",""turquoise""]","3","low nameability","30","right","iti",""
"pavlovia","151","405833","0.0-115.0","CKN_141","141","","","","","","","","","","","","","","","","","","",""
"pavlovia","152","405838","0.0-116.0","CKN_141","141","","","","","","","","","","","","","","","","","","",""
"html-audio-button-response","153","411636","0.0-117.0","CKN_141","141","","","","","","5832","stimuli/tada.m4a","0","","","","","","","","","","",""
"html-button-response","154","412160","0.0-118.0","CKN_141","141","","","","","","510","","0","","","","","","","","","","",""
"html-button-response","155","413332","0.0-119.0","CKN_141","141","","","","","","1156","","0","turquoise","neonyellow","[""turquoise"",""neonyellow"",""low nameability""]","left-right","[""turquoise"",""neonyellow"",""low nameability""]","4","low nameability","31","left","trigger",""
"html-button-response","156","415643","0.0-120.0-0.0","CKN_141","141","","","","","","2295","<button class=""jspsych-btn""><img src=""stimuli/turquoise.png"" style=""width: 200px;height: 200px;""></button>","0","turquoise","neonyellow","[""turquoise"",""neonyellow"",""low nameability""]","left-right","[""turquoise"",""neonyellow"",""low nameability""]","4","low nameability","31","left","response","1"
"html-audio-button-response","157","415850","0.0-120.0-1.0","CKN_141","141","","","","","","null","stimuli/bleep.m4a","null","turquoise","neonyellow","[""turquoise"",""neonyellow"",""low nameability""]","left-right","[""turquoise"",""neonyellow"",""low nameability""]","4","low nameability","31","left","audio_feedback","1"
"html-button-response","158","416375","0.0-121.0","CKN_141","141","","","","","","null","<button class=""jspsych-btn""><img src=""stimuli/white_square.png"" style=""width: 200px;height: 200px;""></button>","null","turquoise","neonyellow","[""turquoise"",""neonyellow"",""low nameability""]","left-right","[""turquoise"",""neonyellow"",""low nameability""]","4","low nameability","31","left","iti",""
"html-button-response","159","418137","0.0-122.0","CKN_141","141","","","","","","1750","","0","red","purple","[""red"",""purple"",""high nameability""]","left-right","[""red"",""purple"",""high nameability""]","4","high nameability","32","left","trigger",""
"html-button-response","160","419234","0.0-123.0-0.0","CKN_141","141","","","","","","1087","<button class=""jspsych-btn""><img src=""stimuli/red.png"" style=""width: 200px;height: 200px;""></button>","0","red","purple","[""red"",""purple"",""high nameability""]","left-right","[""red"",""purple"",""high nameability""]","4","high nameability","32","left","response","1"
"html-audio-button-response","161","419440","0.0-123.0-1.0","CKN_141","141","","","","","","null","stimuli/bleep.m4a","null","red","purple","[""red"",""purple"",""high nameability""]","left-right","[""red"",""purple"",""high nameability""]","4","high nameability","32","left","audio_feedback","1"
"html-button-response","162","419955","0.0-124.0","CKN_141","141","","","","","","null","<button class=""jspsych-btn""><img src=""stimuli/white_square.png"" style=""width: 200px;height: 200px;""></button>","null","red","purple","[""red"",""purple"",""high nameability""]","left-right","[""red"",""purple"",""high nameability""]","4","high nameability","32","left","iti",""
"html-button-response","163","421006","0.0-125.0","CKN_141","141","","","","","","1034","","0","orange","yellow","[""orange"",""yellow"",""high nameability""]","left-right","[""orange"",""yellow"",""high nameability""]","4","high nameability","33","left","trigger",""
"html-button-response","164","424131","0.0-126.0-0.0","CKN_141","141","","","","","","3116","<button class=""jspsych-btn""><img src=""stimuli/orange.png"" style=""width: 200px;height: 200px;""></button>","0","orange","yellow","[""orange"",""yellow"",""high nameability""]","left-right","[""orange"",""yellow"",""high nameability""]","4","high nameability","33","left","response","1"
"html-audio-button-response","165","424337","0.0-126.0-1.0","CKN_141","141","","","","","","null","stimuli/bleep.m4a","null","orange","yellow","[""orange"",""yellow"",""high nameability""]","left-right","[""orange"",""yellow"",""high nameability""]","4","high nameability","33","left","audio_feedback","1"
"html-button-response","166","424866","0.0-127.0","CKN_141","141","","","","","","null","<button class=""jspsych-btn""><img src=""stimuli/white_square.png"" style=""width: 200px;height: 200px;""></button>","null","orange","yellow","[""orange"",""yellow"",""high nameability""]","left-right","[""orange"",""yellow"",""high nameability""]","4","high nameability","33","left","iti",""
"html-button-response","167","425960","0.0-128.0","CKN_141","141","","","","","","1084","","0","darkgreenblue","neonyellow","[""darkgreenblue"",""neonyellow"",""low nameability""]","right-left","[""neonyellow"",""darkgreenblue""]","4","low nameability","34","right","trigger",""
"html-button-response","168","429098","0.0-129.0-0.0","CKN_141","141","","","","","","3128","<button class=""jspsych-btn""><img src=""stimuli/darkgreenblue.png"" style=""width: 200px;height: 200px;""></button>","1","darkgreenblue","neonyellow","[""darkgreenblue"",""neonyellow"",""low nameability""]","right-left","[""neonyellow"",""darkgreenblue""]","4","low nameability","34","right","response","1"
"html-audio-button-response","169","429303","0.0-129.0-1.0","CKN_141","141","","","","","","null","stimuli/bleep.m4a","null","darkgreenblue","neonyellow","[""darkgreenblue"",""neonyellow"",""low nameability""]","right-left","[""neonyellow"",""darkgreenblue""]","4","low nameability","34","right","audio_feedback","1"
"html-button-response","170","429816","0.0-130.0","CKN_141","141","","","","","","null","<button class=""jspsych-btn""><img src=""stimuli/white_square.png"" style=""width: 200px;height: 200px;""></button>","null","darkgreenblue","neonyellow","[""darkgreenblue"",""neonyellow"",""low nameability""]","right-left","[""neonyellow"",""darkgreenblue""]","4","low nameability","34","right","iti",""
"html-button-response","171","432359","0.0-131.0","CKN_141","141","","","","","","2537","","0","pink","turquoise","[""pink"",""turquoise"",""low nameability""]","left-right","[""pink"",""turquoise"",""low nameability""]","4","low nameability","35","left","trigger",""
"html-button-response","172","434735","0.0-132.0-0.0","CKN_141","141","","","","","","2369","<button class=""jspsych-btn""><img src=""stimuli/pink.png"" style=""width: 200px;height: 200px;""></button>","0","pink","turquoise","[""pink"",""turquoise"",""low nameability""]","left-right","[""pink"",""turquoise"",""low nameability""]","4","low nameability","35","left","response","1"
"html-audio-button-response","173","434940","0.0-132.0-1.0","CKN_141","141","","","","","","null","stimuli/bleep.m4a","null","pink","turquoise","[""pink"",""turquoise"",""low nameability""]","left-right","[""pink"",""turquoise"",""low nameability""]","4","low nameability","35","left","audio_feedback","1"
"html-button-response","174","435452","0.0-133.0","CKN_141","141","","","","","","123","<button class=""jspsych-btn""><img src=""stimuli/white_square.png"" style=""width: 200px;height: 200px;""></button>","0","pink","turquoise","[""pink"",""turquoise"",""low nameability""]","left-right","[""pink"",""turquoise"",""low nameability""]","4","low nameability","35","left","iti",""
"html-button-response","175","438359","0.0-134.0","CKN_141","141","","","","","","2896","","0","blue","brown","[""blue"",""brown"",""high nameability""]","right-left","[""brown"",""blue""]","4","high nameability","36","right","trigger",""
"html-button-response","176","439812","0.0-135.0-0.0","CKN_141","141","","","","","","1445","<button class=""jspsych-btn""><img src=""stimuli/blue.png"" style=""width: 200px;height: 200px;""></button>","1","blue","brown","[""blue"",""brown"",""high nameability""]","right-left","[""brown"",""blue""]","4","high nameability","36","right","response","1"
"html-audio-button-response","177","440017","0.0-135.0-1.0","CKN_141","141","","","","","","null","stimuli/bleep.m4a","null","blue","brown","[""blue"",""brown"",""high nameability""]","right-left","[""brown"",""blue""]","4","high nameability","36","right","audio_feedback","1"
"html-button-response","178","440535","0.0-136.0","CKN_141","141","","","","","","null","<button class=""jspsych-btn""><img src=""stimuli/white_square.png"" style=""width: 200px;height: 200px;""></button>","null","blue","brown","[""blue"",""brown"",""high nameability""]","right-left","[""brown"",""blue""]","4","high nameability","36","right","iti",""
"html-button-response","179","442334","0.0-137.0","CKN_141","141","","","","","","1788","","0","red","brown","[""red"",""brown"",""high nameability""]","left-right","[""red"",""brown"",""high nameability""]","4","high nameability","37","left","trigger",""
"html-button-response","180","444335","0.0-138.0-0.0","CKN_141","141","","","","","","1991","<button class=""jspsych-btn""><img src=""stimuli/red.png"" style=""width: 200px;height: 200px;""></button>","0","red","brown","[""red"",""brown"",""high nameability""]","left-right","[""red"",""brown"",""high nameability""]","4","high nameability","37","left","response","1"
"html-audio-button-response","181","444543","0.0-138.0-1.0","CKN_141","141","","","","","","null","stimuli/bleep.m4a","null","red","brown","[""red"",""brown"",""high nameability""]","left-right","[""red"",""brown"",""high nameability""]","4","high nameability","37","left","audio_feedback","1"
"html-button-response","182","445052","0.0-139.0","CKN_141","141","","","","","","93","<button class=""jspsych-btn""><img src=""stimuli/white_square.png"" style=""width: 200px;height: 200px;""></button>","0","red","brown","[""red"",""brown"",""high nameability""]","left-right","[""red"",""brown"",""high nameability""]","4","high nameability","37","left","iti",""
"html-button-response","183","446159","0.0-140.0","CKN_141","141","","","","","","1098","","0","lightred","turquoise","[""lightred"",""turquoise"",""low nameability""]","right-left","[""turquoise"",""lightred""]","4","low nameability","38","right","trigger",""
"html-button-response","184","449094","0.0-141.0-0.0","CKN_141","141","","","","","","2925","<button class=""jspsych-btn""><img src=""stimuli/lightred.png"" style=""width: 200px;height: 200px;""></button>","1","lightred","turquoise","[""lightred"",""turquoise"",""low nameability""]","right-left","[""turquoise"",""lightred""]","4","low nameability","38","right","response","1"
"html-audio-button-response","185","449301","0.0-141.0-1.0","CKN_141","141","","","","","","null","stimuli/bleep.m4a","null","lightred","turquoise","[""lightred"",""turquoise"",""low nameability""]","right-left","[""turquoise"",""lightred""]","4","low nameability","38","right","audio_feedback","1"
"html-button-response","186","449814","0.0-142.0","CKN_141","141","","","","","","null","<button class=""jspsych-btn""><img src=""stimuli/white_square.png"" style=""width: 200px;height: 200px;""></button>","null","lightred","turquoise","[""lightred"",""turquoise"",""low nameability""]","right-left","[""turquoise"",""lightred""]","4","low nameability","38","right","iti",""
"html-button-response","187","451748","0.0-143.0","CKN_141","141","","","","","","1926","","0","darkgreenblue","mustard","[""darkgreenblue"",""mustard"",""low nameability""]","right-left","[""mustard"",""darkgreenblue""]","4","low nameability","39","right","trigger",""
"html-button-response","188","454814","0.0-144.0-0.0","CKN_141","141","","","","","","3059","<button class=""jspsych-btn""><img src=""stimuli/darkgreenblue.png"" style=""width: 200px;height: 200px;""></button>","1","darkgreenblue","mustard","[""darkgreenblue"",""mustard"",""low nameability""]","right-left","[""mustard"",""darkgreenblue""]","4","low nameability","39","right","response","1"
"html-audio-button-response","189","455023","0.0-144.0-1.0","CKN_141","141","","","","","","null","stimuli/bleep.m4a","null","darkgreenblue","mustard","[""darkgreenblue"",""mustard"",""low nameability""]","right-left","[""mustard"",""darkgreenblue""]","4","low nameability","39","right","audio_feedback","1"
"html-button-response","190","455545","0.0-145.0","CKN_141","141","","","","","","null","<button class=""jspsych-btn""><img src=""stimuli/white_square.png"" style=""width: 200px;height: 200px;""></button>","null","darkgreenblue","mustard","[""darkgreenblue"",""mustard"",""low nameability""]","right-left","[""mustard"",""darkgreenblue""]","4","low nameability","39","right","iti",""
"html-button-response","191","456567","0.0-146.0","CKN_141","141","","","","","","1009","","0","blue","red","[""blue"",""red"",""high nameability""]","right-left","[""red"",""blue""]","4","high nameability","40","right","trigger",""
"html-button-response","192","457578","0.0-147.0-0.0","CKN_141","141","","","","","","1004","<button class=""jspsych-btn""><img src=""stimuli/blue.png"" style=""width: 200px;height: 200px;""></button>","1","blue","red","[""blue"",""red"",""high nameability""]","right-left","[""red"",""blue""]","4","high nameability","40","right","response","1"
"html-audio-button-response","193","457777","0.0-147.0-1.0","CKN_141","141","","","","","","null","stimuli/bleep.m4a","null","blue","red","[""blue"",""red"",""high nameability""]","right-left","[""red"",""blue""]","4","high nameability","40","right","audio_feedback","1"
"html-button-response","194","458293","0.0-148.0","CKN_141","141","","","","","","null","<button class=""jspsych-btn""><img src=""stimuli/white_square.png"" style=""width: 200px;height: 200px;""></button>","null","blue","red","[""blue"",""red"",""high nameability""]","right-left","[""red"",""blue""]","4","high nameability","40","right","iti",""
"pavlovia","195","458407","0.0-149.0","CKN_141","141","","","","","","","","","","","","","","","","","","",""
"pavlovia","196","458416","0.0-150.0","CKN_141","141","","","","","","","","","","","","","","","","","","",""
"html-audio-button-response","197","462011","0.0-151.0","CKN_141","141","","","","","","3704","stimuli/tada.m4a","0","","","","","","","","","","",""
"html-button-response","198","462572","0.0-152.0","CKN_141","141","","","","","","555","","0","","","","","","","","","","",""
"html-button-response","199","464824","0.0-153.0","CKN_141","141","","","","","","2242","","0","pink","mustard","[""pink"",""mustard"",""low nameability""]","left-right","[""pink"",""mustard"",""low nameability""]","5","low nameability","41","left","trigger",""
"html-button-response","200","470362","0.0-154.0-0.0","CKN_141","141","","","","","","5526","<button class=""jspsych-btn""><img src=""stimuli/pink.png"" style=""width: 200px;height: 200px;""></button>","0","pink","mustard","[""pink"",""mustard"",""low nameability""]","left-right","[""pink"",""mustard"",""low nameability""]","5","low nameability","41","left","response","1"
"html-audio-button-response","201","470574","0.0-154.0-1.0","CKN_141","141","","","","","","null","stimuli/bleep.m4a","null","pink","mustard","[""pink"",""mustard"",""low nameability""]","left-right","[""pink"",""mustard"",""low nameability""]","5","low nameability","41","left","audio_feedback","1"
"html-button-response","202","471114","0.0-155.0","CKN_141","141","","","","","","null","<button class=""jspsych-btn""><img src=""stimuli/white_square.png"" style=""width: 200px;height: 200px;""></button>","null","pink","mustard","[""pink"",""mustard"",""low nameability""]","left-right","[""pink"",""mustard"",""low nameability""]","5","low nameability","41","left","iti",""
"html-button-response","203","471941","0.0-156.0","CKN_141","141","","","","","","804","","0","brown","orange","[""brown"",""orange"",""high nameability""]","left-right","[""brown"",""orange"",""high nameability""]","5","high nameability","42","left","trigger",""
"html-button-response","204","474199","0.0-157.0-0.0","CKN_141","141","","","","","","2246","<button class=""jspsych-btn""><img src=""stimuli/brown.png"" style=""width: 200px;height: 200px;""></button>","0","brown","orange","[""brown"",""orange"",""high nameability""]","left-right","[""brown"",""orange"",""high nameability""]","5","high nameability","42","left","response","1"
"html-audio-button-response","205","474416","0.0-157.0-1.0","CKN_141","141","","","","","","null","stimuli/bleep.m4a","null","brown","orange","[""brown"",""orange"",""high nameability""]","left-right","[""brown"",""orange"",""high nameability""]","5","high nameability","42","left","audio_feedback","1"
"html-button-response","206","474938","0.0-158.0","CKN_141","141","","","","","","null","<button class=""jspsych-btn""><img src=""stimuli/white_square.png"" style=""width: 200px;height: 200px;""></button>","null","brown","orange","[""brown"",""orange"",""high nameability""]","left-right","[""brown"",""orange"",""high nameability""]","5","high nameability","42","left","iti",""
"html-button-response","207","476523","0.0-159.0","CKN_141","141","","","","","","1577","","0","lightred","darkgreenblue","[""lightred"",""darkgreenblue"",""low nameability""]","right-left","[""darkgreenblue"",""lightred""]","5","low nameability","43","right","trigger",""
"html-button-response","208","478522","0.0-160.0-0.0","CKN_141","141","","","","","","1989","<button class=""jspsych-btn""><img src=""stimuli/lightred.png"" style=""width: 200px;height: 200px;""></button>","1","lightred","darkgreenblue","[""lightred"",""darkgreenblue"",""low nameability""]","right-left","[""darkgreenblue"",""lightred""]","5","low nameability","43","right","response","1"
"html-audio-button-response","209","478728","0.0-160.0-1.0","CKN_141","141","","","","","","null","stimuli/bleep.m4a","null","lightred","darkgreenblue","[""lightred"",""darkgreenblue"",""low nameability""]","right-left","[""darkgreenblue"",""lightred""]","5","low nameability","43","right","audio_feedback","1"
"html-button-response","210","479241","0.0-161.0","CKN_141","141","","","","","","null","<button class=""jspsych-btn""><img src=""stimuli/white_square.png"" style=""width: 200px;height: 200px;""></button>","null","lightred","darkgreenblue","[""lightred"",""darkgreenblue"",""low nameability""]","right-left","[""darkgreenblue"",""lightred""]","5","low nameability","43","right","iti",""
"html-button-response","211","481037","0.0-162.0","CKN_141","141","","","","","","1787","","0","darkgreenblue","pink","[""darkgreenblue"",""pink"",""low nameability""]","right-left","[""pink"",""darkgreenblue""]","5","low nameability","44","right","trigger",""
"html-button-response","212","483354","0.0-163.0-0.0","CKN_141","141","","","","","","2308","<button class=""jspsych-btn""><img src=""stimuli/darkgreenblue.png"" style=""width: 200px;height: 200px;""></button>","1","darkgreenblue","pink","[""darkgreenblue"",""pink"",""low nameability""]","right-left","[""pink"",""darkgreenblue""]","5","low nameability","44","right","response","1"
"html-audio-button-response","213","483560","0.0-163.0-1.0","CKN_141","141","","","","","","null","stimuli/bleep.m4a","null","darkgreenblue","pink","[""darkgreenblue"",""pink"",""low nameability""]","right-left","[""pink"",""darkgreenblue""]","5","low nameability","44","right","audio_feedback","1"
"html-button-response","214","484074","0.0-164.0","CKN_141","141","","","","","","null","<button class=""jspsych-btn""><img src=""stimuli/white_square.png"" style=""width: 200px;height: 200px;""></button>","null","darkgreenblue","pink","[""darkgreenblue"",""pink"",""low nameability""]","right-left","[""pink"",""darkgreenblue""]","5","low nameability","44","right","iti",""
"html-button-response","215","484883","0.0-165.0","CKN_141","141","","","","","","802","","0","turquoise","lightred","[""turquoise"",""lightred"",""low nameability""]","left-right","[""turquoise"",""lightred"",""low nameability""]","5","low nameability","45","left","trigger",""
"html-button-response","216","486862","0.0-166.0-0.0","CKN_141","141","","","","","","1966","<button class=""jspsych-btn""><img src=""stimuli/turquoise.png"" style=""width: 200px;height: 200px;""></button>","0","turquoise","lightred","[""turquoise"",""lightred"",""low nameability""]","left-right","[""turquoise"",""lightred"",""low nameability""]","5","low nameability","45","left","response","1"
"html-audio-button-response","217","487061","0.0-166.0-1.0","CKN_141","141","","","","","","null","stimuli/bleep.m4a","null","turquoise","lightred","[""turquoise"",""lightred"",""low nameability""]","left-right","[""turquoise"",""lightred"",""low nameability""]","5","low nameability","45","left","audio_feedback","1"
"html-button-response","218","487572","0.0-167.0","CKN_141","141","","","","","","127","<button class=""jspsych-btn""><img src=""stimuli/white_square.png"" style=""width: 200px;height: 200px;""></button>","0","turquoise","lightred","[""turquoise"",""lightred"",""low nameability""]","left-right","[""turquoise"",""lightred"",""low nameability""]","5","low nameability","45","left","iti",""
"html-button-response","219","488790","0.0-168.0","CKN_141","141","","","","","","1207","","0","yellow","blue","[""yellow"",""blue"",""high nameability""]","left-right","[""yellow"",""blue"",""high nameability""]","5","high nameability","46","left","trigger",""
"html-button-response","220","489959","0.0-169.0-0.0","CKN_141","141","","","","","","1159","<button class=""jspsych-btn""><img src=""stimuli/yellow.png"" style=""width: 200px;height: 200px;""></button>","0","yellow","blue","[""yellow"",""blue"",""high nameability""]","left-right","[""yellow"",""blue"",""high nameability""]","5","high nameability","46","left","response","1"
"html-audio-button-response","221","490174","0.0-169.0-1.0","CKN_141","141","","","","","","null","stimuli/bleep.m4a","null","yellow","blue","[""yellow"",""blue"",""high nameability""]","left-right","[""yellow"",""blue"",""high nameability""]","5","high nameability","46","left","audio_feedback","1"
"html-button-response","222","490686","0.0-170.0","CKN_141","141","","","","","","null","<button class=""jspsych-btn""><img src=""stimuli/white_square.png"" style=""width: 200px;height: 200px;""></button>","null","yellow","blue","[""yellow"",""blue"",""high nameability""]","left-right","[""yellow"",""blue"",""high nameability""]","5","high nameability","46","left","iti",""
"html-button-response","223","491904","0.0-171.0","CKN_141","141","","","","","","1205","","0","brown","yellow","[""brown"",""yellow"",""high nameability""]","left-right","[""brown"",""yellow"",""high nameability""]","5","high nameability","47","left","trigger",""
"html-button-response","224","493041","0.0-172.0-0.0","CKN_141","141","","","","","","1130","<button class=""jspsych-btn""><img src=""stimuli/brown.png"" style=""width: 200px;height: 200px;""></button>","0","brown","yellow","[""brown"",""yellow"",""high nameability""]","left-right","[""brown"",""yellow"",""high nameability""]","5","high nameability","47","left","response","1"
"html-audio-button-response","225","493246","0.0-172.0-1.0","CKN_141","141","","","","","","null","stimuli/bleep.m4a","null","brown","yellow","[""brown"",""yellow"",""high nameability""]","left-right","[""brown"",""yellow"",""high nameability""]","5","high nameability","47","left","audio_feedback","1"
"html-button-response","226","493767","0.0-173.0","CKN_141","141","","","","","","null","<button class=""jspsych-btn""><img src=""stimuli/white_square.png"" style=""width: 200px;height: 200px;""></button>","null","brown","yellow","[""brown"",""yellow"",""high nameability""]","left-right","[""brown"",""yellow"",""high nameability""]","5","high nameability","47","left","iti",""
"html-button-response","227","495471","0.0-174.0","CKN_141","141","","","","","","1692","","0","neonyellow","pink","[""neonyellow"",""pink"",""low nameability""]","left-right","[""neonyellow"",""pink"",""low nameability""]","5","low nameability","48","left","trigger",""
"html-button-response","228","497979","0.0-175.0-0.0","CKN_141","141","","","","","","2502","<button class=""jspsych-btn""><img src=""stimuli/neonyellow.png"" style=""width: 200px;height: 200px;""></button>","0","neonyellow","pink","[""neonyellow"",""pink"",""low nameability""]","left-right","[""neonyellow"",""pink"",""low nameability""]","5","low nameability","48","left","response","1"
"html-audio-button-response","229","498184","0.0-175.0-1.0","CKN_141","141","","","","","","null","stimuli/bleep.m4a","null","neonyellow","pink","[""neonyellow"",""pink"",""low nameability""]","left-right","[""neonyellow"",""pink"",""low nameability""]","5","low nameability","48","left","audio_feedback","1"
"html-button-response","230","498695","0.0-176.0","CKN_141","141","","","","","","null","<button class=""jspsych-btn""><img src=""stimuli/white_square.png"" style=""width: 200px;height: 200px;""></button>","null","neonyellow","pink","[""neonyellow"",""pink"",""low nameability""]","left-right","[""neonyellow"",""pink"",""low nameability""]","5","low nameability","48","left","iti",""
"html-button-response","231","499639","0.0-177.0","CKN_141","141","","","","","","938","","0","darkgreenblue","lightred","[""darkgreenblue"",""lightred"",""low nameability""]","left-right","[""darkgreenblue"",""lightred"",""low nameability""]","5","low nameability","49","left","trigger",""
"html-button-response","232","500863","0.0-178.0-0.0","CKN_141","141","","","","","","1216","<button class=""jspsych-btn""><img src=""stimuli/darkgreenblue.png"" style=""width: 200px;height: 200px;""></button>","0","darkgreenblue","lightred","[""darkgreenblue"",""lightred"",""low nameability""]","left-right","[""darkgreenblue"",""lightred"",""low nameability""]","5","low nameability","49","left","response","1"
"html-audio-button-response","233","501066","0.0-178.0-1.0","CKN_141","141","","","","","","null","stimuli/bleep.m4a","null","darkgreenblue","lightred","[""darkgreenblue"",""lightred"",""low nameability""]","left-right","[""darkgreenblue"",""lightred"",""low nameability""]","5","low nameability","49","left","audio_feedback","1"
"html-button-response","234","501576","0.0-179.0","CKN_141","141","","","","","","null","<button class=""jspsych-btn""><img src=""stimuli/white_square.png"" style=""width: 200px;height: 200px;""></button>","null","darkgreenblue","lightred","[""darkgreenblue"",""lightred"",""low nameability""]","left-right","[""darkgreenblue"",""lightred"",""low nameability""]","5","low nameability","49","left","iti",""
"html-button-response","235","505198","0.0-180.0","CKN_141","141","","","","","","3609","","0","mustard","darkgreenblue","[""mustard"",""darkgreenblue"",""low nameability""]","left-right","[""mustard"",""darkgreenblue"",""low nameability""]","5","low nameability","50","left","trigger",""
"html-button-response","236","510045","0.0-181.0-0.0","CKN_141","141","","","","","","4841","<button class=""jspsych-btn""><img src=""stimuli/mustard.png"" style=""width: 200px;height: 200px;""></button>","0","mustard","darkgreenblue","[""mustard"",""darkgreenblue"",""low nameability""]","left-right","[""mustard"",""darkgreenblue"",""low nameability""]","5","low nameability","50","left","response","1"
"html-audio-button-response","237","510252","0.0-181.0-1.0","CKN_141","141","","","","","","null","stimuli/bleep.m4a","null","mustard","darkgreenblue","[""mustard"",""darkgreenblue"",""low nameability""]","left-right","[""mustard"",""darkgreenblue"",""low nameability""]","5","low nameability","50","left","audio_feedback","1"
"html-button-response","238","510774","0.0-182.0","CKN_141","141","","","","","","null","<button class=""jspsych-btn""><img src=""stimuli/white_square.png"" style=""width: 200px;height: 200px;""></button>","null","mustard","darkgreenblue","[""mustard"",""darkgreenblue"",""low nameability""]","left-right","[""mustard"",""darkgreenblue"",""low nameability""]","5","low nameability","50","left","iti",""
"pavlovia","239","510909","0.0-183.0","CKN_141","141","","","","","","","","","","","","","","","","","","",""
"pavlovia","240","510920","0.0-184.0","CKN_141","141","","","","","","","","","","","","","","","","","","",""
"html-audio-button-response","241","515988","0.0-185.0","CKN_141","141","","","","","","5213","stimuli/tada.m4a","0","","","","","","","","","","",""
"html-button-response","242","516424","0.0-186.0","CKN_141","141","","","","","","430","","0","","","","","","","","","","",""
"html-button-response","243","518150","0.0-187.0","CKN_141","141","","","","","","1719","","0","brown","purple","[""brown"",""purple"",""high nameability""]","right-left","[""purple"",""brown""]","6","high nameability","51","right","trigger",""
"html-button-response","244","519583","0.0-188.0-0.0","CKN_141","141","","","","","","1422","<button class=""jspsych-btn""><img src=""stimuli/brown.png"" style=""width: 200px;height: 200px;""></button>","1","brown","purple","[""brown"",""purple"",""high nameability""]","right-left","[""purple"",""brown""]","6","high nameability","51","right","response","1"
"html-audio-button-response","245","519789","0.0-188.0-1.0","CKN_141","141","","","","","","null","stimuli/bleep.m4a","null","brown","purple","[""brown"",""purple"",""high nameability""]","right-left","[""purple"",""brown""]","6","high nameability","51","right","audio_feedback","1"
"html-button-response","246","520300","0.0-189.0","CKN_141","141","","","","","","78","<button class=""jspsych-btn""><img src=""stimuli/white_square.png"" style=""width: 200px;height: 200px;""></button>","1","brown","purple","[""brown"",""purple"",""high nameability""]","right-left","[""purple"",""brown""]","6","high nameability","51","right","iti",""
"html-button-response","247","521397","0.0-190.0","CKN_141","141","","","","","","1084","","0","pink","darkgreenblue","[""pink"",""darkgreenblue"",""low nameability""]","left-right","[""pink"",""darkgreenblue"",""low nameability""]","6","low nameability","52","left","trigger",""
"html-button-response","248","524600","0.0-191.0-0.0","CKN_141","141","","","","","","3190","<button class=""jspsych-btn""><img src=""stimuli/pink.png"" style=""width: 200px;height: 200px;""></button>","0","pink","darkgreenblue","[""pink"",""darkgreenblue"",""low nameability""]","left-right","[""pink"",""darkgreenblue"",""low nameability""]","6","low nameability","52","left","response","1"
"html-audio-button-response","249","524805","0.0-191.0-1.0","CKN_141","141","","","","","","null","stimuli/bleep.m4a","null","pink","darkgreenblue","[""pink"",""darkgreenblue"",""low nameability""]","left-right","[""pink"",""darkgreenblue"",""low nameability""]","6","low nameability","52","left","audio_feedback","1"
"html-button-response","250","525318","0.0-192.0","CKN_141","141","","","","","","null","<button class=""jspsych-btn""><img src=""stimuli/white_square.png"" style=""width: 200px;height: 200px;""></button>","null","pink","darkgreenblue","[""pink"",""darkgreenblue"",""low nameability""]","left-right","[""pink"",""darkgreenblue"",""low nameability""]","6","low nameability","52","left","iti",""
"html-button-response","251","527119","0.0-193.0","CKN_141","141","","","","","","1795","","0","lightred","pink","[""lightred"",""pink"",""low nameability""]","left-right","[""lightred"",""pink"",""low nameability""]","6","low nameability","53","left","trigger",""
"html-button-response","252","530668","0.0-194.0-0.0","CKN_141","141","","","","","","3537","<button class=""jspsych-btn""><img src=""stimuli/lightred.png"" style=""width: 200px;height: 200px;""></button>","0","lightred","pink","[""lightred"",""pink"",""low nameability""]","left-right","[""lightred"",""pink"",""low nameability""]","6","low nameability","53","left","response","1"
"html-audio-button-response","253","530897","0.0-194.0-1.0","CKN_141","141","","","","","","null","stimuli/bleep.m4a","null","lightred","pink","[""lightred"",""pink"",""low nameability""]","left-right","[""lightred"",""pink"",""low nameability""]","6","low nameability","53","left","audio_feedback","1"
"html-button-response","254","531417","0.0-195.0","CKN_141","141","","","","","","null","<button class=""jspsych-btn""><img src=""stimuli/white_square.png"" style=""width: 200px;height: 200px;""></button>","null","lightred","pink","[""lightred"",""pink"",""low nameability""]","left-right","[""lightred"",""pink"",""low nameability""]","6","low nameability","53","left","iti",""
"html-button-response","255","533693","0.0-196.0","CKN_141","141","","","","","","2256","","0","orange","red","[""orange"",""red"",""high nameability""]","right-left","[""red"",""orange""]","6","high nameability","54","right","trigger",""
"html-button-response","256","536250","0.0-197.0-0.0","CKN_141","141","","","","","","2542","<button class=""jspsych-btn""><img src=""stimuli/orange.png"" style=""width: 200px;height: 200px;""></button>","1","orange","red","[""orange"",""red"",""high nameability""]","right-left","[""red"",""orange""]","6","high nameability","54","right","response","1"
"html-audio-button-response","257","536460","0.0-197.0-1.0","CKN_141","141","","","","","","null","stimuli/bleep.m4a","null","orange","red","[""orange"",""red"",""high nameability""]","right-left","[""red"",""orange""]","6","high nameability","54","right","audio_feedback","1"
"html-button-response","258","536986","0.0-198.0","CKN_141","141","","","","","","null","<button class=""jspsych-btn""><img src=""stimuli/white_square.png"" style=""width: 200px;height: 200px;""></button>","null","orange","red","[""orange"",""red"",""high nameability""]","right-left","[""red"",""orange""]","6","high nameability","54","right","iti",""
"html-button-response","259","538507","0.0-199.0","CKN_141","141","","","","","","1506","","0","purple","yellow","[""purple"",""yellow"",""high nameability""]","left-right","[""purple"",""yellow"",""high nameability""]","6","high nameability","55","left","trigger",""
"html-button-response","260","539980","0.0-200.0-0.0","CKN_141","141","","","","","","1463","<button class=""jspsych-btn""><img src=""stimuli/purple.png"" style=""width: 200px;height: 200px;""></button>","0","purple","yellow","[""purple"",""yellow"",""high nameability""]","left-right","[""purple"",""yellow"",""high nameability""]","6","high nameability","55","left","response","1"
"html-audio-button-response","261","540184","0.0-200.0-1.0","CKN_141","141","","","","","","null","stimuli/bleep.m4a","null","purple","yellow","[""purple"",""yellow"",""high nameability""]","left-right","[""purple"",""yellow"",""high nameability""]","6","high nameability","55","left","audio_feedback","1"
"html-button-response","262","540696","0.0-201.0","CKN_141","141","","","","","","null","<button class=""jspsych-btn""><img src=""stimuli/white_square.png"" style=""width: 200px;height: 200px;""></button>","null","purple","yellow","[""purple"",""yellow"",""high nameability""]","left-right","[""purple"",""yellow"",""high nameability""]","6","high nameability","55","left","iti",""
"html-button-response","263","541767","0.0-202.0","CKN_141","141","","","","","","1065","","0","neonyellow","turquoise","[""neonyellow"",""turquoise"",""low nameability""]","right-left","[""turquoise"",""neonyellow""]","6","low nameability","56","right","trigger",""
"html-button-response","264","543015","0.0-203.0-0.0","CKN_141","141","","","","","","1237","<button class=""jspsych-btn""><img src=""stimuli/neonyellow.png"" style=""width: 200px;height: 200px;""></button>","1","neonyellow","turquoise","[""neonyellow"",""turquoise"",""low nameability""]","right-left","[""turquoise"",""neonyellow""]","6","low nameability","56","right","response","1"
"html-audio-button-response","265","543215","0.0-203.0-1.0","CKN_141","141","","","","","","null","stimuli/bleep.m4a","null","neonyellow","turquoise","[""neonyellow"",""turquoise"",""low nameability""]","right-left","[""turquoise"",""neonyellow""]","6","low nameability","56","right","audio_feedback","1"
"html-button-response","266","543728","0.0-204.0","CKN_141","141","","","","","","null","<button class=""jspsych-btn""><img src=""stimuli/white_square.png"" style=""width: 200px;height: 200px;""></button>","null","neonyellow","turquoise","[""neonyellow"",""turquoise"",""low nameability""]","right-left","[""turquoise"",""neonyellow""]","6","low nameability","56","right","iti",""
"html-button-response","267","544539","0.0-205.0","CKN_141","141","","","","","","803","","0","turquoise","mustard","[""turquoise"",""mustard"",""low nameability""]","left-right","[""turquoise"",""mustard"",""low nameability""]","6","low nameability","57","left","trigger",""
"html-button-response","268","546149","0.0-206.0-0.0","CKN_141","141","","","","","","1601","<button class=""jspsych-btn""><img src=""stimuli/turquoise.png"" style=""width: 200px;height: 200px;""></button>","0","turquoise","mustard","[""turquoise"",""mustard"",""low nameability""]","left-right","[""turquoise"",""mustard"",""low nameability""]","6","low nameability","57","left","response","1"
"html-audio-button-response","269","546355","0.0-206.0-1.0","CKN_141","141","","","","","","null","stimuli/bleep.m4a","null","turquoise","mustard","[""turquoise"",""mustard"",""low nameability""]","left-right","[""turquoise"",""mustard"",""low nameability""]","6","low nameability","57","left","audio_feedback","1"
"html-button-response","270","546875","0.0-207.0","CKN_141","141","","","","","","null","<button class=""jspsych-btn""><img src=""stimuli/white_square.png"" style=""width: 200px;height: 200px;""></button>","null","turquoise","mustard","[""turquoise"",""mustard"",""low nameability""]","left-right","[""turquoise"",""mustard"",""low nameability""]","6","low nameability","57","left","iti",""
"html-button-response","271","547658","0.0-208.0","CKN_141","141","","","","","","773","","0","neonyellow","mustard","[""neonyellow"",""mustard"",""low nameability""]","left-right","[""neonyellow"",""mustard"",""low nameability""]","6","low nameability","58","left","trigger",""
"html-button-response","272","548567","0.0-209.0-0.0","CKN_141","141","","","","","","897","<button class=""jspsych-btn""><img src=""stimuli/neonyellow.png"" style=""width: 200px;height: 200px;""></button>","0","neonyellow","mustard","[""neonyellow"",""mustard"",""low nameability""]","left-right","[""neonyellow"",""mustard"",""low nameability""]","6","low nameability","58","left","response","1"
"html-audio-button-response","273","548770","0.0-209.0-1.0","CKN_141","141","","","","","","null","stimuli/bleep.m4a","null","neonyellow","mustard","[""neonyellow"",""mustard"",""low nameability""]","left-right","[""neonyellow"",""mustard"",""low nameability""]","6","low nameability","58","left","audio_feedback","1"
"html-button-response","274","549284","0.0-210.0","CKN_141","141","","","","","","null","<button class=""jspsych-btn""><img src=""stimuli/white_square.png"" style=""width: 200px;height: 200px;""></button>","null","neonyellow","mustard","[""neonyellow"",""mustard"",""low nameability""]","left-right","[""neonyellow"",""mustard"",""low nameability""]","6","low nameability","58","left","iti",""
"html-button-response","275","549887","0.0-211.0","CKN_141","141","","","","","","590","","0","red","yellow","[""red"",""yellow"",""high nameability""]","right-left","[""yellow"",""red""]","6","high nameability","59","right","trigger",""
"html-button-response","276","552348","0.0-212.0-0.0","CKN_141","141","","","","","","2450","<button class=""jspsych-btn""><img src=""stimuli/red.png"" style=""width: 200px;height: 200px;""></button>","1","red","yellow","[""red"",""yellow"",""high nameability""]","right-left","[""yellow"",""red""]","6","high nameability","59","right","response","1"
"html-audio-button-response","277","552552","0.0-212.0-1.0","CKN_141","141","","","","","","null","stimuli/bleep.m4a","null","red","yellow","[""red"",""yellow"",""high nameability""]","right-left","[""yellow"",""red""]","6","high nameability","59","right","audio_feedback","1"
"html-button-response","278","553063","0.0-213.0","CKN_141","141","","","","","","null","<button class=""jspsych-btn""><img src=""stimuli/white_square.png"" style=""width: 200px;height: 200px;""></button>","null","red","yellow","[""red"",""yellow"",""high nameability""]","right-left","[""yellow"",""red""]","6","high nameability","59","right","iti",""
"html-button-response","279","554862","0.0-214.0","CKN_141","141","","","","","","1793","","0","mustard","turquoise","[""mustard"",""turquoise"",""low nameability""]","right-left","[""turquoise"",""mustard""]","6","low nameability","60","right","trigger",""
"html-button-response","280","555969","0.0-215.0-0.0","CKN_141","141","","","","","","1095","<button class=""jspsych-btn""><img src=""stimuli/mustard.png"" style=""width: 200px;height: 200px;""></button>","1","mustard","turquoise","[""mustard"",""turquoise"",""low nameability""]","right-left","[""turquoise"",""mustard""]","6","low nameability","60","right","response","1"
"html-audio-button-response","281","556174","0.0-215.0-1.0","CKN_141","141","","","","","","null","stimuli/bleep.m4a","null","mustard","turquoise","[""mustard"",""turquoise"",""low nameability""]","right-left","[""turquoise"",""mustard""]","6","low nameability","60","right","audio_feedback","1"
"html-button-response","282","556697","0.0-216.0","CKN_141","141","","","","","","null","<button class=""jspsych-btn""><img src=""stimuli/white_square.png"" style=""width: 200px;height: 200px;""></button>","null","mustard","turquoise","[""mustard"",""turquoise"",""low nameability""]","right-left","[""turquoise"",""mustard""]","6","low nameability","60","right","iti",""
