"trial_type","trial_index","time_elapsed","internal_node_id","subject_id","seed","success","timeout","failed_images","failed_audio","failed_video","rt","stimulus","response","target","foil","choices","combination_order","choices_in_order","round","condition","trial_counter","target_location","trial_kind","correct"
"pavlovia","0","17","0.0-0.0","CKN_142","142","","","","","","","","","","","","","","","","","","",""
"preload","1","612","0.0-1.0","CKN_142","142","true","false","[]","[]","[]","","","","","","","","","","","","","",""
"fullscreen","2","3216","0.0-2.0","CKN_142","142","true","","","","","","","","","","","","","","","","","",""
"html-button-response","3","379938","0.0-3.0","CKN_142","142","","","","","","376692","","0","","","","","","","","","","",""
"html-button-response","4","385408","0.0-4.0","CKN_142","142","","","","","","5457","","0","star","square","[""square"",""star""]","left-right","[""square"",""star""]","1","practice","1","right","trigger",""
"html-button-response","5","393149","0.0-5.0-0.0","CKN_142","142","","","","","","7730","<button class=""jspsych-btn""><img src=""stimuli/star.png"" style=""width: 200px;height: 200px;""></button>","1","star","square","[""square"",""star""]","left-right","[""square"",""star""]","1","practice","1","right","response","1"
"html-audio-button-response","6","393365","0.0-5.0-1.0","CKN_142","142","","","","","","null","stimuli/bleep.m4a","null","star","square","[""square"",""star""]","left-right","[""square"",""star""]","1","practice","1","right","audio_feedback","1"
"html-button-response","7","393883","0.0-6.0","CKN_142","142","","","","","","null","<button class=""jspsych-btn""><img src=""stimuli/white_square.png"" style=""width: 200px;height: 200px;""></button>","null","star","square","[""square"",""star""]","left-right","[""square"",""star""]","1","practice","1","right","iti",""
"html-button-response","8","400148","0.0-7.0","CKN_142","142","","","","","","6248","","0","triangle","pentagram","[""triangle"",""pentagram""]","left-right","[""triangle"",""pentagram""]","1","practice","1","left","trigger",""
"html-button-response","9","405446","0.0-8.0-0.0","CKN_142","142","","","","","","5288","<button class=""jspsych-btn""><img src=""stimuli/triangle.png"" style=""width: 200px;height: 200px;""></button>","0","triangle","pentagram","[""triangle"",""pentagram""]","left-right","[""triangle"",""pentagram""]","1","practice","1","left","response","1"
"html-audio-button-response","10","405661","0.0-8.0-1.0","CKN_142","142","","","","","","null","stimuli/bleep.m4a","null","triangle","pentagram","[""triangle"",""pentagram""]","left-right","[""triangle"",""pentagram""]","1","practice","1","left","audio_feedback","1"
"html-button-response","11","406179","0.0-9.0","CKN_142","142","","","","","","null","<button class=""jspsych-btn""><img src=""stimuli/white_square.png"" style=""width: 200px;height: 200px;""></button>","null","triangle","pentagram","[""triangle"",""pentagram""]","left-right","[""triangle"",""pentagram""]","1","practice","1","left","iti",""
"html-button-response","12","410105","0.0-10.0","CKN_142","142","","","","","","3909","","0","diamond","rectangle","[""rectangle"",""diamond""]","left-right","[""rectangle"",""diamond""]","1","practice","1","right","trigger",""
"html-button-response","13","413437","0.0-11.0-0.0","CKN_142","142","","","","","","3323","<button class=""jspsych-btn""><img src=""stimuli/diamond.png"" style=""width: 200px;height: 200px;""></button>","1","diamond","rectangle","[""rectangle"",""diamond""]","left-right","[""rectangle"",""diamond""]","1","practice","1","right","response","1"
"html-audio-button-response","14","413644","0.0-11.0-1.0","CKN_142","142","","","","","","null","stimuli/bleep.m4a","null","diamond","rectangle","[""rectangle"",""diamond""]","left-right","[""rectangle"",""diamond""]","1","practice","1","right","audio_feedback","1"
"html-button-response","15","414158","0.0-12.0","CKN_142","142","","","","","","null","<button class=""jspsych-btn""><img src=""stimuli/white_square.png"" style=""width: 200px;height: 200px;""></button>","null","diamond","rectangle","[""rectangle"",""diamond""]","left-right","[""rectangle"",""diamond""]","1","practice","1","right","iti",""
"html-button-response","16","417461","0.0-13.0","CKN_142","142","","","","","","3288","","0","pentagram","star","[""pentagram"",""star""]","left-right","[""pentagram"",""star""]","1","practice","1","left","trigger",""
"html-button-response","17","422948","0.0-14.0-0.0","CKN_142","142","","","","","","5474","<button class=""jspsych-btn""><img src=""stimuli/pentagram.png"" style=""width: 200px;height: 200px;""></button>","0","pentagram","star","[""pentagram"",""star""]","left-right","[""pentagram"",""star""]","1","practice","1","left","response","1"
"html-audio-button-response","18","423154","0.0-14.0-1.0","CKN_142","142","","","","","","null","stimuli/bleep.m4a","null","pentagram","star","[""pentagram"",""star""]","left-right","[""pentagram"",""star""]","1","practice","1","left","audio_feedback","1"
"html-button-response","19","423666","0.0-15.0","CKN_142","142","","","","","","null","<button class=""jspsych-btn""><img src=""stimuli/white_square.png"" style=""width: 200px;height: 200px;""></button>","null","pentagram","star","[""pentagram"",""star""]","left-right","[""pentagram"",""star""]","1","practice","1","left","iti",""
"html-button-response","20","426716","0.0-16.0","CKN_142","142","","","","","","3043","","0","","","","","","","","","","",""
"html-button-response","21","432973","0.0-17.0","CKN_142","142","","","","","","6249","","0","neonyellow","pink","[""neonyellow"",""pink"",""low nameability""]","left-right","[""neonyellow"",""pink"",""low nameability""]","1","low nameability","1","left","trigger",""
"html-button-response","22","441892","0.0-18.0-0.0","CKN_142","142","","","","","","8905","<button class=""jspsych-btn""><img src=""stimuli/neonyellow.png"" style=""width: 200px;height: 200px;""></button>","0","neonyellow","pink","[""neonyellow"",""pink"",""low nameability""]","left-right","[""neonyellow"",""pink"",""low nameability""]","1","low nameability","1","left","response","1"
"html-audio-button-response","23","442093","0.0-18.0-1.0","CKN_142","142","","","","","","null","stimuli/bleep.m4a","null","neonyellow","pink","[""neonyellow"",""pink"",""low nameability""]","left-right","[""neonyellow"",""pink"",""low nameability""]","1","low nameability","1","left","audio_feedback","1"
"html-button-response","24","442608","0.0-19.0","CKN_142","142","","","","","","null","<button class=""jspsych-btn""><img src=""stimuli/white_square.png"" style=""width: 200px;height: 200px;""></button>","null","neonyellow","pink","[""neonyellow"",""pink"",""low nameability""]","left-right","[""neonyellow"",""pink"",""low nameability""]","1","low nameability","1","left","iti",""
"html-button-response","25","445802","0.0-20.0","CKN_142","142","","","","","","3185","","0","orange","red","[""orange"",""red"",""high nameability""]","left-right","[""orange"",""red"",""high nameability""]","1","high nameability","2","left","trigger",""
"html-button-response","26","450873","0.0-21.0-0.0","CKN_142","142","","","","","","5063","<button class=""jspsych-btn""><img src=""stimuli/orange.png"" style=""width: 200px;height: 200px;""></button>","0","orange","red","[""orange"",""red"",""high nameability""]","left-right","[""orange"",""red"",""high nameability""]","1","high nameability","2","left","response","1"
"html-audio-button-response","27","451084","0.0-21.0-1.0","CKN_142","142","","","","","","null","stimuli/bleep.m4a","null","orange","red","[""orange"",""red"",""high nameability""]","left-right","[""orange"",""red"",""high nameability""]","1","high nameability","2","left","audio_feedback","1"
"html-button-response","28","451602","0.0-22.0","CKN_142","142","","","","","","null","<button class=""jspsych-btn""><img src=""stimuli/white_square.png"" style=""width: 200px;height: 200px;""></button>","null","orange","red","[""orange"",""red"",""high nameability""]","left-right","[""orange"",""red"",""high nameability""]","1","high nameability","2","left","iti",""
"html-button-response","29","455402","0.0-23.0","CKN_142","142","","","","","","3783","","0","pink","lightred","[""pink"",""lightred"",""low nameability""]","left-right","[""pink"",""lightred"",""low nameability""]","1","low nameability","3","left","trigger",""
"html-button-response","30","459390","0.0-24.0-0.0","CKN_142","142","","","","","","3979","<button class=""jspsych-btn""><img src=""stimuli/pink.png"" style=""width: 200px;height: 200px;""></button>","0","pink","lightred","[""pink"",""lightred"",""low nameability""]","left-right","[""pink"",""lightred"",""low nameability""]","1","low nameability","3","left","response","1"
"html-audio-button-response","31","459596","0.0-24.0-1.0","CKN_142","142","","","","","","null","stimuli/bleep.m4a","null","pink","lightred","[""pink"",""lightred"",""low nameability""]","left-right","[""pink"",""lightred"",""low nameability""]","1","low nameability","3","left","audio_feedback","1"
"html-button-response","32","460111","0.0-25.0","CKN_142","142","","","","","","null","<button class=""jspsych-btn""><img src=""stimuli/white_square.png"" style=""width: 200px;height: 200px;""></button>","null","pink","lightred","[""pink"",""lightred"",""low nameability""]","left-right","[""pink"",""lightred"",""low nameability""]","1","low nameability","3","left","iti",""
"html-button-response","33","463469","0.0-26.0","CKN_142","142","","","","","","3347","","0","orange","yellow","[""orange"",""yellow"",""high nameability""]","right-left","[""yellow"",""orange""]","1","high nameability","4","right","trigger",""
"html-button-response","34","470060","0.0-27.0-0.0","CKN_142","142","","","","","","6580","<button class=""jspsych-btn""><img src=""stimuli/orange.png"" style=""width: 200px;height: 200px;""></button>","1","orange","yellow","[""orange"",""yellow"",""high nameability""]","right-left","[""yellow"",""orange""]","1","high nameability","4","right","response","1"
"html-audio-button-response","35","470269","0.0-27.0-1.0","CKN_142","142","","","","","","null","stimuli/bleep.m4a","null","orange","yellow","[""orange"",""yellow"",""high nameability""]","right-left","[""yellow"",""orange""]","1","high nameability","4","right","audio_feedback","1"
"html-button-response","36","470785","0.0-28.0","CKN_142","142","","","","","","null","<button class=""jspsych-btn""><img src=""stimuli/white_square.png"" style=""width: 200px;height: 200px;""></button>","null","orange","yellow","[""orange"",""yellow"",""high nameability""]","right-left","[""yellow"",""orange""]","1","high nameability","4","right","iti",""
"html-button-response","37","473990","0.0-29.0","CKN_142","142","","","","","","3192","","0","yellow","orange","[""yellow"",""orange"",""high nameability""]","left-right","[""yellow"",""orange"",""high nameability""]","1","high nameability","5","left","trigger",""
"html-button-response","38","475834","0.0-30.0-0.0","CKN_142","142","","","","","","1835","<button class=""jspsych-btn""><img src=""stimuli/yellow.png"" style=""width: 200px;height: 200px;""></button>","0","yellow","orange","[""yellow"",""orange"",""high nameability""]","left-right","[""yellow"",""orange"",""high nameability""]","1","high nameability","5","left","response","1"
"html-audio-button-response","39","476041","0.0-30.0-1.0","CKN_142","142","","","","","","null","stimuli/bleep.m4a","null","yellow","orange","[""yellow"",""orange"",""high nameability""]","left-right","[""yellow"",""orange"",""high nameability""]","1","high nameability","5","left","audio_feedback","1"
"html-button-response","40","476555","0.0-31.0","CKN_142","142","","","","","","null","<button class=""jspsych-btn""><img src=""stimuli/white_square.png"" style=""width: 200px;height: 200px;""></button>","null","yellow","orange","[""yellow"",""orange"",""high nameability""]","left-right","[""yellow"",""orange"",""high nameability""]","1","high nameability","5","left","iti",""
"html-button-response","41","489741","0.0-32.0","CKN_142","142","","","","","","13175","","0","turquoise","neonyellow","[""turquoise"",""neonyellow"",""low nameability""]","left-right","[""turquoise"",""neonyellow"",""low nameability""]","1","low nameability","6","left","trigger",""
"html-button-response","42","495871","0.0-33.0-0.0","CKN_142","142","","","","","","6121","<button class=""jspsych-btn""><img src=""stimuli/turquoise.png"" style=""width: 200px;height: 200px;""></button>","0","turquoise","neonyellow","[""turquoise"",""neonyellow"",""low nameability""]","left-right","[""turquoise"",""neonyellow"",""low nameability""]","1","low nameability","6","left","response","1"
"html-audio-button-response","43","496073","0.0-33.0-1.0","CKN_142","142","","","","","","null","stimuli/bleep.m4a","null","turquoise","neonyellow","[""turquoise"",""neonyellow"",""low nameability""]","left-right","[""turquoise"",""neonyellow"",""low nameability""]","1","low nameability","6","left","audio_feedback","1"
"html-button-response","44","496585","0.0-34.0","CKN_142","142","","","","","","null","<button class=""jspsych-btn""><img src=""stimuli/white_square.png"" style=""width: 200px;height: 200px;""></button>","null","turquoise","neonyellow","[""turquoise"",""neonyellow"",""low nameability""]","left-right","[""turquoise"",""neonyellow"",""low nameability""]","1","low nameability","6","left","iti",""
"html-button-response","45","500971","0.0-35.0","CKN_142","142","","","","","","4375","","0","blue","red","[""blue"",""red"",""high nameability""]","right-left","[""red"",""blue""]","1","high nameability","7","right","trigger",""
"html-button-response","46","502604","0.0-36.0-0.0","CKN_142","142","","","","","","1624","<button class=""jspsych-btn""><img src=""stimuli/blue.png"" style=""width: 200px;height: 200px;""></button>","1","blue","red","[""blue"",""red"",""high nameability""]","right-left","[""red"",""blue""]","1","high nameability","7","right","response","1"
"html-audio-button-response","47","502811","0.0-36.0-1.0","CKN_142","142","","","","","","null","stimuli/bleep.m4a","null","blue","red","[""blue"",""red"",""high nameability""]","right-left","[""red"",""blue""]","1","high nameability","7","right","audio_feedback","1"
"html-button-response","48","503326","0.0-37.0","CKN_142","142","","","","","","null","<button class=""jspsych-btn""><img src=""stimuli/white_square.png"" style=""width: 200px;height: 200px;""></button>","null","blue","red","[""blue"",""red"",""high nameability""]","right-left","[""red"",""blue""]","1","high nameability","7","right","iti",""
"html-button-response","49","505904","0.0-38.0","CKN_142","142","","","","","","2565","","0","turquoise","pink","[""turquoise"",""pink"",""low nameability""]","right-left","[""pink"",""turquoise""]","1","low nameability","8","right","trigger",""
"html-button-response","50","509394","0.0-39.0-0.0","CKN_142","142","","","","","","3483","<button class=""jspsych-btn""><img src=""stimuli/turquoise.png"" style=""width: 200px;height: 200px;""></button>","1","turquoise","pink","[""turquoise"",""pink"",""low nameability""]","right-left","[""pink"",""turquoise""]","1","low nameability","8","right","response","1"
"html-audio-button-response","51","509598","0.0-39.0-1.0","CKN_142","142","","","","","","null","stimuli/bleep.m4a","null","turquoise","pink","[""turquoise"",""pink"",""low nameability""]","right-left","[""pink"",""turquoise""]","1","low nameability","8","right","audio_feedback","1"
"html-button-response","52","510111","0.0-40.0","CKN_142","142","","","","","","null","<button class=""jspsych-btn""><img src=""stimuli/white_square.png"" style=""width: 200px;height: 200px;""></button>","null","turquoise","pink","[""turquoise"",""pink"",""low nameability""]","right-left","[""pink"",""turquoise""]","1","low nameability","8","right","iti",""
"html-button-response","53","512636","0.0-41.0","CKN_142","142","","","","","","2505","","0","darkgreenblue","lightred","[""darkgreenblue"",""lightred"",""low nameability""]","right-left","[""lightred"",""darkgreenblue""]","1","low nameability","9","right","trigger",""
"html-button-response","54","514360","0.0-42.0-0.0","CKN_142","142","","","","","","1711","<button class=""jspsych-btn""><img src=""stimuli/darkgreenblue.png"" style=""width: 200px;height: 200px;""></button>","1","darkgreenblue","lightred","[""darkgreenblue"",""lightred"",""low nameability""]","right-left","[""lightred"",""darkgreenblue""]","1","low nameability","9","right","response","1"
"html-audio-button-response","55","514568","0.0-42.0-1.0","CKN_142","142","","","","","","null","stimuli/bleep.m4a","null","darkgreenblue","lightred","[""darkgreenblue"",""lightred"",""low nameability""]","right-left","[""lightred"",""darkgreenblue""]","1","low nameability","9","right","audio_feedback","1"
"html-button-response","56","515085","0.0-43.0","CKN_142","142","","","","","","null","<button class=""jspsych-btn""><img src=""stimuli/white_square.png"" style=""width: 200px;height: 200px;""></button>","null","darkgreenblue","lightred","[""darkgreenblue"",""lightred"",""low nameability""]","right-left","[""lightred"",""darkgreenblue""]","1","low nameability","9","right","iti",""
"html-button-response","57","517045","0.0-44.0","CKN_142","142","","","","","","1948","","0","blue","yellow","[""blue"",""yellow"",""high nameability""]","right-left","[""yellow"",""blue""]","1","high nameability","10","right","trigger",""
"html-button-response","58","518672","0.0-45.0-0.0","CKN_142","142","","","","","","1616","<button class=""jspsych-btn""><img src=""stimuli/blue.png"" style=""width: 200px;height: 200px;""></button>","1","blue","yellow","[""blue"",""yellow"",""high nameability""]","right-left","[""yellow"",""blue""]","1","high nameability","10","right","response","1"
"html-audio-button-response","59","518880","0.0-45.0-1.0","CKN_142","142","","","","","","null","stimuli/bleep.m4a","null","blue","yellow","[""blue"",""yellow"",""high nameability""]","right-left","[""yellow"",""blue""]","1","high nameability","10","right","audio_feedback","1"
"html-button-response","60","519394","0.0-46.0","CKN_142","142","","","","","","null","<button class=""jspsych-btn""><img src=""stimuli/white_square.png"" style=""width: 200px;height: 200px;""></button>","null","blue","yellow","[""blue"",""yellow"",""high nameability""]","right-left","[""yellow"",""blue""]","1","high nameability","10","right","iti",""
"pavlovia","61","519479","0.0-47.0","CKN_142","142","","","","","","","","","","","","","","","","","","",""
"pavlovia","62","519489","0.0-48.0","CKN_142","142","","","","","","","","","","","","","","","","","","",""
"html-audio-button-response","63","525692","0.0-49.0","CKN_142","142","","","","","","6288","stimuli/tada.m4a","0","","","","","","","","","","",""
"html-button-response","64","526179","0.0-50.0","CKN_142","142","","","","","","481","","0","","","","","","","","","","",""
"html-button-response","65","528937","0.0-51.0","CKN_142","142","","","","","","2750","","0","lightred","mustard","[""lightred"",""mustard"",""low nameability""]","left-right","[""lightred"",""mustard"",""low nameability""]","2","low nameability","11","left","trigger",""
"html-button-response","66","531124","0.0-52.0-0.0","CKN_142","142","","","","","","2177","<button class=""jspsych-btn""><img src=""stimuli/lightred.png"" style=""width: 200px;height: 200px;""></button>","0","lightred","mustard","[""lightred"",""mustard"",""low nameability""]","left-right","[""lightred"",""mustard"",""low nameability""]","2","low nameability","11","left","response","1"
"html-audio-button-response","67","531336","0.0-52.0-1.0","CKN_142","142","","","","","","null","stimuli/bleep.m4a","null","lightred","mustard","[""lightred"",""mustard"",""low nameability""]","left-right","[""lightred"",""mustard"",""low nameability""]","2","low nameability","11","left","audio_feedback","1"
"html-button-response","68","531851","0.0-53.0","CKN_142","142","","","","","","null","<button class=""jspsych-btn""><img src=""stimuli/white_square.png"" style=""width: 200px;height: 200px;""></button>","null","lightred","mustard","[""lightred"",""mustard"",""low nameability""]","left-right","[""lightred"",""mustard"",""low nameability""]","2","low nameability","11","left","iti",""
"html-button-response","69","537064","0.0-54.0","CKN_142","142","","","","","","5199","","0","brown","red","[""brown"",""red"",""high nameability""]","right-left","[""red"",""brown""]","2","high nameability","12","right","trigger",""
"html-button-response","70","543352","0.0-55.0-0.0","CKN_142","142","","","","","","6278","<button class=""jspsych-btn""><img src=""stimuli/brown.png"" style=""width: 200px;height: 200px;""></button>","1","brown","red","[""brown"",""red"",""high nameability""]","right-left","[""red"",""brown""]","2","high nameability","12","right","response","1"
"html-audio-button-response","71","543560","0.0-55.0-1.0","CKN_142","142","","","","","","null","stimuli/bleep.m4a","null","brown","red","[""brown"",""red"",""high nameability""]","right-left","[""red"",""brown""]","2","high nameability","12","right","audio_feedback","1"
"html-button-response","72","544069","0.0-56.0","CKN_142","142","","","","","","null","<button class=""jspsych-btn""><img src=""stimuli/white_square.png"" style=""width: 200px;height: 200px;""></button>","null","brown","red","[""brown"",""red"",""high nameability""]","right-left","[""red"",""brown""]","2","high nameability","12","right","iti",""
"html-button-response","73","548026","0.0-57.0","CKN_142","142","","","","","","3952","","0","neonyellow","lightred","[""neonyellow"",""lightred"",""low nameability""]","left-right","[""neonyellow"",""lightred"",""low nameability""]","2","low nameability","13","left","trigger",""
"html-button-response","74","552316","0.0-58.0-0.0","CKN_142","142","","","","","","4282","<button class=""jspsych-btn""><img src=""stimuli/neonyellow.png"" style=""width: 200px;height: 200px;""></button>","0","neonyellow","lightred","[""neonyellow"",""lightred"",""low nameability""]","left-right","[""neonyellow"",""lightred"",""low nameability""]","2","low nameability","13","left","response","1"
"html-audio-button-response","75","552518","0.0-58.0-1.0","CKN_142","142","","","","","","null","stimuli/bleep.m4a","null","neonyellow","lightred","[""neonyellow"",""lightred"",""low nameability""]","left-right","[""neonyellow"",""lightred"",""low nameability""]","2","low nameability","13","left","audio_feedback","1"
"html-button-response","76","553032","0.0-59.0","CKN_142","142","","","","","","null","<button class=""jspsych-btn""><img src=""stimuli/white_square.png"" style=""width: 200px;height: 200px;""></button>","null","neonyellow","lightred","[""neonyellow"",""lightred"",""low nameability""]","left-right","[""neonyellow"",""lightred"",""low nameability""]","2","low nameability","13","left","iti",""
"html-button-response","77","555422","0.0-60.0","CKN_142","142","","","","","","2379","","0","brown","yellow","[""brown"",""yellow"",""high nameability""]","left-right","[""brown"",""yellow"",""high nameability""]","2","high nameability","14","left","trigger",""
"html-button-response","78","557133","0.0-61.0-0.0","CKN_142","142","","","","","","1702","<button class=""jspsych-btn""><img src=""stimuli/brown.png"" style=""width: 200px;height: 200px;""></button>","0","brown","yellow","[""brown"",""yellow"",""high nameability""]","left-right","[""brown"",""yellow"",""high nameability""]","2","high nameability","14","left","response","1"
"html-audio-button-response","79","557338","0.0-61.0-1.0","CKN_142","142","","","","","","null","stimuli/bleep.m4a","null","brown","yellow","[""brown"",""yellow"",""high nameability""]","left-right","[""brown"",""yellow"",""high nameability""]","2","high nameability","14","left","audio_feedback","1"
"html-button-response","80","557848","0.0-62.0","CKN_142","142","","","","","","null","<button class=""jspsych-btn""><img src=""stimuli/white_square.png"" style=""width: 200px;height: 200px;""></button>","null","brown","yellow","[""brown"",""yellow"",""high nameability""]","left-right","[""brown"",""yellow"",""high nameability""]","2","high nameability","14","left","iti",""
"html-button-response","81","561338","0.0-63.0","CKN_142","142","","","","","","3480","","0","purple","yellow","[""purple"",""yellow"",""high nameability""]","left-right","[""purple"",""yellow"",""high nameability""]","2","high nameability","15","left","trigger",""
"html-button-response","82","563792","0.0-64.0-0.0","CKN_142","142","","","","","","2445","<button class=""jspsych-btn""><img src=""stimuli/purple.png"" style=""width: 200px;height: 200px;""></button>","0","purple","yellow","[""purple"",""yellow"",""high nameability""]","left-right","[""purple"",""yellow"",""high nameability""]","2","high nameability","15","left","response","1"
"html-audio-button-response","83","564000","0.0-64.0-1.0","CKN_142","142","","","","","","null","stimuli/bleep.m4a","null","purple","yellow","[""purple"",""yellow"",""high nameability""]","left-right","[""purple"",""yellow"",""high nameability""]","2","high nameability","15","left","audio_feedback","1"
"html-button-response","84","564509","0.0-65.0","CKN_142","142","","","","","","null","<button class=""jspsych-btn""><img src=""stimuli/white_square.png"" style=""width: 200px;height: 200px;""></button>","null","purple","yellow","[""purple"",""yellow"",""high nameability""]","left-right","[""purple"",""yellow"",""high nameability""]","2","high nameability","15","left","iti",""
"html-button-response","85","566562","0.0-66.0","CKN_142","142","","","","","","2044","","0","darkgreenblue","neonyellow","[""darkgreenblue"",""neonyellow"",""low nameability""]","right-left","[""neonyellow"",""darkgreenblue""]","2","low nameability","16","right","trigger",""
"html-button-response","86","569470","0.0-67.0-0.0","CKN_142","142","","","","","","2902","<button class=""jspsych-btn""><img src=""stimuli/darkgreenblue.png"" style=""width: 200px;height: 200px;""></button>","1","darkgreenblue","neonyellow","[""darkgreenblue"",""neonyellow"",""low nameability""]","right-left","[""neonyellow"",""darkgreenblue""]","2","low nameability","16","right","response","1"
"html-audio-button-response","87","569670","0.0-67.0-1.0","CKN_142","142","","","","","","null","stimuli/bleep.m4a","null","darkgreenblue","neonyellow","[""darkgreenblue"",""neonyellow"",""low nameability""]","right-left","[""neonyellow"",""darkgreenblue""]","2","low nameability","16","right","audio_feedback","1"
"html-button-response","88","570188","0.0-68.0","CKN_142","142","","","","","","null","<button class=""jspsych-btn""><img src=""stimuli/white_square.png"" style=""width: 200px;height: 200px;""></button>","null","darkgreenblue","neonyellow","[""darkgreenblue"",""neonyellow"",""low nameability""]","right-left","[""neonyellow"",""darkgreenblue""]","2","low nameability","16","right","iti",""
"html-button-response","89","575370","0.0-69.0","CKN_142","142","","","","","","5173","","0","yellow","red","[""yellow"",""red"",""high nameability""]","right-left","[""red"",""yellow""]","2","high nameability","17","right","trigger",""
"html-button-response","90","578158","0.0-70.0-0.0","CKN_142","142","","","","","","2782","<button class=""jspsych-btn""><img src=""stimuli/yellow.png"" style=""width: 200px;height: 200px;""></button>","1","yellow","red","[""yellow"",""red"",""high nameability""]","right-left","[""red"",""yellow""]","2","high nameability","17","right","response","1"
"html-audio-button-response","91","578369","0.0-70.0-1.0","CKN_142","142","","","","","","null","stimuli/bleep.m4a","null","yellow","red","[""yellow"",""red"",""high nameability""]","right-left","[""red"",""yellow""]","2","high nameability","17","right","audio_feedback","1"
"html-button-response","92","578886","0.0-71.0","CKN_142","142","","","","","","null","<button class=""jspsych-btn""><img src=""stimuli/white_square.png"" style=""width: 200px;height: 200px;""></button>","null","yellow","red","[""yellow"",""red"",""high nameability""]","right-left","[""red"",""yellow""]","2","high nameability","17","right","iti",""
"html-button-response","93","588513","0.0-72.0","CKN_142","142","","","","","","9614","","0","lightred","neonyellow","[""lightred"",""neonyellow"",""low nameability""]","right-left","[""neonyellow"",""lightred""]","2","low nameability","18","right","trigger",""
"html-button-response","94","594076","0.0-73.0-0.0","CKN_142","142","","","","","","5553","<button class=""jspsych-btn""><img src=""stimuli/lightred.png"" style=""width: 200px;height: 200px;""></button>","1","lightred","neonyellow","[""lightred"",""neonyellow"",""low nameability""]","right-left","[""neonyellow"",""lightred""]","2","low nameability","18","right","response","1"
"html-audio-button-response","95","594285","0.0-73.0-1.0","CKN_142","142","","","","","","null","stimuli/bleep.m4a","null","lightred","neonyellow","[""lightred"",""neonyellow"",""low nameability""]","right-left","[""neonyellow"",""lightred""]","2","low nameability","18","right","audio_feedback","1"
"html-button-response","96","594802","0.0-74.0","CKN_142","142","","","","","","null","<button class=""jspsych-btn""><img src=""stimuli/white_square.png"" style=""width: 200px;height: 200px;""></button>","null","lightred","neonyellow","[""lightred"",""neonyellow"",""low nameability""]","right-left","[""neonyellow"",""lightred""]","2","low nameability","18","right","iti",""
"html-button-response","97","596785","0.0-75.0","CKN_142","142","","","","","","1968","","0","pink","turquoise","[""pink"",""turquoise"",""low nameability""]","right-left","[""turquoise"",""pink""]","2","low nameability","19","right","trigger",""
"html-button-response","98","598516","0.0-76.0-0.0","CKN_142","142","","","","","","1722","<button class=""jspsych-btn""><img src=""stimuli/pink.png"" style=""width: 200px;height: 200px;""></button>","1","pink","turquoise","[""pink"",""turquoise"",""low nameability""]","right-left","[""turquoise"",""pink""]","2","low nameability","19","right","response","1"
"html-audio-button-response","99","598719","0.0-76.0-1.0","CKN_142","142","","","","","","null","stimuli/bleep.m4a","null","pink","turquoise","[""pink"",""turquoise"",""low nameability""]","right-left","[""turquoise"",""pink""]","2","low nameability","19","right","audio_feedback","1"
"html-button-response","100","599234","0.0-77.0","CKN_142","142","","","","","","null","<button class=""jspsych-btn""><img src=""stimuli/white_square.png"" style=""width: 200px;height: 200px;""></button>","null","pink","turquoise","[""pink"",""turquoise"",""low nameability""]","right-left","[""turquoise"",""pink""]","2","low nameability","19","right","iti",""
"html-button-response","101","601124","0.0-78.0","CKN_142","142","","","","","","1879","","0","mustard","neonyellow","[""mustard"",""neonyellow"",""low nameability""]","right-left","[""neonyellow"",""mustard""]","2","low nameability","20","right","trigger",""
"html-button-response","102","603048","0.0-79.0-0.0","CKN_142","142","","","","","","1913","<button class=""jspsych-btn""><img src=""stimuli/mustard.png"" style=""width: 200px;height: 200px;""></button>","1","mustard","neonyellow","[""mustard"",""neonyellow"",""low nameability""]","right-left","[""neonyellow"",""mustard""]","2","low nameability","20","right","response","1"
"html-audio-button-response","103","603261","0.0-79.0-1.0","CKN_142","142","","","","","","null","stimuli/bleep.m4a","null","mustard","neonyellow","[""mustard"",""neonyellow"",""low nameability""]","right-left","[""neonyellow"",""mustard""]","2","low nameability","20","right","audio_feedback","1"
"html-button-response","104","603772","0.0-80.0","CKN_142","142","","","","","","null","<button class=""jspsych-btn""><img src=""stimuli/white_square.png"" style=""width: 200px;height: 200px;""></button>","null","mustard","neonyellow","[""mustard"",""neonyellow"",""low nameability""]","right-left","[""neonyellow"",""mustard""]","2","low nameability","20","right","iti",""
"pavlovia","105","603807","0.0-81.0","CKN_142","142","","","","","","","","","","","","","","","","","","",""
"pavlovia","106","603814","0.0-82.0","CKN_142","142","","","","","","","","","","","","","","","","","","",""
"html-audio-button-response","107","607184","0.0-83.0","CKN_142","142","","","","","","3405","stimuli/tada.m4a","0","","","","","","","","","","",""
"html-button-response","108","607857","0.0-84.0","CKN_142","142","","","","","","669","","0","","","","","","","","","","",""
"html-button-response","109","609791","0.0-85.0","CKN_142","142","","","","","","1925","","0","orange","brown","[""orange"",""brown"",""high nameability""]","right-left","[""brown"",""orange""]","3","high nameability","21","right","trigger",""
"html-button-response","110","611528","0.0-86.0-0.0","CKN_142","142","","","","","","1728","<button class=""jspsych-btn""><img src=""stimuli/orange.png"" style=""width: 200px;height: 200px;""></button>","1","orange","brown","[""orange"",""brown"",""high nameability""]","right-left","[""brown"",""orange""]","3","high nameability","21","right","response","1"
"html-audio-button-response","111","611735","0.0-86.0-1.0","CKN_142","142","","","","","","null","stimuli/bleep.m4a","null","orange","brown","[""orange"",""brown"",""high nameability""]","right-left","[""brown"",""orange""]","3","high nameability","21","right","audio_feedback","1"
"html-button-response","112","612252","0.0-87.0","CKN_142","142","","","","","","null","<button class=""jspsych-btn""><img src=""stimuli/white_square.png"" style=""width: 200px;height: 200px;""></button>","null","orange","brown","[""orange"",""brown"",""high nameability""]","right-left","[""brown"",""orange""]","3","high nameability","21","right","iti",""
"html-button-response","113","619500","0.0-88.0","CKN_142","142","","","","","","7236","","0","mustard","lightred","[""mustard"",""lightred"",""low nameability""]","left-right","[""mustard"",""lightred"",""low nameability""]","3","low nameability","22","left","trigger",""
"html-button-response","114","621057","0.0-89.0-0.0","CKN_142","142","","","","","","1552","<button class=""jspsych-btn""><img src=""stimuli/mustard.png"" style=""width: 200px;height: 200px;""></button>","0","mustard","lightred","[""mustard"",""lightred"",""low nameability""]","left-right","[""mustard"",""lightred"",""low nameability""]","3","low nameability","22","left","response","1"
"html-audio-button-response","115","621260","0.0-89.0-1.0","CKN_142","142","","","","","","null","stimuli/bleep.m4a","null","mustard","lightred","[""mustard"",""lightred"",""low nameability""]","left-right","[""mustard"",""lightred"",""low nameability""]","3","low nameability","22","left","audio_feedback","1"
"html-button-response","116","621779","0.0-90.0","CKN_142","142","","","","","","null","<button class=""jspsych-btn""><img src=""stimuli/white_square.png"" style=""width: 200px;height: 200px;""></button>","null","mustard","lightred","[""mustard"",""lightred"",""low nameability""]","left-right","[""mustard"",""lightred"",""low nameability""]","3","low nameability","22","left","iti",""
"html-button-response","117","624224","0.0-91.0","CKN_142","142","","","","","","2431","","0","red","blue","[""red"",""blue"",""high nameability""]","left-right","[""red"",""blue"",""high nameability""]","3","high nameability","23","left","trigger",""
"html-button-response","118","625795","0.0-92.0-0.0","CKN_142","142","","","","","","1564","<button class=""jspsych-btn""><img src=""stimuli/red.png"" style=""width: 200px;height: 200px;""></button>","0","red","blue","[""red"",""blue"",""high nameability""]","left-right","[""red"",""blue"",""high nameability""]","3","high nameability","23","left","response","1"
"html-audio-button-response","119","626003","0.0-92.0-1.0","CKN_142","142","","","","","","null","stimuli/bleep.m4a","null","red","blue","[""red"",""blue"",""high nameability""]","left-right","[""red"",""blue"",""high nameability""]","3","high nameability","23","left","audio_feedback","1"
"html-button-response","120","626515","0.0-93.0","CKN_142","142","","","","","","null","<button class=""jspsych-btn""><img src=""stimuli/white_square.png"" style=""width: 200px;height: 200px;""></button>","null","red","blue","[""red"",""blue"",""high nameability""]","left-right","[""red"",""blue"",""high nameability""]","3","high nameability","23","left","iti",""
"html-button-response","121","627963","0.0-94.0","CKN_142","142","","","","","","1433","","0","purple","blue","[""purple"",""blue"",""high nameability""]","right-left","[""blue"",""purple""]","3","high nameability","24","right","trigger",""
"html-button-response","122","632548","0.0-95.0-0.0","CKN_142","142","","","","","","4573","<button class=""jspsych-btn""><img src=""stimuli/purple.png"" style=""width: 200px;height: 200px;""></button>","1","purple","blue","[""purple"",""blue"",""high nameability""]","right-left","[""blue"",""purple""]","3","high nameability","24","right","response","1"
"html-audio-button-response","123","632756","0.0-95.0-1.0","CKN_142","142","","","","","","null","stimuli/bleep.m4a","null","purple","blue","[""purple"",""blue"",""high nameability""]","right-left","[""blue"",""purple""]","3","high nameability","24","right","audio_feedback","1"
"html-button-response","124","633269","0.0-96.0","CKN_142","142","","","","","","null","<button class=""jspsych-btn""><img src=""stimuli/white_square.png"" style=""width: 200px;height: 200px;""></button>","null","purple","blue","[""purple"",""blue"",""high nameability""]","right-left","[""blue"",""purple""]","3","high nameability","24","right","iti",""
"html-button-response","125","635385","0.0-97.0","CKN_142","142","","","","","","2111","","0","turquoise","mustard","[""turquoise"",""mustard"",""low nameability""]","left-right","[""turquoise"",""mustard"",""low nameability""]","3","low nameability","25","left","trigger",""
"html-button-response","126","637055","0.0-98.0-0.0","CKN_142","142","","","","","","1662","<button class=""jspsych-btn""><img src=""stimuli/turquoise.png"" style=""width: 200px;height: 200px;""></button>","0","turquoise","mustard","[""turquoise"",""mustard"",""low nameability""]","left-right","[""turquoise"",""mustard"",""low nameability""]","3","low nameability","25","left","response","1"
"html-audio-button-response","127","637260","0.0-98.0-1.0","CKN_142","142","","","","","","null","stimuli/bleep.m4a","null","turquoise","mustard","[""turquoise"",""mustard"",""low nameability""]","left-right","[""turquoise"",""mustard"",""low nameability""]","3","low nameability","25","left","audio_feedback","1"
"html-button-response","128","637775","0.0-99.0","CKN_142","142","","","","","","null","<button class=""jspsych-btn""><img src=""stimuli/white_square.png"" style=""width: 200px;height: 200px;""></button>","null","turquoise","mustard","[""turquoise"",""mustard"",""low nameability""]","left-right","[""turquoise"",""mustard"",""low nameability""]","3","low nameability","25","left","iti",""
"html-button-response","129","639492","0.0-100.0","CKN_142","142","","","","","","1705","","0","mustard","pink","[""mustard"",""pink"",""low nameability""]","left-right","[""mustard"",""pink"",""low nameability""]","3","low nameability","26","left","trigger",""
"html-button-response","130","640840","0.0-101.0-0.0","CKN_142","142","","","","","","1341","<button class=""jspsych-btn""><img src=""stimuli/mustard.png"" style=""width: 200px;height: 200px;""></button>","0","mustard","pink","[""mustard"",""pink"",""low nameability""]","left-right","[""mustard"",""pink"",""low nameability""]","3","low nameability","26","left","response","1"
"html-audio-button-response","131","641046","0.0-101.0-1.0","CKN_142","142","","","","","","null","stimuli/bleep.m4a","null","mustard","pink","[""mustard"",""pink"",""low nameability""]","left-right","[""mustard"",""pink"",""low nameability""]","3","low nameability","26","left","audio_feedback","1"
"html-button-response","132","641558","0.0-102.0","CKN_142","142","","","","","","null","<button class=""jspsych-btn""><img src=""stimuli/white_square.png"" style=""width: 200px;height: 200px;""></button>","null","mustard","pink","[""mustard"",""pink"",""low nameability""]","left-right","[""mustard"",""pink"",""low nameability""]","3","low nameability","26","left","iti",""
"html-button-response","133","643249","0.0-103.0","CKN_142","142","","","","","","1681","","0","blue","brown","[""blue"",""brown"",""high nameability""]","left-right","[""blue"",""brown"",""high nameability""]","3","high nameability","27","left","trigger",""
"html-button-response","134","644473","0.0-104.0-0.0","CKN_142","142","","","","","","1216","<button class=""jspsych-btn""><img src=""stimuli/blue.png"" style=""width: 200px;height: 200px;""></button>","0","blue","brown","[""blue"",""brown"",""high nameability""]","left-right","[""blue"",""brown"",""high nameability""]","3","high nameability","27","left","response","1"
"html-audio-button-response","135","644679","0.0-104.0-1.0","CKN_142","142","","","","","","null","stimuli/bleep.m4a","null","blue","brown","[""blue"",""brown"",""high nameability""]","left-right","[""blue"",""brown"",""high nameability""]","3","high nameability","27","left","audio_feedback","1"
"html-button-response","136","645197","0.0-105.0","CKN_142","142","","","","","","null","<button class=""jspsych-btn""><img src=""stimuli/white_square.png"" style=""width: 200px;height: 200px;""></button>","null","blue","brown","[""blue"",""brown"",""high nameability""]","left-right","[""blue"",""brown"",""high nameability""]","3","high nameability","27","left","iti",""
"html-button-response","137","646747","0.0-106.0","CKN_142","142","","","","","","1532","","0","purple","red","[""purple"",""red"",""high nameability""]","left-right","[""purple"",""red"",""high nameability""]","3","high nameability","28","left","trigger",""
"html-button-response","138","648854","0.0-107.0-0.0","CKN_142","142","","","","","","2093","<button class=""jspsych-btn""><img src=""stimuli/purple.png"" style=""width: 200px;height: 200px;""></button>","0","purple","red","[""purple"",""red"",""high nameability""]","left-right","[""purple"",""red"",""high nameability""]","3","high nameability","28","left","response","1"
"html-audio-button-response","139","649067","0.0-107.0-1.0","CKN_142","142","","","","","","null","stimuli/bleep.m4a","null","purple","red","[""purple"",""red"",""high nameability""]","left-right","[""purple"",""red"",""high nameability""]","3","high nameability","28","left","audio_feedback","1"
"html-button-response","140","649585","0.0-108.0","CKN_142","142","","","","","","null","<button class=""jspsych-btn""><img src=""stimuli/white_square.png"" style=""width: 200px;height: 200px;""></button>","null","purple","red","[""purple"",""red"",""high nameability""]","left-right","[""purple"",""red"",""high nameability""]","3","high nameability","28","left","iti",""
"html-button-response","141","652128","0.0-109.0","CKN_142","142","","","","","","2530","","0","purple","brown","[""purple"",""brown"",""high nameability""]","left-right","[""purple"",""brown"",""high nameability""]","3","high nameability","29","left","trigger",""
"html-button-response","142","653570","0.0-110.0-0.0","CKN_142","142","","","","","","1433","<button class=""jspsych-btn""><img src=""stimuli/purple.png"" style=""width: 200px;height: 200px;""></button>","0","purple","brown","[""purple"",""brown"",""high nameability""]","left-right","[""purple"",""brown"",""high nameability""]","3","high nameability","29","left","response","1"
"html-audio-button-response","143","653774","0.0-110.0-1.0","CKN_142","142","","","","","","null","stimuli/bleep.m4a","null","purple","brown","[""purple"",""brown"",""high nameability""]","left-right","[""purple"",""brown"",""high nameability""]","3","high nameability","29","left","audio_feedback","1"
"html-button-response","144","654291","0.0-111.0","CKN_142","142","","","","","","null","<button class=""jspsych-btn""><img src=""stimuli/white_square.png"" style=""width: 200px;height: 200px;""></button>","null","purple","brown","[""purple"",""brown"",""high nameability""]","left-right","[""purple"",""brown"",""high nameability""]","3","high nameability","29","left","iti",""
"html-button-response","145","658546","0.0-112.0","CKN_142","142","","","","","","4245","","0","darkgreenblue","turquoise","[""darkgreenblue"",""turquoise"",""low nameability""]","right-left","[""turquoise"",""darkgreenblue""]","3","low nameability","30","right","trigger",""
"html-button-response","146","660764","0.0-113.0-0.0","CKN_142","142","","","","","","2208","<button class=""jspsych-btn""><img src=""stimuli/darkgreenblue.png"" style=""width: 200px;height: 200px;""></button>","1","darkgreenblue","turquoise","[""darkgreenblue"",""turquoise"",""low nameability""]","right-left","[""turquoise"",""darkgreenblue""]","3","low nameability","30","right","response","1"
"html-audio-button-response","147","660972","0.0-113.0-1.0","CKN_142","142","","","","","","null","stimuli/bleep.m4a","null","darkgreenblue","turquoise","[""darkgreenblue"",""turquoise"",""low nameability""]","right-left","[""turquoise"",""darkgreenblue""]","3","low nameability","30","right","audio_feedback","1"
"html-button-response","148","661483","0.0-114.0","CKN_142","142","","","","","","null","<button class=""jspsych-btn""><img src=""stimuli/white_square.png"" style=""width: 200px;height: 200px;""></button>","null","darkgreenblue","turquoise","[""darkgreenblue"",""turquoise"",""low nameability""]","right-left","[""turquoise"",""darkgreenblue""]","3","low nameability","30","right","iti",""
"pavlovia","149","661558","0.0-115.0","CKN_142","142","","","","","","","","","","","","","","","","","","",""
"pavlovia","150","661565","0.0-116.0","CKN_142","142","","","","","","","","","","","","","","","","","","",""
"html-audio-button-response","151","666108","0.0-117.0","CKN_142","142","","","","","","4608","stimuli/tada.m4a","0","","","","","","","","","","",""
"html-button-response","152","666692","0.0-118.0","CKN_142","142","","","","","","578","","0","","","","","","","","","","",""
"html-button-response","153","668359","0.0-119.0","CKN_142","142","","","","","","1657","","0","pink","darkgreenblue","[""pink"",""darkgreenblue"",""low nameability""]","right-left","[""darkgreenblue"",""pink""]","4","low nameability","31","right","trigger",""
"html-button-response","154","669950","0.0-120.0-0.0","CKN_142","142","","","","","","1583","<button class=""jspsych-btn""><img src=""stimuli/pink.png"" style=""width: 200px;height: 200px;""></button>","1","pink","darkgreenblue","[""pink"",""darkgreenblue"",""low nameability""]","right-left","[""darkgreenblue"",""pink""]","4","low nameability","31","right","response","1"
"html-audio-button-response","155","670156","0.0-120.0-1.0","CKN_142","142","","","","","","null","stimuli/bleep.m4a","null","pink","darkgreenblue","[""pink"",""darkgreenblue"",""low nameability""]","right-left","[""darkgreenblue"",""pink""]","4","low nameability","31","right","audio_feedback","1"
"html-button-response","156","670671","0.0-121.0","CKN_142","142","","","","","","null","<button class=""jspsych-btn""><img src=""stimuli/white_square.png"" style=""width: 200px;height: 200px;""></button>","null","pink","darkgreenblue","[""pink"",""darkgreenblue"",""low nameability""]","right-left","[""darkgreenblue"",""pink""]","4","low nameability","31","right","iti",""
"html-button-response","157","672278","0.0-122.0","CKN_142","142","","","","","","1596","","0","pink","neonyellow","[""pink"",""neonyellow"",""low nameability""]","right-left","[""neonyellow"",""pink""]","4","low nameability","32","right","trigger",""
"html-button-response","158","673620","0.0-123.0-0.0","CKN_142","142","","","","","","1331","<button class=""jspsych-btn""><img src=""stimuli/pink.png"" style=""width: 200px;height: 200px;""></button>","1","pink","neonyellow","[""pink"",""neonyellow"",""low nameability""]","right-left","[""neonyellow"",""pink""]","4","low nameability","32","right","response","1"
"html-audio-button-response","159","673828","0.0-123.0-1.0","CKN_142","142","","","","","","null","stimuli/bleep.m4a","null","pink","neonyellow","[""pink"",""neonyellow"",""low nameability""]","right-left","[""neonyellow"",""pink""]","4","low nameability","32","right","audio_feedback","1"
"html-button-response","160","674339","0.0-124.0","CKN_142","142","","","","","","null","<button class=""jspsych-btn""><img src=""stimuli/white_square.png"" style=""width: 200px;height: 200px;""></button>","null","pink","neonyellow","[""pink"",""neonyellow"",""low nameability""]","right-left","[""neonyellow"",""pink""]","4","low nameability","32","right","iti",""
"html-button-response","161","676720","0.0-125.0","CKN_142","142","","","","","","2367","","0","red","yellow","[""red"",""yellow"",""high nameability""]","right-left","[""yellow"",""red""]","4","high nameability","33","right","trigger",""
"html-button-response","162","678028","0.0-126.0-0.0","CKN_142","142","","","","","","1298","<button class=""jspsych-btn""><img src=""stimuli/red.png"" style=""width: 200px;height: 200px;""></button>","1","red","yellow","[""red"",""yellow"",""high nameability""]","right-left","[""yellow"",""red""]","4","high nameability","33","right","response","1"
"html-audio-button-response","163","678230","0.0-126.0-1.0","CKN_142","142","","","","","","null","stimuli/bleep.m4a","null","red","yellow","[""red"",""yellow"",""high nameability""]","right-left","[""yellow"",""red""]","4","high nameability","33","right","audio_feedback","1"
"html-button-response","164","678740","0.0-127.0","CKN_142","142","","","","","","null","<button class=""jspsych-btn""><img src=""stimuli/white_square.png"" style=""width: 200px;height: 200px;""></button>","null","red","yellow","[""red"",""yellow"",""high nameability""]","right-left","[""yellow"",""red""]","4","high nameability","33","right","iti",""
"html-button-response","165","680119","0.0-128.0","CKN_142","142","","","","","","1366","","0","blue","orange","[""blue"",""orange"",""high nameability""]","left-right","[""blue"",""orange"",""high nameability""]","4","high nameability","34","left","trigger",""
"html-button-response","166","682293","0.0-129.0-0.0","CKN_142","142","","","","","","2163","<button class=""jspsych-btn""><img src=""stimuli/blue.png"" style=""width: 200px;height: 200px;""></button>","0","blue","orange","[""blue"",""orange"",""high nameability""]","left-right","[""blue"",""orange"",""high nameability""]","4","high nameability","34","left","response","1"
"html-audio-button-response","167","682500","0.0-129.0-1.0","CKN_142","142","","","","","","null","stimuli/bleep.m4a","null","blue","orange","[""blue"",""orange"",""high nameability""]","left-right","[""blue"",""orange"",""high nameability""]","4","high nameability","34","left","audio_feedback","1"
"html-button-response","168","683011","0.0-130.0","CKN_142","142","","","","","","null","<button class=""jspsych-btn""><img src=""stimuli/white_square.png"" style=""width: 200px;height: 200px;""></button>","null","blue","orange","[""blue"",""orange"",""high nameability""]","left-right","[""blue"",""orange"",""high nameability""]","4","high nameability","34","left","iti",""
"html-button-response","169","685428","0.0-131.0","CKN_142","142","","","","","","2402","","0","mustard","turquoise","[""mustard"",""turquoise"",""low nameability""]","left-right","[""mustard"",""turquoise"",""low nameability""]","4","low nameability","35","left","trigger",""
"html-button-response","170","686991","0.0-132.0-0.0","CKN_142","142","","","","","","1555","<button class=""jspsych-btn""><img src=""stimuli/mustard.png"" style=""width: 200px;height: 200px;""></button>","0","mustard","turquoise","[""mustard"",""turquoise"",""low nameability""]","left-right","[""mustard"",""turquoise"",""low nameability""]","4","low nameability","35","left","response","1"
"html-audio-button-response","171","687194","0.0-132.0-1.0","CKN_142","142","","","","","","null","stimuli/bleep.m4a","null","mustard","turquoise","[""mustard"",""turquoise"",""low nameability""]","left-right","[""mustard"",""turquoise"",""low nameability""]","4","low nameability","35","left","audio_feedback","1"
"html-button-response","172","687707","0.0-133.0","CKN_142","142","","","","","","null","<button class=""jspsych-btn""><img src=""stimuli/white_square.png"" style=""width: 200px;height: 200px;""></button>","null","mustard","turquoise","[""mustard"",""turquoise"",""low nameability""]","left-right","[""mustard"",""turquoise"",""low nameability""]","4","low nameability","35","left","iti",""
"html-button-response","173","689037","0.0-134.0","CKN_142","142","","","","","","1314","","0","blue","purple","[""blue"",""purple"",""high nameability""]","right-left","[""purple"",""blue""]","4","high nameability","36","right","trigger",""
"html-button-response","174","691819","0.0-135.0-0.0","CKN_142","142","","","","","","2774","<button class=""jspsych-btn""><img src=""stimuli/blue.png"" style=""width: 200px;height: 200px;""></button>","1","blue","purple","[""blue"",""purple"",""high nameability""]","right-left","[""purple"",""blue""]","4","high nameability","36","right","response","1"
"html-audio-button-response","175","692028","0.0-135.0-1.0","CKN_142","142","","","","","","null","stimuli/bleep.m4a","null","blue","purple","[""blue"",""purple"",""high nameability""]","right-left","[""purple"",""blue""]","4","high nameability","36","right","audio_feedback","1"
"html-button-response","176","692545","0.0-136.0","CKN_142","142","","","","","","null","<button class=""jspsych-btn""><img src=""stimuli/white_square.png"" style=""width: 200px;height: 200px;""></button>","null","blue","purple","[""blue"",""purple"",""high nameability""]","right-left","[""purple"",""blue""]","4","high nameability","36","right","iti",""
"html-button-response","177","694060","0.0-137.0","CKN_142","142","","","","","","1502","","0","orange","blue","[""orange"",""blue"",""high nameability""]","right-left","[""blue"",""orange""]","4","high nameability","37","right","trigger",""
"html-button-response","178","695657","0.0-138.0-0.0","CKN_142","142","","","","","","1590","<button class=""jspsych-btn""><img src=""stimuli/orange.png"" style=""width: 200px;height: 200px;""></button>","1","orange","blue","[""orange"",""blue"",""high nameability""]","right-left","[""blue"",""orange""]","4","high nameability","37","right","response","1"
"html-audio-button-response","179","695864","0.0-138.0-1.0","CKN_142","142","","","","","","null","stimuli/bleep.m4a","null","orange","blue","[""orange"",""blue"",""high nameability""]","right-left","[""blue"",""orange""]","4","high nameability","37","right","audio_feedback","1"
"html-button-response","180","696376","0.0-139.0","CKN_142","142","","","","","","null","<button class=""jspsych-btn""><img src=""stimuli/white_square.png"" style=""width: 200px;height: 200px;""></button>","null","orange","blue","[""orange"",""blue"",""high nameability""]","right-left","[""blue"",""orange""]","4","high nameability","37","right","iti",""
"html-button-response","181","698555","0.0-140.0","CKN_142","142","","","","","","2165","","0","brown","blue","[""brown"",""blue"",""high nameability""]","left-right","[""brown"",""blue"",""high nameability""]","4","high nameability","38","left","trigger",""
"html-button-response","182","700688","0.0-141.0-0.0","CKN_142","142","","","","","","2121","<button class=""jspsych-btn""><img src=""stimuli/brown.png"" style=""width: 200px;height: 200px;""></button>","0","brown","blue","[""brown"",""blue"",""high nameability""]","left-right","[""brown"",""blue"",""high nameability""]","4","high nameability","38","left","response","1"
"html-audio-button-response","183","700893","0.0-141.0-1.0","CKN_142","142","","","","","","null","stimuli/bleep.m4a","null","brown","blue","[""brown"",""blue"",""high nameability""]","left-right","[""brown"",""blue"",""high nameability""]","4","high nameability","38","left","audio_feedback","1"
"html-button-response","184","701405","0.0-142.0","CKN_142","142","","","","","","null","<button class=""jspsych-btn""><img src=""stimuli/white_square.png"" style=""width: 200px;height: 200px;""></button>","null","brown","blue","[""brown"",""blue"",""high nameability""]","left-right","[""brown"",""blue"",""high nameability""]","4","high nameability","38","left","iti",""
"html-button-response","185","702817","0.0-143.0","CKN_142","142","","","","","","1396","","0","lightred","turquoise","[""lightred"",""turquoise"",""low nameability""]","right-left","[""turquoise"",""lightred""]","4","low nameability","39","right","trigger",""
"html-button-response","186","704572","0.0-144.0-0.0","CKN_142","142","","","","","","1748","<button class=""jspsych-btn""><img src=""stimuli/lightred.png"" style=""width: 200px;height: 200px;""></button>","1","lightred","turquoise","[""lightred"",""turquoise"",""low nameability""]","right-left","[""turquoise"",""lightred""]","4","low nameability","39","right","response","1"
"html-audio-button-response","187","704784","0.0-144.0-1.0","CKN_142","142","","","","","","null","stimuli/bleep.m4a","null","lightred","turquoise","[""lightred"",""turquoise"",""low nameability""]","right-left","[""turquoise"",""lightred""]","4","low nameability","39","right","audio_feedback","1"
"html-button-response","188","705299","0.0-145.0","CKN_142","142","","","","","","null","<button class=""jspsych-btn""><img src=""stimuli/white_square.png"" style=""width: 200px;height: 200px;""></button>","null","lightred","turquoise","[""lightred"",""turquoise"",""low nameability""]","right-left","[""turquoise"",""lightred""]","4","low nameability","39","right","iti",""
"html-button-response","189","706490","0.0-146.0","CKN_142","142","","","","","","1175","","0","brown","orange","[""brown"",""orange"",""high nameability""]","right-left","[""orange"",""brown""]","4","high nameability","40","right","trigger",""
"html-button-response","190","707836","0.0-147.0-0.0","CKN_142","142","","","","","","1335","<button class=""jspsych-btn""><img src=""stimuli/brown.png"" style=""width: 200px;height: 200px;""></button>","1","brown","orange","[""brown"",""orange"",""high nameability""]","right-left","[""orange"",""brown""]","4","high nameability","40","right","response","1"
"html-audio-button-response","191","708041","0.0-147.0-1.0","CKN_142","142","","","","","","null","stimuli/bleep.m4a","null","brown","orange","[""brown"",""orange"",""high nameability""]","right-left","[""orange"",""brown""]","4","high nameability","40","right","audio_feedback","1"
"html-button-response","192","708549","0.0-148.0","CKN_142","142","","","","","","null","<button class=""jspsych-btn""><img src=""stimuli/white_square.png"" style=""width: 200px;height: 200px;""></button>","null","brown","orange","[""brown"",""orange"",""high nameability""]","right-left","[""orange"",""brown""]","4","high nameability","40","right","iti",""
"pavlovia","193","708571","0.0-149.0","CKN_142","142","","","","","","","","","","","","","","","","","","",""
"pavlovia","194","708575","0.0-150.0","CKN_142","142","","","","","","","","","","","","","","","","","","",""
"html-audio-button-response","195","712426","0.0-151.0","CKN_142","142","","","","","","3872","stimuli/tada.m4a","0","","","","","","","","","","",""
"html-button-response","196","712994","0.0-152.0","CKN_142","142","","","","","","557","","0","","","","","","","","","","",""
"html-button-response","197","714656","0.0-153.0","CKN_142","142","","","","","","1653","","0","darkgreenblue","mustard","[""darkgreenblue"",""mustard"",""low nameability""]","left-right","[""darkgreenblue"",""mustard"",""low nameability""]","5","low nameability","41","left","trigger",""
"html-button-response","198","716123","0.0-154.0-0.0","CKN_142","142","","","","","","1457","<button class=""jspsych-btn""><img src=""stimuli/darkgreenblue.png"" style=""width: 200px;height: 200px;""></button>","0","darkgreenblue","mustard","[""darkgreenblue"",""mustard"",""low nameability""]","left-right","[""darkgreenblue"",""mustard"",""low nameability""]","5","low nameability","41","left","response","1"
"html-audio-button-response","199","716334","0.0-154.0-1.0","CKN_142","142","","","","","","null","stimuli/bleep.m4a","null","darkgreenblue","mustard","[""darkgreenblue"",""mustard"",""low nameability""]","left-right","[""darkgreenblue"",""mustard"",""low nameability""]","5","low nameability","41","left","audio_feedback","1"
"html-button-response","200","716847","0.0-155.0","CKN_142","142","","","","","","null","<button class=""jspsych-btn""><img src=""stimuli/white_square.png"" style=""width: 200px;height: 200px;""></button>","null","darkgreenblue","mustard","[""darkgreenblue"",""mustard"",""low nameability""]","left-right","[""darkgreenblue"",""mustard"",""low nameability""]","5","low nameability","41","left","iti",""
"html-button-response","201","717750","0.0-156.0","CKN_142","142","","","","","","892","","0","lightred","darkgreenblue","[""lightred"",""darkgreenblue"",""low nameability""]","left-right","[""lightred"",""darkgreenblue"",""low nameability""]","5","low nameability","42","left","trigger",""
"html-button-response","202","719289","0.0-157.0-0.0","CKN_142","142","","","","","","1530","<button class=""jspsych-btn""><img src=""stimuli/lightred.png"" style=""width: 200px;height: 200px;""></button>","0","lightred","darkgreenblue","[""lightred"",""darkgreenblue"",""low nameability""]","left-right","[""lightred"",""darkgreenblue"",""low nameability""]","5","low nameability","42","left","response","1"
"html-audio-button-response","203","719495","0.0-157.0-1.0","CKN_142","142","","","","","","null","stimuli/bleep.m4a","null","lightred","darkgreenblue","[""lightred"",""darkgreenblue"",""low nameability""]","left-right","[""lightred"",""darkgreenblue"",""low nameability""]","5","low nameability","42","left","audio_feedback","1"
"html-button-response","204","720010","0.0-158.0","CKN_142","142","","","","","","null","<button class=""jspsych-btn""><img src=""stimuli/white_square.png"" style=""width: 200px;height: 200px;""></button>","null","lightred","darkgreenblue","[""lightred"",""darkgreenblue"",""low nameability""]","left-right","[""lightred"",""darkgreenblue"",""low nameability""]","5","low nameability","42","left","iti",""
"html-button-response","205","721964","0.0-159.0","CKN_142","142","","","","","","1941","","0","turquoise","lightred","[""turquoise"",""lightred"",""low nameability""]","right-left","[""lightred"",""turquoise""]","5","low nameability","43","right","trigger",""
"html-button-response","206","723576","0.0-160.0-0.0","CKN_142","142","","","","","","1601","<button class=""jspsych-btn""><img src=""stimuli/turquoise.png"" style=""width: 200px;height: 200px;""></button>","1","turquoise","lightred","[""turquoise"",""lightred"",""low nameability""]","right-left","[""lightred"",""turquoise""]","5","low nameability","43","right","response","1"
"html-audio-button-response","207","723784","0.0-160.0-1.0","CKN_142","142","","","","","","null","stimuli/bleep.m4a","null","turquoise","lightred","[""turquoise"",""lightred"",""low nameability""]","right-left","[""lightred"",""turquoise""]","5","low nameability","43","right","audio_feedback","1"
"html-button-response","208","724301","0.0-161.0","CKN_142","142","","","","","","null","<button class=""jspsych-btn""><img src=""stimuli/white_square.png"" style=""width: 200px;height: 200px;""></button>","null","turquoise","lightred","[""turquoise"",""lightred"",""low nameability""]","right-left","[""lightred"",""turquoise""]","5","low nameability","43","right","iti",""
"html-button-response","209","725369","0.0-162.0","CKN_142","142","","","","","","1055","","0","mustard","darkgreenblue","[""mustard"",""darkgreenblue"",""low nameability""]","left-right","[""mustard"",""darkgreenblue"",""low nameability""]","5","low nameability","44","left","trigger",""
"html-button-response","210","727195","0.0-163.0-0.0","CKN_142","142","","","","","","1818","<button class=""jspsych-btn""><img src=""stimuli/mustard.png"" style=""width: 200px;height: 200px;""></button>","0","mustard","darkgreenblue","[""mustard"",""darkgreenblue"",""low nameability""]","left-right","[""mustard"",""darkgreenblue"",""low nameability""]","5","low nameability","44","left","response","1"
"html-audio-button-response","211","727398","0.0-163.0-1.0","CKN_142","142","","","","","","null","stimuli/bleep.m4a","null","mustard","darkgreenblue","[""mustard"",""darkgreenblue"",""low nameability""]","left-right","[""mustard"",""darkgreenblue"",""low nameability""]","5","low nameability","44","left","audio_feedback","1"
"html-button-response","212","727912","0.0-164.0","CKN_142","142","","","","","","null","<button class=""jspsych-btn""><img src=""stimuli/white_square.png"" style=""width: 200px;height: 200px;""></button>","null","mustard","darkgreenblue","[""mustard"",""darkgreenblue"",""low nameability""]","left-right","[""mustard"",""darkgreenblue"",""low nameability""]","5","low nameability","44","left","iti",""
"html-button-response","213","729390","0.0-165.0","CKN_142","142","","","","","","1464","","0","orange","purple","[""orange"",""purple"",""high nameability""]","left-right","[""orange"",""purple"",""high nameability""]","5","high nameability","45","left","trigger",""
"html-button-response","214","732050","0.0-166.0-0.0","CKN_142","142","","","","","","2650","<button class=""jspsych-btn""><img src=""stimuli/orange.png"" style=""width: 200px;height: 200px;""></button>","0","orange","purple","[""orange"",""purple"",""high nameability""]","left-right","[""orange"",""purple"",""high nameability""]","5","high nameability","45","left","response","1"
"html-audio-button-response","215","732259","0.0-166.0-1.0","CKN_142","142","","","","","","null","stimuli/bleep.m4a","null","orange","purple","[""orange"",""purple"",""high nameability""]","left-right","[""orange"",""purple"",""high nameability""]","5","high nameability","45","left","audio_feedback","1"
"html-button-response","216","732772","0.0-167.0","CKN_142","142","","","","","","null","<button class=""jspsych-btn""><img src=""stimuli/white_square.png"" style=""width: 200px;height: 200px;""></button>","null","orange","purple","[""orange"",""purple"",""high nameability""]","left-right","[""orange"",""purple"",""high nameability""]","5","high nameability","45","left","iti",""
"html-button-response","217","735845","0.0-168.0","CKN_142","142","","","","","","3062","","0","red","orange","[""red"",""orange"",""high nameability""]","left-right","[""red"",""orange"",""high nameability""]","5","high nameability","46","left","trigger",""
"html-button-response","218","739742","0.0-169.0-0.0","CKN_142","142","","","","","","3891","<button class=""jspsych-btn""><img src=""stimuli/red.png"" style=""width: 200px;height: 200px;""></button>","0","red","orange","[""red"",""orange"",""high nameability""]","left-right","[""red"",""orange"",""high nameability""]","5","high nameability","46","left","response","1"
"html-audio-button-response","219","739940","0.0-169.0-1.0","CKN_142","142","","","","","","null","stimuli/bleep.m4a","null","red","orange","[""red"",""orange"",""high nameability""]","left-right","[""red"",""orange"",""high nameability""]","5","high nameability","46","left","audio_feedback","1"
"html-button-response","220","740452","0.0-170.0","CKN_142","142","","","","","","null","<button class=""jspsych-btn""><img src=""stimuli/white_square.png"" style=""width: 200px;height: 200px;""></button>","null","red","orange","[""red"",""orange"",""high nameability""]","left-right","[""red"",""orange"",""high nameability""]","5","high nameability","46","left","iti",""
"html-button-response","221","741587","0.0-171.0","CKN_142","142","","","","","","1121","","0","pink","mustard","[""pink"",""mustard"",""low nameability""]","right-left","[""mustard"",""pink""]","5","low nameability","47","right","trigger",""
"html-button-response","222","743035","0.0-172.0-0.0","CKN_142","142","","","","","","1439","<button class=""jspsych-btn""><img src=""stimuli/pink.png"" style=""width: 200px;height: 200px;""></button>","0","pink","mustard","[""pink"",""mustard"",""low nameability""]","right-left","[""mustard"",""pink""]","5","low nameability","47","right","response","0"
"html-audio-button-response","223","743667","0.0-172.0-1.0","CKN_142","142","","","","","","null","stimuli/boing.m4a","null","pink","mustard","[""pink"",""mustard"",""low nameability""]","right-left","[""mustard"",""pink""]","5","low nameability","47","right","audio_feedback","0"
"html-button-response","224","748312","0.0-172.1-0.1","CKN_142","142","","","","","","4632","<button class=""jspsych-btn""><img src=""stimuli/pink.png"" style=""width: 200px;height: 200px;""></button>","1","pink","mustard","[""pink"",""mustard"",""low nameability""]","right-left","[""mustard"",""pink""]","5","low nameability","47","right","response","1"
"html-audio-button-response","225","748515","0.0-172.1-1.1","CKN_142","142","","","","","","null","stimuli/bleep.m4a","null","pink","mustard","[""pink"",""mustard"",""low nameability""]","right-left","[""mustard"",""pink""]","5","low nameability","47","right","audio_feedback","1"
"html-button-response","226","749029","0.0-173.0","CKN_142","142","","","","","","null","<button class=""jspsych-btn""><img src=""stimuli/white_square.png"" style=""width: 200px;height: 200px;""></button>","null","pink","mustard","[""pink"",""mustard"",""low nameability""]","right-left","[""mustard"",""pink""]","5","low nameability","47","right","iti",""
"html-button-response","227","754532","0.0-174.0","CKN_142","142","","","","","","5487","","0","yellow","purple","[""yellow"",""purple"",""high nameability""]","right-left","[""purple"",""yellow""]","5","high nameability","48","right","trigger",""
"html-button-response","228","756391","0.0-175.0-0.0","CKN_142","142","","","","","","1852","<button class=""jspsych-btn""><img src=""stimuli/yellow.png"" style=""width: 200px;height: 200px;""></button>","1","yellow","purple","[""yellow"",""purple"",""high nameability""]","right-left","[""purple"",""yellow""]","5","high nameability","48","right","response","1"
"html-audio-button-response","229","756595","0.0-175.0-1.0","CKN_142","142","","","","","","null","stimuli/bleep.m4a","null","yellow","purple","[""yellow"",""purple"",""high nameability""]","right-left","[""purple"",""yellow""]","5","high nameability","48","right","audio_feedback","1"
"html-button-response","230","757106","0.0-176.0","CKN_142","142","","","","","","null","<button class=""jspsych-btn""><img src=""stimuli/white_square.png"" style=""width: 200px;height: 200px;""></button>","null","yellow","purple","[""yellow"",""purple"",""high nameability""]","right-left","[""purple"",""yellow""]","5","high nameability","48","right","iti",""
"html-button-response","231","758526","0.0-177.0","CKN_142","142","","","","","","1409","","0","neonyellow","darkgreenblue","[""neonyellow"",""darkgreenblue"",""low nameability""]","left-right","[""neonyellow"",""darkgreenblue"",""low nameability""]","5","low nameability","49","left","trigger",""
"html-button-response","232","761939","0.0-178.0-0.0","CKN_142","142","","","","","","3402","<button class=""jspsych-btn""><img src=""stimuli/neonyellow.png"" style=""width: 200px;height: 200px;""></button>","0","neonyellow","darkgreenblue","[""neonyellow"",""darkgreenblue"",""low nameability""]","left-right","[""neonyellow"",""darkgreenblue"",""low nameability""]","5","low nameability","49","left","response","1"
"html-audio-button-response","233","762142","0.0-178.0-1.0","CKN_142","142","","","","","","null","stimuli/bleep.m4a","null","neonyellow","darkgreenblue","[""neonyellow"",""darkgreenblue"",""low nameability""]","left-right","[""neonyellow"",""darkgreenblue"",""low nameability""]","5","low nameability","49","left","audio_feedback","1"
"html-button-response","234","762656","0.0-179.0","CKN_142","142","","","","","","null","<button class=""jspsych-btn""><img src=""stimuli/white_square.png"" style=""width: 200px;height: 200px;""></button>","null","neonyellow","darkgreenblue","[""neonyellow"",""darkgreenblue"",""low nameability""]","left-right","[""neonyellow"",""darkgreenblue"",""low nameability""]","5","low nameability","49","left","iti",""
"html-button-response","235","765709","0.0-180.0","CKN_142","142","","","","","","3039","","0","red","purple","[""red"",""purple"",""high nameability""]","left-right","[""red"",""purple"",""high nameability""]","5","high nameability","50","left","trigger",""
"html-button-response","236","767177","0.0-181.0-0.0","CKN_142","142","","","","","","1459","<button class=""jspsych-btn""><img src=""stimuli/red.png"" style=""width: 200px;height: 200px;""></button>","0","red","purple","[""red"",""purple"",""high nameability""]","left-right","[""red"",""purple"",""high nameability""]","5","high nameability","50","left","response","1"
"html-audio-button-response","237","767380","0.0-181.0-1.0","CKN_142","142","","","","","","null","stimuli/bleep.m4a","null","red","purple","[""red"",""purple"",""high nameability""]","left-right","[""red"",""purple"",""high nameability""]","5","high nameability","50","left","audio_feedback","1"
"html-button-response","238","767891","0.0-182.0","CKN_142","142","","","","","","null","<button class=""jspsych-btn""><img src=""stimuli/white_square.png"" style=""width: 200px;height: 200px;""></button>","null","red","purple","[""red"",""purple"",""high nameability""]","left-right","[""red"",""purple"",""high nameability""]","5","high nameability","50","left","iti",""
"pavlovia","239","767945","0.0-183.0","CKN_142","142","","","","","","","","","","","","","","","","","","",""
"pavlovia","240","767950","0.0-184.0","CKN_142","142","","","","","","","","","","","","","","","","","","",""
"html-audio-button-response","241","772390","0.0-185.0","CKN_142","142","","","","","","4472","stimuli/tada.m4a","0","","","","","","","","","","",""
"html-button-response","242","772891","0.0-186.0","CKN_142","142","","","","","","495","","0","","","","","","","","","","",""
"html-button-response","243","774494","0.0-187.0","CKN_142","142","","","","","","1596","","0","yellow","blue","[""yellow"",""blue"",""high nameability""]","right-left","[""blue"",""yellow""]","6","high nameability","51","right","trigger",""
"html-button-response","244","776195","0.0-188.0-0.0","CKN_142","142","","","","","","1691","<button class=""jspsych-btn""><img src=""stimuli/yellow.png"" style=""width: 200px;height: 200px;""></button>","1","yellow","blue","[""yellow"",""blue"",""high nameability""]","right-left","[""blue"",""yellow""]","6","high nameability","51","right","response","1"
"html-audio-button-response","245","776400","0.0-188.0-1.0","CKN_142","142","","","","","","null","stimuli/bleep.m4a","null","yellow","blue","[""yellow"",""blue"",""high nameability""]","right-left","[""blue"",""yellow""]","6","high nameability","51","right","audio_feedback","1"
"html-button-response","246","776919","0.0-189.0","CKN_142","142","","","","","","null","<button class=""jspsych-btn""><img src=""stimuli/white_square.png"" style=""width: 200px;height: 200px;""></button>","null","yellow","blue","[""yellow"",""blue"",""high nameability""]","right-left","[""blue"",""yellow""]","6","high nameability","51","right","iti",""
"html-button-response","247","781257","0.0-190.0","CKN_142","142","","","","","","4325","","0","yellow","brown","[""yellow"",""brown"",""high nameability""]","right-left","[""brown"",""yellow""]","6","high nameability","52","right","trigger",""
"html-button-response","248","782959","0.0-191.0-0.0","CKN_142","142","","","","","","1695","<button class=""jspsych-btn""><img src=""stimuli/yellow.png"" style=""width: 200px;height: 200px;""></button>","1","yellow","brown","[""yellow"",""brown"",""high nameability""]","right-left","[""brown"",""yellow""]","6","high nameability","52","right","response","1"
"html-audio-button-response","249","783168","0.0-191.0-1.0","CKN_142","142","","","","","","null","stimuli/bleep.m4a","null","yellow","brown","[""yellow"",""brown"",""high nameability""]","right-left","[""brown"",""yellow""]","6","high nameability","52","right","audio_feedback","1"
"html-button-response","250","783685","0.0-192.0","CKN_142","142","","","","","","null","<button class=""jspsych-btn""><img src=""stimuli/white_square.png"" style=""width: 200px;height: 200px;""></button>","null","yellow","brown","[""yellow"",""brown"",""high nameability""]","right-left","[""brown"",""yellow""]","6","high nameability","52","right","iti",""
"html-button-response","251","785984","0.0-193.0","CKN_142","142","","","","","","2287","","0","brown","purple","[""brown"",""purple"",""high nameability""]","right-left","[""purple"",""brown""]","6","high nameability","53","right","trigger",""
"html-button-response","252","790064","0.0-194.0-0.0","CKN_142","142","","","","","","4067","<button class=""jspsych-btn""><img src=""stimuli/brown.png"" style=""width: 200px;height: 200px;""></button>","1","brown","purple","[""brown"",""purple"",""high nameability""]","right-left","[""purple"",""brown""]","6","high nameability","53","right","response","1"
"html-audio-button-response","253","790272","0.0-194.0-1.0","CKN_142","142","","","","","","null","stimuli/bleep.m4a","null","brown","purple","[""brown"",""purple"",""high nameability""]","right-left","[""purple"",""brown""]","6","high nameability","53","right","audio_feedback","1"
"html-button-response","254","790794","0.0-195.0","CKN_142","142","","","","","","null","<button class=""jspsych-btn""><img src=""stimuli/white_square.png"" style=""width: 200px;height: 200px;""></button>","null","brown","purple","[""brown"",""purple"",""high nameability""]","right-left","[""purple"",""brown""]","6","high nameability","53","right","iti",""
"html-button-response","255","794011","0.0-196.0","CKN_142","142","","","","","","3207","","0","red","brown","[""red"",""brown"",""high nameability""]","left-right","[""red"",""brown"",""high nameability""]","6","high nameability","54","left","trigger",""
"html-button-response","256","796809","0.0-197.0-0.0","CKN_142","142","","","","","","2791","<button class=""jspsych-btn""><img src=""stimuli/red.png"" style=""width: 200px;height: 200px;""></button>","0","red","brown","[""red"",""brown"",""high nameability""]","left-right","[""red"",""brown"",""high nameability""]","6","high nameability","54","left","response","1"
"html-audio-button-response","257","797013","0.0-197.0-1.0","CKN_142","142","","","","","","null","stimuli/bleep.m4a","null","red","brown","[""red"",""brown"",""high nameability""]","left-right","[""red"",""brown"",""high nameability""]","6","high nameability","54","left","audio_feedback","1"
"html-button-response","258","797530","0.0-198.0","CKN_142","142","","","","","","null","<button class=""jspsych-btn""><img src=""stimuli/white_square.png"" style=""width: 200px;height: 200px;""></button>","null","red","brown","[""red"",""brown"",""high nameability""]","left-right","[""red"",""brown"",""high nameability""]","6","high nameability","54","left","iti",""
"html-button-response","259","798744","0.0-199.0","CKN_142","142","","","","","","1202","","0","purple","orange","[""purple"",""orange"",""high nameability""]","right-left","[""orange"",""purple""]","6","high nameability","55","right","trigger",""
"html-button-response","260","802503","0.0-200.0-0.0","CKN_142","142","","","","","","3751","<button class=""jspsych-btn""><img src=""stimuli/purple.png"" style=""width: 200px;height: 200px;""></button>","1","purple","orange","[""purple"",""orange"",""high nameability""]","right-left","[""orange"",""purple""]","6","high nameability","55","right","response","1"
"html-audio-button-response","261","802708","0.0-200.0-1.0","CKN_142","142","","","","","","null","stimuli/bleep.m4a","null","purple","orange","[""purple"",""orange"",""high nameability""]","right-left","[""orange"",""purple""]","6","high nameability","55","right","audio_feedback","1"
"html-button-response","262","803230","0.0-201.0","CKN_142","142","","","","","","null","<button class=""jspsych-btn""><img src=""stimuli/white_square.png"" style=""width: 200px;height: 200px;""></button>","null","purple","orange","[""purple"",""orange"",""high nameability""]","right-left","[""orange"",""purple""]","6","high nameability","55","right","iti",""
"html-button-response","263","804679","0.0-202.0","CKN_142","142","","","","","","1439","","0","neonyellow","turquoise","[""neonyellow"",""turquoise"",""low nameability""]","left-right","[""neonyellow"",""turquoise"",""low nameability""]","6","low nameability","56","left","trigger",""
"html-button-response","264","808066","0.0-203.0-0.0","CKN_142","142","","","","","","3379","<button class=""jspsych-btn""><img src=""stimuli/neonyellow.png"" style=""width: 200px;height: 200px;""></button>","0","neonyellow","turquoise","[""neonyellow"",""turquoise"",""low nameability""]","left-right","[""neonyellow"",""turquoise"",""low nameability""]","6","low nameability","56","left","response","1"
"html-audio-button-response","265","808272","0.0-203.0-1.0","CKN_142","142","","","","","","null","stimuli/bleep.m4a","null","neonyellow","turquoise","[""neonyellow"",""turquoise"",""low nameability""]","left-right","[""neonyellow"",""turquoise"",""low nameability""]","6","low nameability","56","left","audio_feedback","1"
"html-button-response","266","808785","0.0-204.0","CKN_142","142","","","","","","null","<button class=""jspsych-btn""><img src=""stimuli/white_square.png"" style=""width: 200px;height: 200px;""></button>","null","neonyellow","turquoise","[""neonyellow"",""turquoise"",""low nameability""]","left-right","[""neonyellow"",""turquoise"",""low nameability""]","6","low nameability","56","left","iti",""
"html-button-response","267","815271","0.0-205.0","CKN_142","142","","","","","","6473","","0","darkgreenblue","pink","[""darkgreenblue"",""pink"",""low nameability""]","left-right","[""darkgreenblue"",""pink"",""low nameability""]","6","low nameability","57","left","trigger",""
"html-button-response","268","818070","0.0-206.0-0.0","CKN_142","142","","","","","","2793","<button class=""jspsych-btn""><img src=""stimuli/darkgreenblue.png"" style=""width: 200px;height: 200px;""></button>","0","darkgreenblue","pink","[""darkgreenblue"",""pink"",""low nameability""]","left-right","[""darkgreenblue"",""pink"",""low nameability""]","6","low nameability","57","left","response","1"
"html-audio-button-response","269","818272","0.0-206.0-1.0","CKN_142","142","","","","","","null","stimuli/bleep.m4a","null","darkgreenblue","pink","[""darkgreenblue"",""pink"",""low nameability""]","left-right","[""darkgreenblue"",""pink"",""low nameability""]","6","low nameability","57","left","audio_feedback","1"
"html-button-response","270","818787","0.0-207.0","CKN_142","142","","","","","","null","<button class=""jspsych-btn""><img src=""stimuli/white_square.png"" style=""width: 200px;height: 200px;""></button>","null","darkgreenblue","pink","[""darkgreenblue"",""pink"",""low nameability""]","left-right","[""darkgreenblue"",""pink"",""low nameability""]","6","low nameability","57","left","iti",""
"html-button-response","271","820210","0.0-208.0","CKN_142","142","","","","","","1412","","0","neonyellow","mustard","[""neonyellow"",""mustard"",""low nameability""]","left-right","[""neonyellow"",""mustard"",""low nameability""]","6","low nameability","58","left","trigger",""
"html-button-response","272","822378","0.0-209.0-0.0","CKN_142","142","","","","","","2162","<button class=""jspsych-btn""><img src=""stimuli/neonyellow.png"" style=""width: 200px;height: 200px;""></button>","0","neonyellow","mustard","[""neonyellow"",""mustard"",""low nameability""]","left-right","[""neonyellow"",""mustard"",""low nameability""]","6","low nameability","58","left","response","1"
"html-audio-button-response","273","822585","0.0-209.0-1.0","CKN_142","142","","","","","","null","stimuli/bleep.m4a","null","neonyellow","mustard","[""neonyellow"",""mustard"",""low nameability""]","left-right","[""neonyellow"",""mustard"",""low nameability""]","6","low nameability","58","left","audio_feedback","1"
"html-button-response","274","823097","0.0-210.0","CKN_142","142","","","","","","null","<button class=""jspsych-btn""><img src=""stimuli/white_square.png"" style=""width: 200px;height: 200px;""></button>","null","neonyellow","mustard","[""neonyellow"",""mustard"",""low nameability""]","left-right","[""neonyellow"",""mustard"",""low nameability""]","6","low nameability","58","left","iti",""
"html-button-response","275","825321","0.0-211.0","CKN_142","142","","","","","","2212","","0","turquoise","darkgreenblue","[""turquoise"",""darkgreenblue"",""low nameability""]","right-left","[""darkgreenblue"",""turquoise""]","6","low nameability","59","right","trigger",""
"html-button-response","276","829792","0.0-212.0-0.0","CKN_142","142","","","","","","4465","<button class=""jspsych-btn""><img src=""stimuli/turquoise.png"" style=""width: 200px;height: 200px;""></button>","1","turquoise","darkgreenblue","[""turquoise"",""darkgreenblue"",""low nameability""]","right-left","[""darkgreenblue"",""turquoise""]","6","low nameability","59","right","response","1"
"html-audio-button-response","277","830000","0.0-212.0-1.0","CKN_142","142","","","","","","null","stimuli/bleep.m4a","null","turquoise","darkgreenblue","[""turquoise"",""darkgreenblue"",""low nameability""]","right-left","[""darkgreenblue"",""turquoise""]","6","low nameability","59","right","audio_feedback","1"
"html-button-response","278","830510","0.0-213.0","CKN_142","142","","","","","","273","<button class=""jspsych-btn""><img src=""stimuli/white_square.png"" style=""width: 200px;height: 200px;""></button>","1","turquoise","darkgreenblue","[""turquoise"",""darkgreenblue"",""low nameability""]","right-left","[""darkgreenblue"",""turquoise""]","6","low nameability","59","right","iti",""
"html-button-response","279","832796","0.0-214.0","CKN_142","142","","","","","","2274","","0","lightred","pink","[""lightred"",""pink"",""low nameability""]","right-left","[""pink"",""lightred""]","6","low nameability","60","right","trigger",""
"html-button-response","280","834389","0.0-215.0-0.0","CKN_142","142","","","","","","1585","<button class=""jspsych-btn""><img src=""stimuli/lightred.png"" style=""width: 200px;height: 200px;""></button>","1","lightred","pink","[""lightred"",""pink"",""low nameability""]","right-left","[""pink"",""lightred""]","6","low nameability","60","right","response","1"
"html-audio-button-response","281","834596","0.0-215.0-1.0","CKN_142","142","","","","","","null","stimuli/bleep.m4a","null","lightred","pink","[""lightred"",""pink"",""low nameability""]","right-left","[""pink"",""lightred""]","6","low nameability","60","right","audio_feedback","1"
"html-button-response","282","835110","0.0-216.0","CKN_142","142","","","","","","null","<button class=""jspsych-btn""><img src=""stimuli/white_square.png"" style=""width: 200px;height: 200px;""></button>","null","lightred","pink","[""lightred"",""pink"",""low nameability""]","right-left","[""pink"",""lightred""]","6","low nameability","60","right","iti",""
