"trial_type","trial_index","time_elapsed","internal_node_id","subject_id","seed","success","timeout","failed_images","failed_audio","failed_video","rt","stimulus","response","target","foil","choices","combination_order","choices_in_order","round","condition","trial_counter","target_location","trial_kind","correct"
"pavlovia","0","21","0.0-0.0","CKN_119","119","","","","","","","","","","","","","","","","","","",""
"preload","1","621","0.0-1.0","CKN_119","119","true","false","[]","[]","[]","","","","","","","","","","","","","",""
"fullscreen","2","33114","0.0-2.0","CKN_119","119","true","","","","","","","","","","","","","","","","","",""
"html-button-response","3","64793","0.0-3.0","CKN_119","119","","","","","","31662","","0","","","","","","","","","","",""
"html-button-response","4","69163","0.0-4.0","CKN_119","119","","","","","","4354","","0","star","square","[""square"",""star""]","left-right","[""square"",""star""]","1","practice","1","right","trigger",""
"html-button-response","5","73458","0.0-5.0-0.0","CKN_119","119","","","","","","4280","<button class=""jspsych-btn""><img src=""stimuli/star.png"" style=""width: 200px;height: 200px;""></button>","1","star","square","[""square"",""star""]","left-right","[""square"",""star""]","1","practice","1","right","response","1"
"html-audio-button-response","6","73678","0.0-5.0-1.0","CKN_119","119","","","","","","null","stimuli/bleep.m4a","null","star","square","[""square"",""star""]","left-right","[""square"",""star""]","1","practice","1","right","audio_feedback","1"
"html-button-response","7","74219","0.0-6.0","CKN_119","119","","","","","","null","<button class=""jspsych-btn""><img src=""stimuli/white_square.png"" style=""width: 200px;height: 200px;""></button>","null","star","square","[""square"",""star""]","left-right","[""square"",""star""]","1","practice","1","right","iti",""
"html-button-response","8","76268","0.0-7.0","CKN_119","119","","","","","","2027","","0","triangle","pentagram","[""triangle"",""pentagram""]","left-right","[""triangle"",""pentagram""]","1","practice","1","left","trigger",""
"html-button-response","9","81056","0.0-8.0-0.0","CKN_119","119","","","","","","4779","<button class=""jspsych-btn""><img src=""stimuli/triangle.png"" style=""width: 200px;height: 200px;""></button>","0","triangle","pentagram","[""triangle"",""pentagram""]","left-right","[""triangle"",""pentagram""]","1","practice","1","left","response","1"
"html-audio-button-response","10","81266","0.0-8.0-1.0","CKN_119","119","","","","","","null","stimuli/bleep.m4a","null","triangle","pentagram","[""triangle"",""pentagram""]","left-right","[""triangle"",""pentagram""]","1","practice","1","left","audio_feedback","1"
"html-button-response","11","81784","0.0-9.0","CKN_119","119","","","","","","null","<button class=""jspsych-btn""><img src=""stimuli/white_square.png"" style=""width: 200px;height: 200px;""></button>","null","triangle","pentagram","[""triangle"",""pentagram""]","left-right","[""triangle"",""pentagram""]","1","practice","1","left","iti",""
"html-button-response","12","92827","0.0-10.0","CKN_119","119","","","","","","11028","","0","diamond","rectangle","[""rectangle"",""diamond""]","left-right","[""rectangle"",""diamond""]","1","practice","1","right","trigger",""
"html-button-response","13","95243","0.0-11.0-0.0","CKN_119","119","","","","","","2405","<button class=""jspsych-btn""><img src=""stimuli/diamond.png"" style=""width: 200px;height: 200px;""></button>","1","diamond","rectangle","[""rectangle"",""diamond""]","left-right","[""rectangle"",""diamond""]","1","practice","1","right","response","1"
"html-audio-button-response","14","95449","0.0-11.0-1.0","CKN_119","119","","","","","","null","stimuli/bleep.m4a","null","diamond","rectangle","[""rectangle"",""diamond""]","left-right","[""rectangle"",""diamond""]","1","practice","1","right","audio_feedback","1"
"html-button-response","15","95960","0.0-12.0","CKN_119","119","","","","","","null","<button class=""jspsych-btn""><img src=""stimuli/white_square.png"" style=""width: 200px;height: 200px;""></button>","null","diamond","rectangle","[""rectangle"",""diamond""]","left-right","[""rectangle"",""diamond""]","1","practice","1","right","iti",""
"html-button-response","16","100348","0.0-13.0","CKN_119","119","","","","","","4373","","0","pentagram","star","[""pentagram"",""star""]","left-right","[""pentagram"",""star""]","1","practice","1","left","trigger",""
"html-button-response","17","102855","0.0-14.0-0.0","CKN_119","119","","","","","","2499","<button class=""jspsych-btn""><img src=""stimuli/pentagram.png"" style=""width: 200px;height: 200px;""></button>","0","pentagram","star","[""pentagram"",""star""]","left-right","[""pentagram"",""star""]","1","practice","1","left","response","1"
"html-audio-button-response","18","103063","0.0-14.0-1.0","CKN_119","119","","","","","","null","stimuli/bleep.m4a","null","pentagram","star","[""pentagram"",""star""]","left-right","[""pentagram"",""star""]","1","practice","1","left","audio_feedback","1"
"html-button-response","19","103593","0.0-15.0","CKN_119","119","","","","","","null","<button class=""jspsych-btn""><img src=""stimuli/white_square.png"" style=""width: 200px;height: 200px;""></button>","null","pentagram","star","[""pentagram"",""star""]","left-right","[""pentagram"",""star""]","1","practice","1","left","iti",""
"html-button-response","20","108670","0.0-16.0","CKN_119","119","","","","","","5064","","0","","","","","","","","","","",""
"html-button-response","21","111590","0.0-17.0","CKN_119","119","","","","","","2910","","0","lightred","neonyellow","[""lightred"",""neonyellow"",""low nameability""]","right-left","[""neonyellow"",""lightred""]","1","low nameability","1","right","trigger",""
"html-button-response","22","113958","0.0-18.0-0.0","CKN_119","119","","","","","","2360","<button class=""jspsych-btn""><img src=""stimuli/lightred.png"" style=""width: 200px;height: 200px;""></button>","1","lightred","neonyellow","[""lightred"",""neonyellow"",""low nameability""]","right-left","[""neonyellow"",""lightred""]","1","low nameability","1","right","response","1"
"html-audio-button-response","23","114163","0.0-18.0-1.0","CKN_119","119","","","","","","null","stimuli/bleep.m4a","null","lightred","neonyellow","[""lightred"",""neonyellow"",""low nameability""]","right-left","[""neonyellow"",""lightred""]","1","low nameability","1","right","audio_feedback","1"
"html-button-response","24","114684","0.0-19.0","CKN_119","119","","","","","","null","<button class=""jspsych-btn""><img src=""stimuli/white_square.png"" style=""width: 200px;height: 200px;""></button>","null","lightred","neonyellow","[""lightred"",""neonyellow"",""low nameability""]","right-left","[""neonyellow"",""lightred""]","1","low nameability","1","right","iti",""
"html-button-response","25","116198","0.0-20.0","CKN_119","119","","","","","","1494","","0","pink","lightred","[""pink"",""lightred"",""low nameability""]","left-right","[""pink"",""lightred"",""low nameability""]","1","low nameability","2","left","trigger",""
"html-button-response","26","118981","0.0-21.0-0.0","CKN_119","119","","","","","","2762","<button class=""jspsych-btn""><img src=""stimuli/pink.png"" style=""width: 200px;height: 200px;""></button>","0","pink","lightred","[""pink"",""lightred"",""low nameability""]","left-right","[""pink"",""lightred"",""low nameability""]","1","low nameability","2","left","response","1"
"html-audio-button-response","27","119203","0.0-21.0-1.0","CKN_119","119","","","","","","null","stimuli/bleep.m4a","null","pink","lightred","[""pink"",""lightred"",""low nameability""]","left-right","[""pink"",""lightred"",""low nameability""]","1","low nameability","2","left","audio_feedback","1"
"html-button-response","28","119727","0.0-22.0","CKN_119","119","","","","","","null","<button class=""jspsych-btn""><img src=""stimuli/white_square.png"" style=""width: 200px;height: 200px;""></button>","null","pink","lightred","[""pink"",""lightred"",""low nameability""]","left-right","[""pink"",""lightred"",""low nameability""]","1","low nameability","2","left","iti",""
"html-button-response","29","122587","0.0-23.0","CKN_119","119","","","","","","2837","","0","brown","orange","[""brown"",""orange"",""high nameability""]","right-left","[""orange"",""brown""]","1","high nameability","3","right","trigger",""
"html-button-response","30","125841","0.0-24.0-0.0","CKN_119","119","","","","","","3242","<button class=""jspsych-btn""><img src=""stimuli/brown.png"" style=""width: 200px;height: 200px;""></button>","1","brown","orange","[""brown"",""orange"",""high nameability""]","right-left","[""orange"",""brown""]","1","high nameability","3","right","response","1"
"html-audio-button-response","31","126051","0.0-24.0-1.0","CKN_119","119","","","","","","null","stimuli/bleep.m4a","null","brown","orange","[""brown"",""orange"",""high nameability""]","right-left","[""orange"",""brown""]","1","high nameability","3","right","audio_feedback","1"
"html-button-response","32","126572","0.0-25.0","CKN_119","119","","","","","","null","<button class=""jspsych-btn""><img src=""stimuli/white_square.png"" style=""width: 200px;height: 200px;""></button>","null","brown","orange","[""brown"",""orange"",""high nameability""]","right-left","[""orange"",""brown""]","1","high nameability","3","right","iti",""
"html-button-response","33","130592","0.0-26.0","CKN_119","119","","","","","","3985","","0","turquoise","pink","[""turquoise"",""pink"",""low nameability""]","left-right","[""turquoise"",""pink"",""low nameability""]","1","low nameability","4","left","trigger",""
"html-button-response","34","133023","0.0-27.0-0.0","CKN_119","119","","","","","","2417","<button class=""jspsych-btn""><img src=""stimuli/turquoise.png"" style=""width: 200px;height: 200px;""></button>","0","turquoise","pink","[""turquoise"",""pink"",""low nameability""]","left-right","[""turquoise"",""pink"",""low nameability""]","1","low nameability","4","left","response","1"
"html-audio-button-response","35","133229","0.0-27.0-1.0","CKN_119","119","","","","","","null","stimuli/bleep.m4a","null","turquoise","pink","[""turquoise"",""pink"",""low nameability""]","left-right","[""turquoise"",""pink"",""low nameability""]","1","low nameability","4","left","audio_feedback","1"
"html-button-response","36","133750","0.0-28.0","CKN_119","119","","","","","","null","<button class=""jspsych-btn""><img src=""stimuli/white_square.png"" style=""width: 200px;height: 200px;""></button>","null","turquoise","pink","[""turquoise"",""pink"",""low nameability""]","left-right","[""turquoise"",""pink"",""low nameability""]","1","low nameability","4","left","iti",""
"html-button-response","37","136511","0.0-29.0","CKN_119","119","","","","","","2744","","0","pink","turquoise","[""pink"",""turquoise"",""low nameability""]","left-right","[""pink"",""turquoise"",""low nameability""]","1","low nameability","5","left","trigger",""
"html-button-response","38","138211","0.0-30.0-0.0","CKN_119","119","","","","","","1691","<button class=""jspsych-btn""><img src=""stimuli/pink.png"" style=""width: 200px;height: 200px;""></button>","0","pink","turquoise","[""pink"",""turquoise"",""low nameability""]","left-right","[""pink"",""turquoise"",""low nameability""]","1","low nameability","5","left","response","1"
"html-audio-button-response","39","138418","0.0-30.0-1.0","CKN_119","119","","","","","","null","stimuli/bleep.m4a","null","pink","turquoise","[""pink"",""turquoise"",""low nameability""]","left-right","[""pink"",""turquoise"",""low nameability""]","1","low nameability","5","left","audio_feedback","1"
"html-button-response","40","138934","0.0-31.0","CKN_119","119","","","","","","null","<button class=""jspsych-btn""><img src=""stimuli/white_square.png"" style=""width: 200px;height: 200px;""></button>","null","pink","turquoise","[""pink"",""turquoise"",""low nameability""]","left-right","[""pink"",""turquoise"",""low nameability""]","1","low nameability","5","left","iti",""
"html-button-response","41","141538","0.0-32.0","CKN_119","119","","","","","","2591","","0","turquoise","lightred","[""turquoise"",""lightred"",""low nameability""]","right-left","[""lightred"",""turquoise""]","1","low nameability","6","right","trigger",""
"html-button-response","42","142690","0.0-33.0-0.0","CKN_119","119","","","","","","1142","<button class=""jspsych-btn""><img src=""stimuli/turquoise.png"" style=""width: 200px;height: 200px;""></button>","1","turquoise","lightred","[""turquoise"",""lightred"",""low nameability""]","right-left","[""lightred"",""turquoise""]","1","low nameability","6","right","response","1"
"html-audio-button-response","43","142898","0.0-33.0-1.0","CKN_119","119","","","","","","null","stimuli/bleep.m4a","null","turquoise","lightred","[""turquoise"",""lightred"",""low nameability""]","right-left","[""lightred"",""turquoise""]","1","low nameability","6","right","audio_feedback","1"
"html-button-response","44","143414","0.0-34.0","CKN_119","119","","","","","","null","<button class=""jspsych-btn""><img src=""stimuli/white_square.png"" style=""width: 200px;height: 200px;""></button>","null","turquoise","lightred","[""turquoise"",""lightred"",""low nameability""]","right-left","[""lightred"",""turquoise""]","1","low nameability","6","right","iti",""
"html-button-response","45","146288","0.0-35.0","CKN_119","119","","","","","","2862","","0","mustard","turquoise","[""mustard"",""turquoise"",""low nameability""]","right-left","[""turquoise"",""mustard""]","1","low nameability","7","right","trigger",""
"html-button-response","46","147980","0.0-36.0-0.0","CKN_119","119","","","","","","1683","<button class=""jspsych-btn""><img src=""stimuli/mustard.png"" style=""width: 200px;height: 200px;""></button>","1","mustard","turquoise","[""mustard"",""turquoise"",""low nameability""]","right-left","[""turquoise"",""mustard""]","1","low nameability","7","right","response","1"
"html-audio-button-response","47","148186","0.0-36.0-1.0","CKN_119","119","","","","","","null","stimuli/bleep.m4a","null","mustard","turquoise","[""mustard"",""turquoise"",""low nameability""]","right-left","[""turquoise"",""mustard""]","1","low nameability","7","right","audio_feedback","1"
"html-button-response","48","148703","0.0-37.0","CKN_119","119","","","","","","null","<button class=""jspsych-btn""><img src=""stimuli/white_square.png"" style=""width: 200px;height: 200px;""></button>","null","mustard","turquoise","[""mustard"",""turquoise"",""low nameability""]","right-left","[""turquoise"",""mustard""]","1","low nameability","7","right","iti",""
"html-button-response","49","153657","0.0-38.0","CKN_119","119","","","","","","4941","","0","mustard","neonyellow","[""mustard"",""neonyellow"",""low nameability""]","right-left","[""neonyellow"",""mustard""]","1","low nameability","8","right","trigger",""
"html-button-response","50","155336","0.0-39.0-0.0","CKN_119","119","","","","","","1670","<button class=""jspsych-btn""><img src=""stimuli/mustard.png"" style=""width: 200px;height: 200px;""></button>","1","mustard","neonyellow","[""mustard"",""neonyellow"",""low nameability""]","right-left","[""neonyellow"",""mustard""]","1","low nameability","8","right","response","1"
"html-audio-button-response","51","155537","0.0-39.0-1.0","CKN_119","119","","","","","","null","stimuli/bleep.m4a","null","mustard","neonyellow","[""mustard"",""neonyellow"",""low nameability""]","right-left","[""neonyellow"",""mustard""]","1","low nameability","8","right","audio_feedback","1"
"html-button-response","52","156048","0.0-40.0","CKN_119","119","","","","","","null","<button class=""jspsych-btn""><img src=""stimuli/white_square.png"" style=""width: 200px;height: 200px;""></button>","null","mustard","neonyellow","[""mustard"",""neonyellow"",""low nameability""]","right-left","[""neonyellow"",""mustard""]","1","low nameability","8","right","iti",""
"html-button-response","53","159205","0.0-41.0","CKN_119","119","","","","","","3141","","0","lightred","turquoise","[""lightred"",""turquoise"",""low nameability""]","left-right","[""lightred"",""turquoise"",""low nameability""]","1","low nameability","9","left","trigger",""
"html-button-response","54","160819","0.0-42.0-0.0","CKN_119","119","","","","","","1603","<button class=""jspsych-btn""><img src=""stimuli/lightred.png"" style=""width: 200px;height: 200px;""></button>","0","lightred","turquoise","[""lightred"",""turquoise"",""low nameability""]","left-right","[""lightred"",""turquoise"",""low nameability""]","1","low nameability","9","left","response","1"
"html-audio-button-response","55","161017","0.0-42.0-1.0","CKN_119","119","","","","","","null","stimuli/bleep.m4a","null","lightred","turquoise","[""lightred"",""turquoise"",""low nameability""]","left-right","[""lightred"",""turquoise"",""low nameability""]","1","low nameability","9","left","audio_feedback","1"
"html-button-response","56","161525","0.0-43.0","CKN_119","119","","","","","","null","<button class=""jspsych-btn""><img src=""stimuli/white_square.png"" style=""width: 200px;height: 200px;""></button>","null","lightred","turquoise","[""lightred"",""turquoise"",""low nameability""]","left-right","[""lightred"",""turquoise"",""low nameability""]","1","low nameability","9","left","iti",""
"html-button-response","57","164337","0.0-44.0","CKN_119","119","","","","","","2799","","0","pink","neonyellow","[""pink"",""neonyellow"",""low nameability""]","left-right","[""pink"",""neonyellow"",""low nameability""]","1","low nameability","10","left","trigger",""
"html-button-response","58","166810","0.0-45.0-0.0","CKN_119","119","","","","","","2465","<button class=""jspsych-btn""><img src=""stimuli/pink.png"" style=""width: 200px;height: 200px;""></button>","0","pink","neonyellow","[""pink"",""neonyellow"",""low nameability""]","left-right","[""pink"",""neonyellow"",""low nameability""]","1","low nameability","10","left","response","1"
"html-audio-button-response","59","167018","0.0-45.0-1.0","CKN_119","119","","","","","","null","stimuli/bleep.m4a","null","pink","neonyellow","[""pink"",""neonyellow"",""low nameability""]","left-right","[""pink"",""neonyellow"",""low nameability""]","1","low nameability","10","left","audio_feedback","1"
"html-button-response","60","167540","0.0-46.0","CKN_119","119","","","","","","null","<button class=""jspsych-btn""><img src=""stimuli/white_square.png"" style=""width: 200px;height: 200px;""></button>","null","pink","neonyellow","[""pink"",""neonyellow"",""low nameability""]","left-right","[""pink"",""neonyellow"",""low nameability""]","1","low nameability","10","left","iti",""
"pavlovia","61","167626","0.0-47.0","CKN_119","119","","","","","","","","","","","","","","","","","","",""
"pavlovia","62","167640","0.0-48.0","CKN_119","119","","","","","","","","","","","","","","","","","","",""
"html-audio-button-response","63","173819","0.0-49.0","CKN_119","119","","","","","","6280","stimuli/tada.m4a","0","","","","","","","","","","",""
"html-button-response","64","174358","0.0-50.0","CKN_119","119","","","","","","534","","0","","","","","","","","","","",""
"html-button-response","65","175962","0.0-51.0","CKN_119","119","","","","","","1596","","0","orange","purple","[""orange"",""purple"",""high nameability""]","left-right","[""orange"",""purple"",""high nameability""]","2","high nameability","11","left","trigger",""
"html-button-response","66","178727","0.0-52.0-0.0","CKN_119","119","","","","","","2756","<button class=""jspsych-btn""><img src=""stimuli/orange.png"" style=""width: 200px;height: 200px;""></button>","0","orange","purple","[""orange"",""purple"",""high nameability""]","left-right","[""orange"",""purple"",""high nameability""]","2","high nameability","11","left","response","1"
"html-audio-button-response","67","178956","0.0-52.0-1.0","CKN_119","119","","","","","","null","stimuli/bleep.m4a","null","orange","purple","[""orange"",""purple"",""high nameability""]","left-right","[""orange"",""purple"",""high nameability""]","2","high nameability","11","left","audio_feedback","1"
"html-button-response","68","179476","0.0-53.0","CKN_119","119","","","","","","null","<button class=""jspsych-btn""><img src=""stimuli/white_square.png"" style=""width: 200px;height: 200px;""></button>","null","orange","purple","[""orange"",""purple"",""high nameability""]","left-right","[""orange"",""purple"",""high nameability""]","2","high nameability","11","left","iti",""
"html-button-response","69","179897","0.0-54.0","CKN_119","119","","","","","","410","","0","purple","blue","[""purple"",""blue"",""high nameability""]","right-left","[""blue"",""purple""]","2","high nameability","12","right","trigger",""
"html-button-response","70","182090","0.0-55.0-0.0","CKN_119","119","","","","","","2187","<button class=""jspsych-btn""><img src=""stimuli/purple.png"" style=""width: 200px;height: 200px;""></button>","1","purple","blue","[""purple"",""blue"",""high nameability""]","right-left","[""blue"",""purple""]","2","high nameability","12","right","response","1"
"html-audio-button-response","71","182298","0.0-55.0-1.0","CKN_119","119","","","","","","null","stimuli/bleep.m4a","null","purple","blue","[""purple"",""blue"",""high nameability""]","right-left","[""blue"",""purple""]","2","high nameability","12","right","audio_feedback","1"
"html-button-response","72","182844","0.0-56.0","CKN_119","119","","","","","","null","<button class=""jspsych-btn""><img src=""stimuli/white_square.png"" style=""width: 200px;height: 200px;""></button>","null","purple","blue","[""purple"",""blue"",""high nameability""]","right-left","[""blue"",""purple""]","2","high nameability","12","right","iti",""
"html-button-response","73","183600","0.0-57.0","CKN_119","119","","","","","","736","","0","red","brown","[""red"",""brown"",""high nameability""]","right-left","[""brown"",""red""]","2","high nameability","13","right","trigger",""
"html-button-response","74","184899","0.0-58.0-0.0","CKN_119","119","","","","","","1293","<button class=""jspsych-btn""><img src=""stimuli/red.png"" style=""width: 200px;height: 200px;""></button>","1","red","brown","[""red"",""brown"",""high nameability""]","right-left","[""brown"",""red""]","2","high nameability","13","right","response","1"
"html-audio-button-response","75","185106","0.0-58.0-1.0","CKN_119","119","","","","","","null","stimuli/bleep.m4a","null","red","brown","[""red"",""brown"",""high nameability""]","right-left","[""brown"",""red""]","2","high nameability","13","right","audio_feedback","1"
"html-button-response","76","185623","0.0-59.0","CKN_119","119","","","","","","null","<button class=""jspsych-btn""><img src=""stimuli/white_square.png"" style=""width: 200px;height: 200px;""></button>","null","red","brown","[""red"",""brown"",""high nameability""]","right-left","[""brown"",""red""]","2","high nameability","13","right","iti",""
"html-button-response","77","186421","0.0-60.0","CKN_119","119","","","","","","784","","0","lightred","mustard","[""lightred"",""mustard"",""low nameability""]","left-right","[""lightred"",""mustard"",""low nameability""]","2","low nameability","14","left","trigger",""
"html-button-response","78","187958","0.0-61.0-0.0","CKN_119","119","","","","","","1530","<button class=""jspsych-btn""><img src=""stimuli/lightred.png"" style=""width: 200px;height: 200px;""></button>","0","lightred","mustard","[""lightred"",""mustard"",""low nameability""]","left-right","[""lightred"",""mustard"",""low nameability""]","2","low nameability","14","left","response","1"
"html-audio-button-response","79","188162","0.0-61.0-1.0","CKN_119","119","","","","","","null","stimuli/bleep.m4a","null","lightred","mustard","[""lightred"",""mustard"",""low nameability""]","left-right","[""lightred"",""mustard"",""low nameability""]","2","low nameability","14","left","audio_feedback","1"
"html-button-response","80","188679","0.0-62.0","CKN_119","119","","","","","","null","<button class=""jspsych-btn""><img src=""stimuli/white_square.png"" style=""width: 200px;height: 200px;""></button>","null","lightred","mustard","[""lightred"",""mustard"",""low nameability""]","left-right","[""lightred"",""mustard"",""low nameability""]","2","low nameability","14","left","iti",""
"html-button-response","81","190550","0.0-63.0","CKN_119","119","","","","","","1859","","0","orange","yellow","[""orange"",""yellow"",""high nameability""]","left-right","[""orange"",""yellow"",""high nameability""]","2","high nameability","15","left","trigger",""
"html-button-response","82","192244","0.0-64.0-0.0","CKN_119","119","","","","","","1687","<button class=""jspsych-btn""><img src=""stimuli/orange.png"" style=""width: 200px;height: 200px;""></button>","0","orange","yellow","[""orange"",""yellow"",""high nameability""]","left-right","[""orange"",""yellow"",""high nameability""]","2","high nameability","15","left","response","1"
"html-audio-button-response","83","192458","0.0-64.0-1.0","CKN_119","119","","","","","","null","stimuli/bleep.m4a","null","orange","yellow","[""orange"",""yellow"",""high nameability""]","left-right","[""orange"",""yellow"",""high nameability""]","2","high nameability","15","left","audio_feedback","1"
"html-button-response","84","192975","0.0-65.0","CKN_119","119","","","","","","null","<button class=""jspsych-btn""><img src=""stimuli/white_square.png"" style=""width: 200px;height: 200px;""></button>","null","orange","yellow","[""orange"",""yellow"",""high nameability""]","left-right","[""orange"",""yellow"",""high nameability""]","2","high nameability","15","left","iti",""
"html-button-response","85","193356","0.0-66.0","CKN_119","119","","","","","","365","","0","darkgreenblue","lightred","[""darkgreenblue"",""lightred"",""low nameability""]","left-right","[""darkgreenblue"",""lightred"",""low nameability""]","2","low nameability","16","left","trigger",""
"html-button-response","86","195456","0.0-67.0-0.0","CKN_119","119","","","","","","2094","<button class=""jspsych-btn""><img src=""stimuli/darkgreenblue.png"" style=""width: 200px;height: 200px;""></button>","0","darkgreenblue","lightred","[""darkgreenblue"",""lightred"",""low nameability""]","left-right","[""darkgreenblue"",""lightred"",""low nameability""]","2","low nameability","16","left","response","1"
"html-audio-button-response","87","195657","0.0-67.0-1.0","CKN_119","119","","","","","","null","stimuli/bleep.m4a","null","darkgreenblue","lightred","[""darkgreenblue"",""lightred"",""low nameability""]","left-right","[""darkgreenblue"",""lightred"",""low nameability""]","2","low nameability","16","left","audio_feedback","1"
"html-button-response","88","196168","0.0-68.0","CKN_119","119","","","","","","null","<button class=""jspsych-btn""><img src=""stimuli/white_square.png"" style=""width: 200px;height: 200px;""></button>","null","darkgreenblue","lightred","[""darkgreenblue"",""lightred"",""low nameability""]","left-right","[""darkgreenblue"",""lightred"",""low nameability""]","2","low nameability","16","left","iti",""
"html-button-response","89","196937","0.0-69.0","CKN_119","119","","","","","","760","","0","red","blue","[""red"",""blue"",""high nameability""]","right-left","[""blue"",""red""]","2","high nameability","17","right","trigger",""
"html-button-response","90","198311","0.0-70.0-0.0","CKN_119","119","","","","","","1367","<button class=""jspsych-btn""><img src=""stimuli/red.png"" style=""width: 200px;height: 200px;""></button>","1","red","blue","[""red"",""blue"",""high nameability""]","right-left","[""blue"",""red""]","2","high nameability","17","right","response","1"
"html-audio-button-response","91","198515","0.0-70.0-1.0","CKN_119","119","","","","","","null","stimuli/bleep.m4a","null","red","blue","[""red"",""blue"",""high nameability""]","right-left","[""blue"",""red""]","2","high nameability","17","right","audio_feedback","1"
"html-button-response","92","199027","0.0-71.0","CKN_119","119","","","","","","null","<button class=""jspsych-btn""><img src=""stimuli/white_square.png"" style=""width: 200px;height: 200px;""></button>","null","red","blue","[""red"",""blue"",""high nameability""]","right-left","[""blue"",""red""]","2","high nameability","17","right","iti",""
"html-button-response","93","199747","0.0-72.0","CKN_119","119","","","","","","711","","0","purple","red","[""purple"",""red"",""high nameability""]","left-right","[""purple"",""red"",""high nameability""]","2","high nameability","18","left","trigger",""
"html-button-response","94","201338","0.0-73.0-0.0","CKN_119","119","","","","","","1583","<button class=""jspsych-btn""><img src=""stimuli/purple.png"" style=""width: 200px;height: 200px;""></button>","1","purple","red","[""purple"",""red"",""high nameability""]","left-right","[""purple"",""red"",""high nameability""]","2","high nameability","18","left","response","0"
"html-audio-button-response","95","201965","0.0-73.0-1.0","CKN_119","119","","","","","","null","stimuli/boing.m4a","null","purple","red","[""purple"",""red"",""high nameability""]","left-right","[""purple"",""red"",""high nameability""]","2","high nameability","18","left","audio_feedback","0"
"html-button-response","96","207604","0.0-73.1-0.1","CKN_119","119","","","","","","5616","<button class=""jspsych-btn""><img src=""stimuli/purple.png"" style=""width: 200px;height: 200px;""></button>","0","purple","red","[""purple"",""red"",""high nameability""]","left-right","[""purple"",""red"",""high nameability""]","2","high nameability","18","left","response","1"
"html-audio-button-response","97","207809","0.0-73.1-1.1","CKN_119","119","","","","","","null","stimuli/bleep.m4a","null","purple","red","[""purple"",""red"",""high nameability""]","left-right","[""purple"",""red"",""high nameability""]","2","high nameability","18","left","audio_feedback","1"
"html-button-response","98","208335","0.0-74.0","CKN_119","119","","","","","","null","<button class=""jspsych-btn""><img src=""stimuli/white_square.png"" style=""width: 200px;height: 200px;""></button>","null","purple","red","[""purple"",""red"",""high nameability""]","left-right","[""purple"",""red"",""high nameability""]","2","high nameability","18","left","iti",""
"html-button-response","99","209882","0.0-75.0","CKN_119","119","","","","","","1535","","0","turquoise","neonyellow","[""turquoise"",""neonyellow"",""low nameability""]","left-right","[""turquoise"",""neonyellow"",""low nameability""]","2","low nameability","19","left","trigger",""
"html-button-response","100","213051","0.0-76.0-0.0","CKN_119","119","","","","","","3163","<button class=""jspsych-btn""><img src=""stimuli/turquoise.png"" style=""width: 200px;height: 200px;""></button>","0","turquoise","neonyellow","[""turquoise"",""neonyellow"",""low nameability""]","left-right","[""turquoise"",""neonyellow"",""low nameability""]","2","low nameability","19","left","response","1"
"html-audio-button-response","101","213258","0.0-76.0-1.0","CKN_119","119","","","","","","null","stimuli/bleep.m4a","null","turquoise","neonyellow","[""turquoise"",""neonyellow"",""low nameability""]","left-right","[""turquoise"",""neonyellow"",""low nameability""]","2","low nameability","19","left","audio_feedback","1"
"html-button-response","102","213782","0.0-77.0","CKN_119","119","","","","","","null","<button class=""jspsych-btn""><img src=""stimuli/white_square.png"" style=""width: 200px;height: 200px;""></button>","null","turquoise","neonyellow","[""turquoise"",""neonyellow"",""low nameability""]","left-right","[""turquoise"",""neonyellow"",""low nameability""]","2","low nameability","19","left","iti",""
"html-button-response","103","218617","0.0-78.0","CKN_119","119","","","","","","4823","","0","blue","brown","[""blue"",""brown"",""high nameability""]","left-right","[""blue"",""brown"",""high nameability""]","2","high nameability","20","left","trigger",""
"html-button-response","104","221172","0.0-79.0-0.0","CKN_119","119","","","","","","2549","<button class=""jspsych-btn""><img src=""stimuli/blue.png"" style=""width: 200px;height: 200px;""></button>","0","blue","brown","[""blue"",""brown"",""high nameability""]","left-right","[""blue"",""brown"",""high nameability""]","2","high nameability","20","left","response","1"
"html-audio-button-response","105","221379","0.0-79.0-1.0","CKN_119","119","","","","","","null","stimuli/bleep.m4a","null","blue","brown","[""blue"",""brown"",""high nameability""]","left-right","[""blue"",""brown"",""high nameability""]","2","high nameability","20","left","audio_feedback","1"
"html-button-response","106","221914","0.0-80.0","CKN_119","119","","","","","","null","<button class=""jspsych-btn""><img src=""stimuli/white_square.png"" style=""width: 200px;height: 200px;""></button>","null","blue","brown","[""blue"",""brown"",""high nameability""]","left-right","[""blue"",""brown"",""high nameability""]","2","high nameability","20","left","iti",""
"pavlovia","107","222004","0.0-81.0","CKN_119","119","","","","","","","","","","","","","","","","","","",""
"pavlovia","108","222012","0.0-82.0","CKN_119","119","","","","","","","","","","","","","","","","","","",""
"html-audio-button-response","109","227005","0.0-83.0","CKN_119","119","","","","","","5088","stimuli/tada.m4a","0","","","","","","","","","","",""
"html-button-response","110","227604","0.0-84.0","CKN_119","119","","","","","","594","","0","","","","","","","","","","",""
"html-button-response","111","230448","0.0-85.0","CKN_119","119","","","","","","2840","","0","pink","mustard","[""pink"",""mustard"",""low nameability""]","left-right","[""pink"",""mustard"",""low nameability""]","3","low nameability","21","left","trigger",""
"html-button-response","112","235495","0.0-86.0-0.0","CKN_119","119","","","","","","5038","<button class=""jspsych-btn""><img src=""stimuli/pink.png"" style=""width: 200px;height: 200px;""></button>","0","pink","mustard","[""pink"",""mustard"",""low nameability""]","left-right","[""pink"",""mustard"",""low nameability""]","3","low nameability","21","left","response","1"
"html-audio-button-response","113","235706","0.0-86.0-1.0","CKN_119","119","","","","","","null","stimuli/bleep.m4a","null","pink","mustard","[""pink"",""mustard"",""low nameability""]","left-right","[""pink"",""mustard"",""low nameability""]","3","low nameability","21","left","audio_feedback","1"
"html-button-response","114","236225","0.0-87.0","CKN_119","119","","","","","","null","<button class=""jspsych-btn""><img src=""stimuli/white_square.png"" style=""width: 200px;height: 200px;""></button>","null","pink","mustard","[""pink"",""mustard"",""low nameability""]","left-right","[""pink"",""mustard"",""low nameability""]","3","low nameability","21","left","iti",""
"html-button-response","115","236987","0.0-88.0","CKN_119","119","","","","","","729","","0","lightred","darkgreenblue","[""lightred"",""darkgreenblue"",""low nameability""]","left-right","[""lightred"",""darkgreenblue"",""low nameability""]","3","low nameability","22","left","trigger",""
"html-button-response","116","238357","0.0-89.0-0.0","CKN_119","119","","","","","","1364","<button class=""jspsych-btn""><img src=""stimuli/lightred.png"" style=""width: 200px;height: 200px;""></button>","0","lightred","darkgreenblue","[""lightred"",""darkgreenblue"",""low nameability""]","left-right","[""lightred"",""darkgreenblue"",""low nameability""]","3","low nameability","22","left","response","1"
"html-audio-button-response","117","238559","0.0-89.0-1.0","CKN_119","119","","","","","","null","stimuli/bleep.m4a","null","lightred","darkgreenblue","[""lightred"",""darkgreenblue"",""low nameability""]","left-right","[""lightred"",""darkgreenblue"",""low nameability""]","3","low nameability","22","left","audio_feedback","1"
"html-button-response","118","239074","0.0-90.0","CKN_119","119","","","","","","null","<button class=""jspsych-btn""><img src=""stimuli/white_square.png"" style=""width: 200px;height: 200px;""></button>","null","lightred","darkgreenblue","[""lightred"",""darkgreenblue"",""low nameability""]","left-right","[""lightred"",""darkgreenblue"",""low nameability""]","3","low nameability","22","left","iti",""
"html-button-response","119","239475","0.0-91.0","CKN_119","119","","","","","","383","","0","turquoise","mustard","[""turquoise"",""mustard"",""low nameability""]","right-left","[""mustard"",""turquoise""]","3","low nameability","23","right","trigger",""
"html-button-response","120","241383","0.0-92.0-0.0","CKN_119","119","","","","","","1903","<button class=""jspsych-btn""><img src=""stimuli/turquoise.png"" style=""width: 200px;height: 200px;""></button>","1","turquoise","mustard","[""turquoise"",""mustard"",""low nameability""]","right-left","[""mustard"",""turquoise""]","3","low nameability","23","right","response","1"
"html-audio-button-response","121","241592","0.0-92.0-1.0","CKN_119","119","","","","","","null","stimuli/bleep.m4a","null","turquoise","mustard","[""turquoise"",""mustard"",""low nameability""]","right-left","[""mustard"",""turquoise""]","3","low nameability","23","right","audio_feedback","1"
"html-button-response","122","242113","0.0-93.0","CKN_119","119","","","","","","null","<button class=""jspsych-btn""><img src=""stimuli/white_square.png"" style=""width: 200px;height: 200px;""></button>","null","turquoise","mustard","[""turquoise"",""mustard"",""low nameability""]","right-left","[""mustard"",""turquoise""]","3","low nameability","23","right","iti",""
"html-button-response","123","242750","0.0-94.0","CKN_119","119","","","","","","625","","0","brown","yellow","[""brown"",""yellow"",""high nameability""]","left-right","[""brown"",""yellow"",""high nameability""]","3","high nameability","24","left","trigger",""
"html-button-response","124","244217","0.0-95.0-0.0","CKN_119","119","","","","","","1460","<button class=""jspsych-btn""><img src=""stimuli/brown.png"" style=""width: 200px;height: 200px;""></button>","0","brown","yellow","[""brown"",""yellow"",""high nameability""]","left-right","[""brown"",""yellow"",""high nameability""]","3","high nameability","24","left","response","1"
"html-audio-button-response","125","244442","0.0-95.0-1.0","CKN_119","119","","","","","","null","stimuli/bleep.m4a","null","brown","yellow","[""brown"",""yellow"",""high nameability""]","left-right","[""brown"",""yellow"",""high nameability""]","3","high nameability","24","left","audio_feedback","1"
"html-button-response","126","244954","0.0-96.0","CKN_119","119","","","","","","null","<button class=""jspsych-btn""><img src=""stimuli/white_square.png"" style=""width: 200px;height: 200px;""></button>","null","brown","yellow","[""brown"",""yellow"",""high nameability""]","left-right","[""brown"",""yellow"",""high nameability""]","3","high nameability","24","left","iti",""
"html-button-response","127","245728","0.0-97.0","CKN_119","119","","","","","","763","","0","mustard","darkgreenblue","[""mustard"",""darkgreenblue"",""low nameability""]","right-left","[""darkgreenblue"",""mustard""]","3","low nameability","25","right","trigger",""
"html-button-response","128","247322","0.0-98.0-0.0","CKN_119","119","","","","","","1588","<button class=""jspsych-btn""><img src=""stimuli/mustard.png"" style=""width: 200px;height: 200px;""></button>","1","mustard","darkgreenblue","[""mustard"",""darkgreenblue"",""low nameability""]","right-left","[""darkgreenblue"",""mustard""]","3","low nameability","25","right","response","1"
"html-audio-button-response","129","247522","0.0-98.0-1.0","CKN_119","119","","","","","","null","stimuli/bleep.m4a","null","mustard","darkgreenblue","[""mustard"",""darkgreenblue"",""low nameability""]","right-left","[""darkgreenblue"",""mustard""]","3","low nameability","25","right","audio_feedback","1"
"html-button-response","130","248037","0.0-99.0","CKN_119","119","","","","","","null","<button class=""jspsych-btn""><img src=""stimuli/white_square.png"" style=""width: 200px;height: 200px;""></button>","null","mustard","darkgreenblue","[""mustard"",""darkgreenblue"",""low nameability""]","right-left","[""darkgreenblue"",""mustard""]","3","low nameability","25","right","iti",""
"html-button-response","131","248699","0.0-100.0","CKN_119","119","","","","","","656","","0","purple","orange","[""purple"",""orange"",""high nameability""]","right-left","[""orange"",""purple""]","3","high nameability","26","right","trigger",""
"html-button-response","132","250011","0.0-101.0-0.0","CKN_119","119","","","","","","1304","<button class=""jspsych-btn""><img src=""stimuli/purple.png"" style=""width: 200px;height: 200px;""></button>","1","purple","orange","[""purple"",""orange"",""high nameability""]","right-left","[""orange"",""purple""]","3","high nameability","26","right","response","1"
"html-audio-button-response","133","250210","0.0-101.0-1.0","CKN_119","119","","","","","","null","stimuli/bleep.m4a","null","purple","orange","[""purple"",""orange"",""high nameability""]","right-left","[""orange"",""purple""]","3","high nameability","26","right","audio_feedback","1"
"html-button-response","134","250724","0.0-102.0","CKN_119","119","","","","","","null","<button class=""jspsych-btn""><img src=""stimuli/white_square.png"" style=""width: 200px;height: 200px;""></button>","null","purple","orange","[""purple"",""orange"",""high nameability""]","right-left","[""orange"",""purple""]","3","high nameability","26","right","iti",""
"html-button-response","135","251045","0.0-103.0","CKN_119","119","","","","","","310","","0","darkgreenblue","turquoise","[""darkgreenblue"",""turquoise"",""low nameability""]","right-left","[""turquoise"",""darkgreenblue""]","3","low nameability","27","right","trigger",""
"html-button-response","136","252197","0.0-104.0-0.0","CKN_119","119","","","","","","1144","<button class=""jspsych-btn""><img src=""stimuli/darkgreenblue.png"" style=""width: 200px;height: 200px;""></button>","1","darkgreenblue","turquoise","[""darkgreenblue"",""turquoise"",""low nameability""]","right-left","[""turquoise"",""darkgreenblue""]","3","low nameability","27","right","response","1"
"html-audio-button-response","137","252402","0.0-104.0-1.0","CKN_119","119","","","","","","null","stimuli/bleep.m4a","null","darkgreenblue","turquoise","[""darkgreenblue"",""turquoise"",""low nameability""]","right-left","[""turquoise"",""darkgreenblue""]","3","low nameability","27","right","audio_feedback","1"
"html-button-response","138","252928","0.0-105.0","CKN_119","119","","","","","","null","<button class=""jspsych-btn""><img src=""stimuli/white_square.png"" style=""width: 200px;height: 200px;""></button>","null","darkgreenblue","turquoise","[""darkgreenblue"",""turquoise"",""low nameability""]","right-left","[""turquoise"",""darkgreenblue""]","3","low nameability","27","right","iti",""
"html-button-response","139","253907","0.0-106.0","CKN_119","119","","","","","","966","","0","neonyellow","turquoise","[""neonyellow"",""turquoise"",""low nameability""]","right-left","[""turquoise"",""neonyellow""]","3","low nameability","28","right","trigger",""
"html-button-response","140","255290","0.0-107.0-0.0","CKN_119","119","","","","","","1377","<button class=""jspsych-btn""><img src=""stimuli/neonyellow.png"" style=""width: 200px;height: 200px;""></button>","1","neonyellow","turquoise","[""neonyellow"",""turquoise"",""low nameability""]","right-left","[""turquoise"",""neonyellow""]","3","low nameability","28","right","response","1"
"html-audio-button-response","141","255490","0.0-107.0-1.0","CKN_119","119","","","","","","null","stimuli/bleep.m4a","null","neonyellow","turquoise","[""neonyellow"",""turquoise"",""low nameability""]","right-left","[""turquoise"",""neonyellow""]","3","low nameability","28","right","audio_feedback","1"
"html-button-response","142","256005","0.0-108.0","CKN_119","119","","","","","","null","<button class=""jspsych-btn""><img src=""stimuli/white_square.png"" style=""width: 200px;height: 200px;""></button>","null","neonyellow","turquoise","[""neonyellow"",""turquoise"",""low nameability""]","right-left","[""turquoise"",""neonyellow""]","3","low nameability","28","right","iti",""
"html-button-response","143","256382","0.0-109.0","CKN_119","119","","","","","","362","","0","yellow","blue","[""yellow"",""blue"",""high nameability""]","right-left","[""blue"",""yellow""]","3","high nameability","29","right","trigger",""
"html-button-response","144","257434","0.0-110.0-0.0","CKN_119","119","","","","","","1047","<button class=""jspsych-btn""><img src=""stimuli/yellow.png"" style=""width: 200px;height: 200px;""></button>","1","yellow","blue","[""yellow"",""blue"",""high nameability""]","right-left","[""blue"",""yellow""]","3","high nameability","29","right","response","1"
"html-audio-button-response","145","257635","0.0-110.0-1.0","CKN_119","119","","","","","","null","stimuli/bleep.m4a","null","yellow","blue","[""yellow"",""blue"",""high nameability""]","right-left","[""blue"",""yellow""]","3","high nameability","29","right","audio_feedback","1"
"html-button-response","146","258152","0.0-111.0","CKN_119","119","","","","","","null","<button class=""jspsych-btn""><img src=""stimuli/white_square.png"" style=""width: 200px;height: 200px;""></button>","null","yellow","blue","[""yellow"",""blue"",""high nameability""]","right-left","[""blue"",""yellow""]","3","high nameability","29","right","iti",""
"html-button-response","147","260012","0.0-112.0","CKN_119","119","","","","","","1849","","0","red","orange","[""red"",""orange"",""high nameability""]","right-left","[""orange"",""red""]","3","high nameability","30","right","trigger",""
"html-button-response","148","260972","0.0-113.0-0.0","CKN_119","119","","","","","","953","<button class=""jspsych-btn""><img src=""stimuli/red.png"" style=""width: 200px;height: 200px;""></button>","1","red","orange","[""red"",""orange"",""high nameability""]","right-left","[""orange"",""red""]","3","high nameability","30","right","response","1"
"html-audio-button-response","149","261181","0.0-113.0-1.0","CKN_119","119","","","","","","null","stimuli/bleep.m4a","null","red","orange","[""red"",""orange"",""high nameability""]","right-left","[""orange"",""red""]","3","high nameability","30","right","audio_feedback","1"
"html-button-response","150","261695","0.0-114.0","CKN_119","119","","","","","","null","<button class=""jspsych-btn""><img src=""stimuli/white_square.png"" style=""width: 200px;height: 200px;""></button>","null","red","orange","[""red"",""orange"",""high nameability""]","right-left","[""orange"",""red""]","3","high nameability","30","right","iti",""
"pavlovia","151","261757","0.0-115.0","CKN_119","119","","","","","","","","","","","","","","","","","","",""
"pavlovia","152","261772","0.0-116.0","CKN_119","119","","","","","","","","","","","","","","","","","","",""
"html-audio-button-response","153","265363","0.0-117.0","CKN_119","119","","","","","","3664","stimuli/tada.m4a","0","","","","","","","","","","",""
"html-button-response","154","266032","0.0-118.0","CKN_119","119","","","","","","663","","0","","","","","","","","","","",""
"html-button-response","155","267432","0.0-119.0","CKN_119","119","","","","","","1393","","0","orange","blue","[""orange"",""blue"",""high nameability""]","right-left","[""blue"",""orange""]","4","high nameability","31","right","trigger",""
"html-button-response","156","268431","0.0-120.0-0.0","CKN_119","119","","","","","","992","<button class=""jspsych-btn""><img src=""stimuli/orange.png"" style=""width: 200px;height: 200px;""></button>","1","orange","blue","[""orange"",""blue"",""high nameability""]","right-left","[""blue"",""orange""]","4","high nameability","31","right","response","1"
"html-audio-button-response","157","268634","0.0-120.0-1.0","CKN_119","119","","","","","","null","stimuli/bleep.m4a","null","orange","blue","[""orange"",""blue"",""high nameability""]","right-left","[""blue"",""orange""]","4","high nameability","31","right","audio_feedback","1"
"html-button-response","158","269153","0.0-121.0","CKN_119","119","","","","","","null","<button class=""jspsych-btn""><img src=""stimuli/white_square.png"" style=""width: 200px;height: 200px;""></button>","null","orange","blue","[""orange"",""blue"",""high nameability""]","right-left","[""blue"",""orange""]","4","high nameability","31","right","iti",""
"html-button-response","159","269782","0.0-122.0","CKN_119","119","","","","","","618","","0","purple","brown","[""purple"",""brown"",""high nameability""]","left-right","[""purple"",""brown"",""high nameability""]","4","high nameability","32","left","trigger",""
"html-button-response","160","272178","0.0-123.0-0.0","CKN_119","119","","","","","","2391","<button class=""jspsych-btn""><img src=""stimuli/purple.png"" style=""width: 200px;height: 200px;""></button>","0","purple","brown","[""purple"",""brown"",""high nameability""]","left-right","[""purple"",""brown"",""high nameability""]","4","high nameability","32","left","response","1"
"html-audio-button-response","161","272377","0.0-123.0-1.0","CKN_119","119","","","","","","null","stimuli/bleep.m4a","null","purple","brown","[""purple"",""brown"",""high nameability""]","left-right","[""purple"",""brown"",""high nameability""]","4","high nameability","32","left","audio_feedback","1"
"html-button-response","162","272889","0.0-124.0","CKN_119","119","","","","","","null","<button class=""jspsych-btn""><img src=""stimuli/white_square.png"" style=""width: 200px;height: 200px;""></button>","null","purple","brown","[""purple"",""brown"",""high nameability""]","left-right","[""purple"",""brown"",""high nameability""]","4","high nameability","32","left","iti",""
"html-button-response","163","273625","0.0-125.0","CKN_119","119","","","","","","721","","0","pink","darkgreenblue","[""pink"",""darkgreenblue"",""low nameability""]","left-right","[""pink"",""darkgreenblue"",""low nameability""]","4","low nameability","33","left","trigger",""
"html-button-response","164","275145","0.0-126.0-0.0","CKN_119","119","","","","","","1512","<button class=""jspsych-btn""><img src=""stimuli/pink.png"" style=""width: 200px;height: 200px;""></button>","0","pink","darkgreenblue","[""pink"",""darkgreenblue"",""low nameability""]","left-right","[""pink"",""darkgreenblue"",""low nameability""]","4","low nameability","33","left","response","1"
"html-audio-button-response","165","275346","0.0-126.0-1.0","CKN_119","119","","","","","","null","stimuli/bleep.m4a","null","pink","darkgreenblue","[""pink"",""darkgreenblue"",""low nameability""]","left-right","[""pink"",""darkgreenblue"",""low nameability""]","4","low nameability","33","left","audio_feedback","1"
"html-button-response","166","275859","0.0-127.0","CKN_119","119","","","","","","null","<button class=""jspsych-btn""><img src=""stimuli/white_square.png"" style=""width: 200px;height: 200px;""></button>","null","pink","darkgreenblue","[""pink"",""darkgreenblue"",""low nameability""]","left-right","[""pink"",""darkgreenblue"",""low nameability""]","4","low nameability","33","left","iti",""
"html-button-response","167","276122","0.0-128.0","CKN_119","119","","","","","","244","","0","blue","purple","[""blue"",""purple"",""high nameability""]","left-right","[""blue"",""purple"",""high nameability""]","4","high nameability","34","left","trigger",""
"html-button-response","168","278068","0.0-129.0-0.0","CKN_119","119","","","","","","1939","<button class=""jspsych-btn""><img src=""stimuli/blue.png"" style=""width: 200px;height: 200px;""></button>","0","blue","purple","[""blue"",""purple"",""high nameability""]","left-right","[""blue"",""purple"",""high nameability""]","4","high nameability","34","left","response","1"
"html-audio-button-response","169","278275","0.0-129.0-1.0","CKN_119","119","","","","","","null","stimuli/bleep.m4a","null","blue","purple","[""blue"",""purple"",""high nameability""]","left-right","[""blue"",""purple"",""high nameability""]","4","high nameability","34","left","audio_feedback","1"
"html-button-response","170","278789","0.0-130.0","CKN_119","119","","","","","","null","<button class=""jspsych-btn""><img src=""stimuli/white_square.png"" style=""width: 200px;height: 200px;""></button>","null","blue","purple","[""blue"",""purple"",""high nameability""]","left-right","[""blue"",""purple"",""high nameability""]","4","high nameability","34","left","iti",""
"html-button-response","171","280873","0.0-131.0","CKN_119","119","","","","","","2070","","0","yellow","brown","[""yellow"",""brown"",""high nameability""]","left-right","[""yellow"",""brown"",""high nameability""]","4","high nameability","35","left","trigger",""
"html-button-response","172","283344","0.0-132.0-0.0","CKN_119","119","","","","","","2463","<button class=""jspsych-btn""><img src=""stimuli/yellow.png"" style=""width: 200px;height: 200px;""></button>","0","yellow","brown","[""yellow"",""brown"",""high nameability""]","left-right","[""yellow"",""brown"",""high nameability""]","4","high nameability","35","left","response","1"
"html-audio-button-response","173","283545","0.0-132.0-1.0","CKN_119","119","","","","","","null","stimuli/bleep.m4a","null","yellow","brown","[""yellow"",""brown"",""high nameability""]","left-right","[""yellow"",""brown"",""high nameability""]","4","high nameability","35","left","audio_feedback","1"
"html-button-response","174","284058","0.0-133.0","CKN_119","119","","","","","","null","<button class=""jspsych-btn""><img src=""stimuli/white_square.png"" style=""width: 200px;height: 200px;""></button>","null","yellow","brown","[""yellow"",""brown"",""high nameability""]","left-right","[""yellow"",""brown"",""high nameability""]","4","high nameability","35","left","iti",""
"html-button-response","175","284766","0.0-134.0","CKN_119","119","","","","","","692","","0","neonyellow","darkgreenblue","[""neonyellow"",""darkgreenblue"",""low nameability""]","left-right","[""neonyellow"",""darkgreenblue"",""low nameability""]","4","low nameability","36","left","trigger",""
"html-button-response","176","285617","0.0-135.0-0.0","CKN_119","119","","","","","","844","<button class=""jspsych-btn""><img src=""stimuli/neonyellow.png"" style=""width: 200px;height: 200px;""></button>","0","neonyellow","darkgreenblue","[""neonyellow"",""darkgreenblue"",""low nameability""]","left-right","[""neonyellow"",""darkgreenblue"",""low nameability""]","4","low nameability","36","left","response","1"
"html-audio-button-response","177","285831","0.0-135.0-1.0","CKN_119","119","","","","","","null","stimuli/bleep.m4a","null","neonyellow","darkgreenblue","[""neonyellow"",""darkgreenblue"",""low nameability""]","left-right","[""neonyellow"",""darkgreenblue"",""low nameability""]","4","low nameability","36","left","audio_feedback","1"
"html-button-response","178","286352","0.0-136.0","CKN_119","119","","","","","","null","<button class=""jspsych-btn""><img src=""stimuli/white_square.png"" style=""width: 200px;height: 200px;""></button>","null","neonyellow","darkgreenblue","[""neonyellow"",""darkgreenblue"",""low nameability""]","left-right","[""neonyellow"",""darkgreenblue"",""low nameability""]","4","low nameability","36","left","iti",""
"html-button-response","179","286840","0.0-137.0","CKN_119","119","","","","","","476","","0","neonyellow","mustard","[""neonyellow"",""mustard"",""low nameability""]","right-left","[""mustard"",""neonyellow""]","4","low nameability","37","right","trigger",""
"html-button-response","180","288633","0.0-138.0-0.0","CKN_119","119","","","","","","1786","<button class=""jspsych-btn""><img src=""stimuli/neonyellow.png"" style=""width: 200px;height: 200px;""></button>","1","neonyellow","mustard","[""neonyellow"",""mustard"",""low nameability""]","right-left","[""mustard"",""neonyellow""]","4","low nameability","37","right","response","1"
"html-audio-button-response","181","288833","0.0-138.0-1.0","CKN_119","119","","","","","","null","stimuli/bleep.m4a","null","neonyellow","mustard","[""neonyellow"",""mustard"",""low nameability""]","right-left","[""mustard"",""neonyellow""]","4","low nameability","37","right","audio_feedback","1"
"html-button-response","182","289348","0.0-139.0","CKN_119","119","","","","","","null","<button class=""jspsych-btn""><img src=""stimuli/white_square.png"" style=""width: 200px;height: 200px;""></button>","null","neonyellow","mustard","[""neonyellow"",""mustard"",""low nameability""]","right-left","[""mustard"",""neonyellow""]","4","low nameability","37","right","iti",""
"html-button-response","183","289840","0.0-140.0","CKN_119","119","","","","","","477","","0","blue","yellow","[""blue"",""yellow"",""high nameability""]","left-right","[""blue"",""yellow"",""high nameability""]","4","high nameability","38","left","trigger",""
"html-button-response","184","292448","0.0-141.0-0.0","CKN_119","119","","","","","","2598","<button class=""jspsych-btn""><img src=""stimuli/blue.png"" style=""width: 200px;height: 200px;""></button>","0","blue","yellow","[""blue"",""yellow"",""high nameability""]","left-right","[""blue"",""yellow"",""high nameability""]","4","high nameability","38","left","response","1"
"html-audio-button-response","185","292650","0.0-141.0-1.0","CKN_119","119","","","","","","null","stimuli/bleep.m4a","null","blue","yellow","[""blue"",""yellow"",""high nameability""]","left-right","[""blue"",""yellow"",""high nameability""]","4","high nameability","38","left","audio_feedback","1"
"html-button-response","186","293164","0.0-142.0","CKN_119","119","","","","","","null","<button class=""jspsych-btn""><img src=""stimuli/white_square.png"" style=""width: 200px;height: 200px;""></button>","null","blue","yellow","[""blue"",""yellow"",""high nameability""]","left-right","[""blue"",""yellow"",""high nameability""]","4","high nameability","38","left","iti",""
"html-button-response","187","299791","0.0-143.0","CKN_119","119","","","","","","6611","","0","orange","red","[""orange"",""red"",""high nameability""]","right-left","[""red"",""orange""]","4","high nameability","39","right","trigger",""
"html-button-response","188","301236","0.0-144.0-0.0","CKN_119","119","","","","","","1439","<button class=""jspsych-btn""><img src=""stimuli/orange.png"" style=""width: 200px;height: 200px;""></button>","1","orange","red","[""orange"",""red"",""high nameability""]","right-left","[""red"",""orange""]","4","high nameability","39","right","response","1"
"html-audio-button-response","189","301433","0.0-144.0-1.0","CKN_119","119","","","","","","null","stimuli/bleep.m4a","null","orange","red","[""orange"",""red"",""high nameability""]","right-left","[""red"",""orange""]","4","high nameability","39","right","audio_feedback","1"
"html-button-response","190","301945","0.0-145.0","CKN_119","119","","","","","","null","<button class=""jspsych-btn""><img src=""stimuli/white_square.png"" style=""width: 200px;height: 200px;""></button>","null","orange","red","[""orange"",""red"",""high nameability""]","right-left","[""red"",""orange""]","4","high nameability","39","right","iti",""
"html-button-response","191","303017","0.0-146.0","CKN_119","119","","","","","","1056","","0","mustard","lightred","[""mustard"",""lightred"",""low nameability""]","left-right","[""mustard"",""lightred"",""low nameability""]","4","low nameability","40","left","trigger",""
"html-button-response","192","304554","0.0-147.0-0.0","CKN_119","119","","","","","","1531","<button class=""jspsych-btn""><img src=""stimuli/mustard.png"" style=""width: 200px;height: 200px;""></button>","0","mustard","lightred","[""mustard"",""lightred"",""low nameability""]","left-right","[""mustard"",""lightred"",""low nameability""]","4","low nameability","40","left","response","1"
"html-audio-button-response","193","304753","0.0-147.0-1.0","CKN_119","119","","","","","","null","stimuli/bleep.m4a","null","mustard","lightred","[""mustard"",""lightred"",""low nameability""]","left-right","[""mustard"",""lightred"",""low nameability""]","4","low nameability","40","left","audio_feedback","1"
"html-button-response","194","305266","0.0-148.0","CKN_119","119","","","","","","null","<button class=""jspsych-btn""><img src=""stimuli/white_square.png"" style=""width: 200px;height: 200px;""></button>","null","mustard","lightred","[""mustard"",""lightred"",""low nameability""]","left-right","[""mustard"",""lightred"",""low nameability""]","4","low nameability","40","left","iti",""
"pavlovia","195","305336","0.0-149.0","CKN_119","119","","","","","","","","","","","","","","","","","","",""
"pavlovia","196","305347","0.0-150.0","CKN_119","119","","","","","","","","","","","","","","","","","","",""
"html-audio-button-response","197","310717","0.0-151.0","CKN_119","119","","","","","","5448","stimuli/tada.m4a","0","","","","","","","","","","",""
"html-button-response","198","311304","0.0-152.0","CKN_119","119","","","","","","578","","0","","","","","","","","","","",""
"html-button-response","199","312443","0.0-153.0","CKN_119","119","","","","","","1134","","0","blue","red","[""blue"",""red"",""high nameability""]","left-right","[""blue"",""red"",""high nameability""]","5","high nameability","41","left","trigger",""
"html-button-response","200","313677","0.0-154.0-0.0","CKN_119","119","","","","","","1229","<button class=""jspsych-btn""><img src=""stimuli/blue.png"" style=""width: 200px;height: 200px;""></button>","0","blue","red","[""blue"",""red"",""high nameability""]","left-right","[""blue"",""red"",""high nameability""]","5","high nameability","41","left","response","1"
"html-audio-button-response","201","313882","0.0-154.0-1.0","CKN_119","119","","","","","","null","stimuli/bleep.m4a","null","blue","red","[""blue"",""red"",""high nameability""]","left-right","[""blue"",""red"",""high nameability""]","5","high nameability","41","left","audio_feedback","1"
"html-button-response","202","314412","0.0-155.0","CKN_119","119","","","","","","null","<button class=""jspsych-btn""><img src=""stimuli/white_square.png"" style=""width: 200px;height: 200px;""></button>","null","blue","red","[""blue"",""red"",""high nameability""]","left-right","[""blue"",""red"",""high nameability""]","5","high nameability","41","left","iti",""
"html-button-response","203","315581","0.0-156.0","CKN_119","119","","","","","","1156","","0","purple","yellow","[""purple"",""yellow"",""high nameability""]","left-right","[""purple"",""yellow"",""high nameability""]","5","high nameability","42","left","trigger",""
"html-button-response","204","316793","0.0-157.0-0.0","CKN_119","119","","","","","","1206","<button class=""jspsych-btn""><img src=""stimuli/purple.png"" style=""width: 200px;height: 200px;""></button>","0","purple","yellow","[""purple"",""yellow"",""high nameability""]","left-right","[""purple"",""yellow"",""high nameability""]","5","high nameability","42","left","response","1"
"html-audio-button-response","205","316994","0.0-157.0-1.0","CKN_119","119","","","","","","null","stimuli/bleep.m4a","null","purple","yellow","[""purple"",""yellow"",""high nameability""]","left-right","[""purple"",""yellow"",""high nameability""]","5","high nameability","42","left","audio_feedback","1"
"html-button-response","206","317531","0.0-158.0","CKN_119","119","","","","","","null","<button class=""jspsych-btn""><img src=""stimuli/white_square.png"" style=""width: 200px;height: 200px;""></button>","null","purple","yellow","[""purple"",""yellow"",""high nameability""]","left-right","[""purple"",""yellow"",""high nameability""]","5","high nameability","42","left","iti",""
"html-button-response","207","317917","0.0-159.0","CKN_119","119","","","","","","345","","0","orange","brown","[""orange"",""brown"",""high nameability""]","right-left","[""brown"",""orange""]","5","high nameability","43","right","trigger",""
"html-button-response","208","319581","0.0-160.0-0.0","CKN_119","119","","","","","","1655","<button class=""jspsych-btn""><img src=""stimuli/orange.png"" style=""width: 200px;height: 200px;""></button>","1","orange","brown","[""orange"",""brown"",""high nameability""]","right-left","[""brown"",""orange""]","5","high nameability","43","right","response","1"
"html-audio-button-response","209","319786","0.0-160.0-1.0","CKN_119","119","","","","","","null","stimuli/bleep.m4a","null","orange","brown","[""orange"",""brown"",""high nameability""]","right-left","[""brown"",""orange""]","5","high nameability","43","right","audio_feedback","1"
"html-button-response","210","320302","0.0-161.0","CKN_119","119","","","","","","null","<button class=""jspsych-btn""><img src=""stimuli/white_square.png"" style=""width: 200px;height: 200px;""></button>","null","orange","brown","[""orange"",""brown"",""high nameability""]","right-left","[""brown"",""orange""]","5","high nameability","43","right","iti",""
"html-button-response","211","324873","0.0-162.0","CKN_119","119","","","","","","4557","","0","brown","red","[""brown"",""red"",""high nameability""]","right-left","[""red"",""brown""]","5","high nameability","44","right","trigger",""
"html-button-response","212","326096","0.0-163.0-0.0","CKN_119","119","","","","","","1217","<button class=""jspsych-btn""><img src=""stimuli/brown.png"" style=""width: 200px;height: 200px;""></button>","1","brown","red","[""brown"",""red"",""high nameability""]","right-left","[""red"",""brown""]","5","high nameability","44","right","response","1"
"html-audio-button-response","213","326298","0.0-163.0-1.0","CKN_119","119","","","","","","null","stimuli/bleep.m4a","null","brown","red","[""brown"",""red"",""high nameability""]","right-left","[""red"",""brown""]","5","high nameability","44","right","audio_feedback","1"
"html-button-response","214","326815","0.0-164.0","CKN_119","119","","","","","","null","<button class=""jspsych-btn""><img src=""stimuli/white_square.png"" style=""width: 200px;height: 200px;""></button>","null","brown","red","[""brown"",""red"",""high nameability""]","right-left","[""red"",""brown""]","5","high nameability","44","right","iti",""
"html-button-response","215","327243","0.0-165.0","CKN_119","119","","","","","","419","","0","neonyellow","lightred","[""neonyellow"",""lightred"",""low nameability""]","left-right","[""neonyellow"",""lightred"",""low nameability""]","5","low nameability","45","left","trigger",""
"html-button-response","216","328688","0.0-166.0-0.0","CKN_119","119","","","","","","1437","<button class=""jspsych-btn""><img src=""stimuli/neonyellow.png"" style=""width: 200px;height: 200px;""></button>","0","neonyellow","lightred","[""neonyellow"",""lightred"",""low nameability""]","left-right","[""neonyellow"",""lightred"",""low nameability""]","5","low nameability","45","left","response","1"
"html-audio-button-response","217","328890","0.0-166.0-1.0","CKN_119","119","","","","","","null","stimuli/bleep.m4a","null","neonyellow","lightred","[""neonyellow"",""lightred"",""low nameability""]","left-right","[""neonyellow"",""lightred"",""low nameability""]","5","low nameability","45","left","audio_feedback","1"
"html-button-response","218","329405","0.0-167.0","CKN_119","119","","","","","","null","<button class=""jspsych-btn""><img src=""stimuli/white_square.png"" style=""width: 200px;height: 200px;""></button>","null","neonyellow","lightred","[""neonyellow"",""lightred"",""low nameability""]","left-right","[""neonyellow"",""lightred"",""low nameability""]","5","low nameability","45","left","iti",""
"html-button-response","219","329699","0.0-168.0","CKN_119","119","","","","","","281","","0","yellow","red","[""yellow"",""red"",""high nameability""]","left-right","[""yellow"",""red"",""high nameability""]","5","high nameability","46","left","trigger",""
"html-button-response","220","331809","0.0-169.0-0.0","CKN_119","119","","","","","","2103","<button class=""jspsych-btn""><img src=""stimuli/yellow.png"" style=""width: 200px;height: 200px;""></button>","0","yellow","red","[""yellow"",""red"",""high nameability""]","left-right","[""yellow"",""red"",""high nameability""]","5","high nameability","46","left","response","1"
"html-audio-button-response","221","332009","0.0-169.0-1.0","CKN_119","119","","","","","","null","stimuli/bleep.m4a","null","yellow","red","[""yellow"",""red"",""high nameability""]","left-right","[""yellow"",""red"",""high nameability""]","5","high nameability","46","left","audio_feedback","1"
"html-button-response","222","332523","0.0-170.0","CKN_119","119","","","","","","null","<button class=""jspsych-btn""><img src=""stimuli/white_square.png"" style=""width: 200px;height: 200px;""></button>","null","yellow","red","[""yellow"",""red"",""high nameability""]","left-right","[""yellow"",""red"",""high nameability""]","5","high nameability","46","left","iti",""
"html-button-response","223","333242","0.0-171.0","CKN_119","119","","","","","","701","","0","mustard","pink","[""mustard"",""pink"",""low nameability""]","left-right","[""mustard"",""pink"",""low nameability""]","5","low nameability","47","left","trigger",""
"html-button-response","224","334392","0.0-172.0-0.0","CKN_119","119","","","","","","1143","<button class=""jspsych-btn""><img src=""stimuli/mustard.png"" style=""width: 200px;height: 200px;""></button>","0","mustard","pink","[""mustard"",""pink"",""low nameability""]","left-right","[""mustard"",""pink"",""low nameability""]","5","low nameability","47","left","response","1"
"html-audio-button-response","225","334594","0.0-172.0-1.0","CKN_119","119","","","","","","null","stimuli/bleep.m4a","null","mustard","pink","[""mustard"",""pink"",""low nameability""]","left-right","[""mustard"",""pink"",""low nameability""]","5","low nameability","47","left","audio_feedback","1"
"html-button-response","226","335114","0.0-173.0","CKN_119","119","","","","","","null","<button class=""jspsych-btn""><img src=""stimuli/white_square.png"" style=""width: 200px;height: 200px;""></button>","null","mustard","pink","[""mustard"",""pink"",""low nameability""]","left-right","[""mustard"",""pink"",""low nameability""]","5","low nameability","47","left","iti",""
"html-button-response","227","335683","0.0-174.0","CKN_119","119","","","","","","556","","0","brown","blue","[""brown"",""blue"",""high nameability""]","right-left","[""blue"",""brown""]","5","high nameability","48","right","trigger",""
"html-button-response","228","337474","0.0-175.0-0.0","CKN_119","119","","","","","","1785","<button class=""jspsych-btn""><img src=""stimuli/brown.png"" style=""width: 200px;height: 200px;""></button>","1","brown","blue","[""brown"",""blue"",""high nameability""]","right-left","[""blue"",""brown""]","5","high nameability","48","right","response","1"
"html-audio-button-response","229","337675","0.0-175.0-1.0","CKN_119","119","","","","","","null","stimuli/bleep.m4a","null","brown","blue","[""brown"",""blue"",""high nameability""]","right-left","[""blue"",""brown""]","5","high nameability","48","right","audio_feedback","1"
"html-button-response","230","338192","0.0-176.0","CKN_119","119","","","","","","null","<button class=""jspsych-btn""><img src=""stimuli/white_square.png"" style=""width: 200px;height: 200px;""></button>","null","brown","blue","[""brown"",""blue"",""high nameability""]","right-left","[""blue"",""brown""]","5","high nameability","48","right","iti",""
"html-button-response","231","339498","0.0-177.0","CKN_119","119","","","","","","1290","","0","lightred","pink","[""lightred"",""pink"",""low nameability""]","left-right","[""lightred"",""pink"",""low nameability""]","5","low nameability","49","left","trigger",""
"html-button-response","232","341499","0.0-178.0-0.0","CKN_119","119","","","","","","1991","<button class=""jspsych-btn""><img src=""stimuli/lightred.png"" style=""width: 200px;height: 200px;""></button>","0","lightred","pink","[""lightred"",""pink"",""low nameability""]","left-right","[""lightred"",""pink"",""low nameability""]","5","low nameability","49","left","response","1"
"html-audio-button-response","233","341703","0.0-178.0-1.0","CKN_119","119","","","","","","null","stimuli/bleep.m4a","null","lightred","pink","[""lightred"",""pink"",""low nameability""]","left-right","[""lightred"",""pink"",""low nameability""]","5","low nameability","49","left","audio_feedback","1"
"html-button-response","234","342218","0.0-179.0","CKN_119","119","","","","","","null","<button class=""jspsych-btn""><img src=""stimuli/white_square.png"" style=""width: 200px;height: 200px;""></button>","null","lightred","pink","[""lightred"",""pink"",""low nameability""]","left-right","[""lightred"",""pink"",""low nameability""]","5","low nameability","49","left","iti",""
"html-button-response","235","344061","0.0-180.0","CKN_119","119","","","","","","1834","","0","darkgreenblue","neonyellow","[""darkgreenblue"",""neonyellow"",""low nameability""]","right-left","[""neonyellow"",""darkgreenblue""]","5","low nameability","50","right","trigger",""
"html-button-response","236","345625","0.0-181.0-0.0","CKN_119","119","","","","","","1558","<button class=""jspsych-btn""><img src=""stimuli/darkgreenblue.png"" style=""width: 200px;height: 200px;""></button>","1","darkgreenblue","neonyellow","[""darkgreenblue"",""neonyellow"",""low nameability""]","right-left","[""neonyellow"",""darkgreenblue""]","5","low nameability","50","right","response","1"
"html-audio-button-response","237","345825","0.0-181.0-1.0","CKN_119","119","","","","","","null","stimuli/bleep.m4a","null","darkgreenblue","neonyellow","[""darkgreenblue"",""neonyellow"",""low nameability""]","right-left","[""neonyellow"",""darkgreenblue""]","5","low nameability","50","right","audio_feedback","1"
"html-button-response","238","346343","0.0-182.0","CKN_119","119","","","","","","null","<button class=""jspsych-btn""><img src=""stimuli/white_square.png"" style=""width: 200px;height: 200px;""></button>","null","darkgreenblue","neonyellow","[""darkgreenblue"",""neonyellow"",""low nameability""]","right-left","[""neonyellow"",""darkgreenblue""]","5","low nameability","50","right","iti",""
"pavlovia","239","346403","0.0-183.0","CKN_119","119","","","","","","","","","","","","","","","","","","",""
"pavlovia","240","346414","0.0-184.0","CKN_119","119","","","","","","","","","","","","","","","","","","",""
"html-audio-button-response","241","350278","0.0-185.0","CKN_119","119","","","","","","3928","stimuli/tada.m4a","0","","","","","","","","","","",""
"html-button-response","242","350829","0.0-186.0","CKN_119","119","","","","","","547","","0","","","","","","","","","","",""
"html-button-response","243","351980","0.0-187.0","CKN_119","119","","","","","","1144","","0","darkgreenblue","pink","[""darkgreenblue"",""pink"",""low nameability""]","right-left","[""pink"",""darkgreenblue""]","6","low nameability","51","right","trigger",""
"html-button-response","244","353049","0.0-188.0-0.0","CKN_119","119","","","","","","1062","<button class=""jspsych-btn""><img src=""stimuli/darkgreenblue.png"" style=""width: 200px;height: 200px;""></button>","1","darkgreenblue","pink","[""darkgreenblue"",""pink"",""low nameability""]","right-left","[""pink"",""darkgreenblue""]","6","low nameability","51","right","response","1"
"html-audio-button-response","245","353250","0.0-188.0-1.0","CKN_119","119","","","","","","null","stimuli/bleep.m4a","null","darkgreenblue","pink","[""darkgreenblue"",""pink"",""low nameability""]","right-left","[""pink"",""darkgreenblue""]","6","low nameability","51","right","audio_feedback","1"
"html-button-response","246","353763","0.0-189.0","CKN_119","119","","","","","","null","<button class=""jspsych-btn""><img src=""stimuli/white_square.png"" style=""width: 200px;height: 200px;""></button>","null","darkgreenblue","pink","[""darkgreenblue"",""pink"",""low nameability""]","right-left","[""pink"",""darkgreenblue""]","6","low nameability","51","right","iti",""
"html-button-response","247","354446","0.0-190.0","CKN_119","119","","","","","","662","","0","red","yellow","[""red"",""yellow"",""high nameability""]","right-left","[""yellow"",""red""]","6","high nameability","52","right","trigger",""
"html-button-response","248","355829","0.0-191.0-0.0","CKN_119","119","","","","","","1379","<button class=""jspsych-btn""><img src=""stimuli/red.png"" style=""width: 200px;height: 200px;""></button>","1","red","yellow","[""red"",""yellow"",""high nameability""]","right-left","[""yellow"",""red""]","6","high nameability","52","right","response","1"
"html-audio-button-response","249","356034","0.0-191.0-1.0","CKN_119","119","","","","","","null","stimuli/bleep.m4a","null","red","yellow","[""red"",""yellow"",""high nameability""]","right-left","[""yellow"",""red""]","6","high nameability","52","right","audio_feedback","1"
"html-button-response","250","356549","0.0-192.0","CKN_119","119","","","","","","null","<button class=""jspsych-btn""><img src=""stimuli/white_square.png"" style=""width: 200px;height: 200px;""></button>","null","red","yellow","[""red"",""yellow"",""high nameability""]","right-left","[""yellow"",""red""]","6","high nameability","52","right","iti",""
"html-button-response","251","357349","0.0-193.0","CKN_119","119","","","","","","790","","0","blue","orange","[""blue"",""orange"",""high nameability""]","right-left","[""orange"",""blue""]","6","high nameability","53","right","trigger",""
"html-button-response","252","359994","0.0-194.0-0.0","CKN_119","119","","","","","","2637","<button class=""jspsych-btn""><img src=""stimuli/blue.png"" style=""width: 200px;height: 200px;""></button>","1","blue","orange","[""blue"",""orange"",""high nameability""]","right-left","[""orange"",""blue""]","6","high nameability","53","right","response","1"
"html-audio-button-response","253","360208","0.0-194.0-1.0","CKN_119","119","","","","","","null","stimuli/bleep.m4a","null","blue","orange","[""blue"",""orange"",""high nameability""]","right-left","[""orange"",""blue""]","6","high nameability","53","right","audio_feedback","1"
"html-button-response","254","360732","0.0-195.0","CKN_119","119","","","","","","null","<button class=""jspsych-btn""><img src=""stimuli/white_square.png"" style=""width: 200px;height: 200px;""></button>","null","blue","orange","[""blue"",""orange"",""high nameability""]","right-left","[""orange"",""blue""]","6","high nameability","53","right","iti",""
"html-button-response","255","361370","0.0-196.0","CKN_119","119","","","","","","625","","0","turquoise","darkgreenblue","[""turquoise"",""darkgreenblue"",""low nameability""]","right-left","[""darkgreenblue"",""turquoise""]","6","low nameability","54","right","trigger",""
"html-button-response","256","362664","0.0-197.0-0.0","CKN_119","119","","","","","","1288","<button class=""jspsych-btn""><img src=""stimuli/turquoise.png"" style=""width: 200px;height: 200px;""></button>","1","turquoise","darkgreenblue","[""turquoise"",""darkgreenblue"",""low nameability""]","right-left","[""darkgreenblue"",""turquoise""]","6","low nameability","54","right","response","1"
"html-audio-button-response","257","362866","0.0-197.0-1.0","CKN_119","119","","","","","","null","stimuli/bleep.m4a","null","turquoise","darkgreenblue","[""turquoise"",""darkgreenblue"",""low nameability""]","right-left","[""darkgreenblue"",""turquoise""]","6","low nameability","54","right","audio_feedback","1"
"html-button-response","258","363382","0.0-198.0","CKN_119","119","","","","","","null","<button class=""jspsych-btn""><img src=""stimuli/white_square.png"" style=""width: 200px;height: 200px;""></button>","null","turquoise","darkgreenblue","[""turquoise"",""darkgreenblue"",""low nameability""]","right-left","[""darkgreenblue"",""turquoise""]","6","low nameability","54","right","iti",""
"html-button-response","259","363765","0.0-199.0","CKN_119","119","","","","","","368","","0","red","purple","[""red"",""purple"",""high nameability""]","right-left","[""purple"",""red""]","6","high nameability","55","right","trigger",""
"html-button-response","260","364952","0.0-200.0-0.0","CKN_119","119","","","","","","1181","<button class=""jspsych-btn""><img src=""stimuli/red.png"" style=""width: 200px;height: 200px;""></button>","1","red","purple","[""red"",""purple"",""high nameability""]","right-left","[""purple"",""red""]","6","high nameability","55","right","response","1"
"html-audio-button-response","261","365153","0.0-200.0-1.0","CKN_119","119","","","","","","null","stimuli/bleep.m4a","null","red","purple","[""red"",""purple"",""high nameability""]","right-left","[""purple"",""red""]","6","high nameability","55","right","audio_feedback","1"
"html-button-response","262","365662","0.0-201.0","CKN_119","119","","","","","","null","<button class=""jspsych-btn""><img src=""stimuli/white_square.png"" style=""width: 200px;height: 200px;""></button>","null","red","purple","[""red"",""purple"",""high nameability""]","right-left","[""purple"",""red""]","6","high nameability","55","right","iti",""
"html-button-response","263","366394","0.0-202.0","CKN_119","119","","","","","","719","","0","darkgreenblue","mustard","[""darkgreenblue"",""mustard"",""low nameability""]","right-left","[""mustard"",""darkgreenblue""]","6","low nameability","56","right","trigger",""
"html-button-response","264","367305","0.0-203.0-0.0","CKN_119","119","","","","","","905","<button class=""jspsych-btn""><img src=""stimuli/darkgreenblue.png"" style=""width: 200px;height: 200px;""></button>","1","darkgreenblue","mustard","[""darkgreenblue"",""mustard"",""low nameability""]","right-left","[""mustard"",""darkgreenblue""]","6","low nameability","56","right","response","1"
"html-audio-button-response","265","367506","0.0-203.0-1.0","CKN_119","119","","","","","","null","stimuli/bleep.m4a","null","darkgreenblue","mustard","[""darkgreenblue"",""mustard"",""low nameability""]","right-left","[""mustard"",""darkgreenblue""]","6","low nameability","56","right","audio_feedback","1"
"html-button-response","266","368025","0.0-204.0","CKN_119","119","","","","","","null","<button class=""jspsych-btn""><img src=""stimuli/white_square.png"" style=""width: 200px;height: 200px;""></button>","null","darkgreenblue","mustard","[""darkgreenblue"",""mustard"",""low nameability""]","right-left","[""mustard"",""darkgreenblue""]","6","low nameability","56","right","iti",""
"html-button-response","267","368768","0.0-205.0","CKN_119","119","","","","","","725","","0","yellow","purple","[""yellow"",""purple"",""high nameability""]","right-left","[""purple"",""yellow""]","6","high nameability","57","right","trigger",""
"html-button-response","268","369514","0.0-206.0-0.0","CKN_119","119","","","","","","739","<button class=""jspsych-btn""><img src=""stimuli/yellow.png"" style=""width: 200px;height: 200px;""></button>","1","yellow","purple","[""yellow"",""purple"",""high nameability""]","right-left","[""purple"",""yellow""]","6","high nameability","57","right","response","1"
"html-audio-button-response","269","369714","0.0-206.0-1.0","CKN_119","119","","","","","","null","stimuli/bleep.m4a","null","yellow","purple","[""yellow"",""purple"",""high nameability""]","right-left","[""purple"",""yellow""]","6","high nameability","57","right","audio_feedback","1"
"html-button-response","270","370224","0.0-207.0","CKN_119","119","","","","","","null","<button class=""jspsych-btn""><img src=""stimuli/white_square.png"" style=""width: 200px;height: 200px;""></button>","null","yellow","purple","[""yellow"",""purple"",""high nameability""]","right-left","[""purple"",""yellow""]","6","high nameability","57","right","iti",""
"html-button-response","271","371222","0.0-208.0","CKN_119","119","","","","","","985","","0","yellow","orange","[""yellow"",""orange"",""high nameability""]","right-left","[""orange"",""yellow""]","6","high nameability","58","right","trigger",""
"html-button-response","272","372543","0.0-209.0-0.0","CKN_119","119","","","","","","1315","<button class=""jspsych-btn""><img src=""stimuli/yellow.png"" style=""width: 200px;height: 200px;""></button>","1","yellow","orange","[""yellow"",""orange"",""high nameability""]","right-left","[""orange"",""yellow""]","6","high nameability","58","right","response","1"
"html-audio-button-response","273","372746","0.0-209.0-1.0","CKN_119","119","","","","","","null","stimuli/bleep.m4a","null","yellow","orange","[""yellow"",""orange"",""high nameability""]","right-left","[""orange"",""yellow""]","6","high nameability","58","right","audio_feedback","1"
"html-button-response","274","373258","0.0-210.0","CKN_119","119","","","","","","null","<button class=""jspsych-btn""><img src=""stimuli/white_square.png"" style=""width: 200px;height: 200px;""></button>","null","yellow","orange","[""yellow"",""orange"",""high nameability""]","right-left","[""orange"",""yellow""]","6","high nameability","58","right","iti",""
"html-button-response","275","374246","0.0-211.0","CKN_119","119","","","","","","976","","0","brown","purple","[""brown"",""purple"",""high nameability""]","left-right","[""brown"",""purple"",""high nameability""]","6","high nameability","59","left","trigger",""
"html-button-response","276","376024","0.0-212.0-0.0","CKN_119","119","","","","","","1771","<button class=""jspsych-btn""><img src=""stimuli/brown.png"" style=""width: 200px;height: 200px;""></button>","0","brown","purple","[""brown"",""purple"",""high nameability""]","left-right","[""brown"",""purple"",""high nameability""]","6","high nameability","59","left","response","1"
"html-audio-button-response","277","376227","0.0-212.0-1.0","CKN_119","119","","","","","","null","stimuli/bleep.m4a","null","brown","purple","[""brown"",""purple"",""high nameability""]","left-right","[""brown"",""purple"",""high nameability""]","6","high nameability","59","left","audio_feedback","1"
"html-button-response","278","376747","0.0-213.0","CKN_119","119","","","","","","null","<button class=""jspsych-btn""><img src=""stimuli/white_square.png"" style=""width: 200px;height: 200px;""></button>","null","brown","purple","[""brown"",""purple"",""high nameability""]","left-right","[""brown"",""purple"",""high nameability""]","6","high nameability","59","left","iti",""
"html-button-response","279","377676","0.0-214.0","CKN_119","119","","","","","","910","","0","neonyellow","pink","[""neonyellow"",""pink"",""low nameability""]","left-right","[""neonyellow"",""pink"",""low nameability""]","6","low nameability","60","left","trigger",""
"html-button-response","280","382025","0.0-215.0-0.0","CKN_119","119","","","","","","4342","<button class=""jspsych-btn""><img src=""stimuli/neonyellow.png"" style=""width: 200px;height: 200px;""></button>","0","neonyellow","pink","[""neonyellow"",""pink"",""low nameability""]","left-right","[""neonyellow"",""pink"",""low nameability""]","6","low nameability","60","left","response","1"
"html-audio-button-response","281","382225","0.0-215.0-1.0","CKN_119","119","","","","","","null","stimuli/bleep.m4a","null","neonyellow","pink","[""neonyellow"",""pink"",""low nameability""]","left-right","[""neonyellow"",""pink"",""low nameability""]","6","low nameability","60","left","audio_feedback","1"
"html-button-response","282","382739","0.0-216.0","CKN_119","119","","","","","","null","<button class=""jspsych-btn""><img src=""stimuli/white_square.png"" style=""width: 200px;height: 200px;""></button>","null","neonyellow","pink","[""neonyellow"",""pink"",""low nameability""]","left-right","[""neonyellow"",""pink"",""low nameability""]","6","low nameability","60","left","iti",""
