"trial_type","trial_index","time_elapsed","internal_node_id","subject_id","seed","success","timeout","failed_images","failed_audio","failed_video","rt","stimulus","response","target","foil","choices","combination_order","choices_in_order","round","condition","trial_counter","target_location","trial_kind","correct"
"pavlovia","0","23","0.0-0.0","CKN_125","125","","","","","","","","","","","","","","","","","","",""
"preload","1","1023","0.0-1.0","CKN_125","125","true","false","[]","[]","[]","","","","","","","","","","","","","",""
"fullscreen","2","2759","0.0-2.0","CKN_125","125","true","","","","","","","","","","","","","","","","","",""
"html-button-response","3","12020","0.0-3.0","CKN_125","125","","","","","","9244","","0","","","","","","","","","","",""
"html-button-response","4","16859","0.0-4.0","CKN_125","125","","","","","","4827","","0","star","square","[""square"",""star""]","left-right","[""square"",""star""]","1","practice","1","right","trigger",""
"html-button-response","5","21239","0.0-5.0-0.0","CKN_125","125","","","","","","4367","<button class=""jspsych-btn""><img src=""stimuli/star.png"" style=""width: 200px;height: 200px;""></button>","1","star","square","[""square"",""star""]","left-right","[""square"",""star""]","1","practice","1","right","response","1"
"html-audio-button-response","6","21446","0.0-5.0-1.0","CKN_125","125","","","","","","null","stimuli/bleep.m4a","null","star","square","[""square"",""star""]","left-right","[""square"",""star""]","1","practice","1","right","audio_feedback","1"
"html-button-response","7","21967","0.0-6.0","CKN_125","125","","","","","","null","<button class=""jspsych-btn""><img src=""stimuli/white_square.png"" style=""width: 200px;height: 200px;""></button>","null","star","square","[""square"",""star""]","left-right","[""square"",""star""]","1","practice","1","right","iti",""
"html-button-response","8","24341","0.0-7.0","CKN_125","125","","","","","","2355","","0","triangle","pentagram","[""triangle"",""pentagram""]","left-right","[""triangle"",""pentagram""]","1","practice","1","left","trigger",""
"html-button-response","9","32224","0.0-8.0-0.0","CKN_125","125","","","","","","7875","<button class=""jspsych-btn""><img src=""stimuli/triangle.png"" style=""width: 200px;height: 200px;""></button>","0","triangle","pentagram","[""triangle"",""pentagram""]","left-right","[""triangle"",""pentagram""]","1","practice","1","left","response","1"
"html-audio-button-response","10","32429","0.0-8.0-1.0","CKN_125","125","","","","","","null","stimuli/bleep.m4a","null","triangle","pentagram","[""triangle"",""pentagram""]","left-right","[""triangle"",""pentagram""]","1","practice","1","left","audio_feedback","1"
"html-button-response","11","32941","0.0-9.0","CKN_125","125","","","","","","null","<button class=""jspsych-btn""><img src=""stimuli/white_square.png"" style=""width: 200px;height: 200px;""></button>","null","triangle","pentagram","[""triangle"",""pentagram""]","left-right","[""triangle"",""pentagram""]","1","practice","1","left","iti",""
"html-button-response","12","34588","0.0-10.0","CKN_125","125","","","","","","1635","","0","diamond","rectangle","[""rectangle"",""diamond""]","left-right","[""rectangle"",""diamond""]","1","practice","1","right","trigger",""
"html-button-response","13","39511","0.0-11.0-0.0","CKN_125","125","","","","","","4916","<button class=""jspsych-btn""><img src=""stimuli/diamond.png"" style=""width: 200px;height: 200px;""></button>","1","diamond","rectangle","[""rectangle"",""diamond""]","left-right","[""rectangle"",""diamond""]","1","practice","1","right","response","1"
"html-audio-button-response","14","39735","0.0-11.0-1.0","CKN_125","125","","","","","","null","stimuli/bleep.m4a","null","diamond","rectangle","[""rectangle"",""diamond""]","left-right","[""rectangle"",""diamond""]","1","practice","1","right","audio_feedback","1"
"html-button-response","15","40262","0.0-12.0","CKN_125","125","","","","","","null","<button class=""jspsych-btn""><img src=""stimuli/white_square.png"" style=""width: 200px;height: 200px;""></button>","null","diamond","rectangle","[""rectangle"",""diamond""]","left-right","[""rectangle"",""diamond""]","1","practice","1","right","iti",""
"html-button-response","16","41656","0.0-13.0","CKN_125","125","","","","","","1375","","0","pentagram","star","[""pentagram"",""star""]","left-right","[""pentagram"",""star""]","1","practice","1","left","trigger",""
"html-button-response","17","44443","0.0-14.0-0.0","CKN_125","125","","","","","","2780","<button class=""jspsych-btn""><img src=""stimuli/pentagram.png"" style=""width: 200px;height: 200px;""></button>","0","pentagram","star","[""pentagram"",""star""]","left-right","[""pentagram"",""star""]","1","practice","1","left","response","1"
"html-audio-button-response","18","44658","0.0-14.0-1.0","CKN_125","125","","","","","","null","stimuli/bleep.m4a","null","pentagram","star","[""pentagram"",""star""]","left-right","[""pentagram"",""star""]","1","practice","1","left","audio_feedback","1"
"html-button-response","19","45179","0.0-15.0","CKN_125","125","","","","","","null","<button class=""jspsych-btn""><img src=""stimuli/white_square.png"" style=""width: 200px;height: 200px;""></button>","null","pentagram","star","[""pentagram"",""star""]","left-right","[""pentagram"",""star""]","1","practice","1","left","iti",""
"html-button-response","20","48560","0.0-16.0","CKN_125","125","","","","","","3373","","0","","","","","","","","","","",""
"html-button-response","21","52564","0.0-17.0","CKN_125","125","","","","","","3996","","0","pink","turquoise","[""pink"",""turquoise"",""low nameability""]","right-left","[""turquoise"",""pink""]","1","low nameability","1","right","trigger",""
"html-button-response","22","56900","0.0-18.0-0.0","CKN_125","125","","","","","","4322","<button class=""jspsych-btn""><img src=""stimuli/pink.png"" style=""width: 200px;height: 200px;""></button>","1","pink","turquoise","[""pink"",""turquoise"",""low nameability""]","right-left","[""turquoise"",""pink""]","1","low nameability","1","right","response","1"
"html-audio-button-response","23","57102","0.0-18.0-1.0","CKN_125","125","","","","","","null","stimuli/bleep.m4a","null","pink","turquoise","[""pink"",""turquoise"",""low nameability""]","right-left","[""turquoise"",""pink""]","1","low nameability","1","right","audio_feedback","1"
"html-button-response","24","57613","0.0-19.0","CKN_125","125","","","","","","null","<button class=""jspsych-btn""><img src=""stimuli/white_square.png"" style=""width: 200px;height: 200px;""></button>","null","pink","turquoise","[""pink"",""turquoise"",""low nameability""]","right-left","[""turquoise"",""pink""]","1","low nameability","1","right","iti",""
"html-button-response","25","61420","0.0-20.0","CKN_125","125","","","","","","3781","","0","red","yellow","[""red"",""yellow"",""high nameability""]","left-right","[""red"",""yellow"",""high nameability""]","1","high nameability","2","left","trigger",""
"html-button-response","26","63391","0.0-21.0-0.0","CKN_125","125","","","","","","1958","<button class=""jspsych-btn""><img src=""stimuli/red.png"" style=""width: 200px;height: 200px;""></button>","0","red","yellow","[""red"",""yellow"",""high nameability""]","left-right","[""red"",""yellow"",""high nameability""]","1","high nameability","2","left","response","1"
"html-audio-button-response","27","63603","0.0-21.0-1.0","CKN_125","125","","","","","","null","stimuli/bleep.m4a","null","red","yellow","[""red"",""yellow"",""high nameability""]","left-right","[""red"",""yellow"",""high nameability""]","1","high nameability","2","left","audio_feedback","1"
"html-button-response","28","64121","0.0-22.0","CKN_125","125","","","","","","null","<button class=""jspsych-btn""><img src=""stimuli/white_square.png"" style=""width: 200px;height: 200px;""></button>","null","red","yellow","[""red"",""yellow"",""high nameability""]","left-right","[""red"",""yellow"",""high nameability""]","1","high nameability","2","left","iti",""
"html-button-response","29","72107","0.0-23.0","CKN_125","125","","","","","","7963","","0","lightred","pink","[""lightred"",""pink"",""low nameability""]","right-left","[""pink"",""lightred""]","1","low nameability","3","right","trigger",""
"html-button-response","30","74237","0.0-24.0-0.0","CKN_125","125","","","","","","2119","<button class=""jspsych-btn""><img src=""stimuli/lightred.png"" style=""width: 200px;height: 200px;""></button>","1","lightred","pink","[""lightred"",""pink"",""low nameability""]","right-left","[""pink"",""lightred""]","1","low nameability","3","right","response","1"
"html-audio-button-response","31","74446","0.0-24.0-1.0","CKN_125","125","","","","","","null","stimuli/bleep.m4a","null","lightred","pink","[""lightred"",""pink"",""low nameability""]","right-left","[""pink"",""lightred""]","1","low nameability","3","right","audio_feedback","1"
"html-button-response","32","74963","0.0-25.0","CKN_125","125","","","","","","null","<button class=""jspsych-btn""><img src=""stimuli/white_square.png"" style=""width: 200px;height: 200px;""></button>","null","lightred","pink","[""lightred"",""pink"",""low nameability""]","right-left","[""pink"",""lightred""]","1","low nameability","3","right","iti",""
"html-button-response","33","76995","0.0-26.0","CKN_125","125","","","","","","2006","","0","red","orange","[""red"",""orange"",""high nameability""]","right-left","[""orange"",""red""]","1","high nameability","4","right","trigger",""
"html-button-response","34","78439","0.0-27.0-0.0","CKN_125","125","","","","","","1431","<button class=""jspsych-btn""><img src=""stimuli/red.png"" style=""width: 200px;height: 200px;""></button>","1","red","orange","[""red"",""orange"",""high nameability""]","right-left","[""orange"",""red""]","1","high nameability","4","right","response","1"
"html-audio-button-response","35","78646","0.0-27.0-1.0","CKN_125","125","","","","","","null","stimuli/bleep.m4a","null","red","orange","[""red"",""orange"",""high nameability""]","right-left","[""orange"",""red""]","1","high nameability","4","right","audio_feedback","1"
"html-button-response","36","79167","0.0-28.0","CKN_125","125","","","","","","null","<button class=""jspsych-btn""><img src=""stimuli/white_square.png"" style=""width: 200px;height: 200px;""></button>","null","red","orange","[""red"",""orange"",""high nameability""]","right-left","[""orange"",""red""]","1","high nameability","4","right","iti",""
"html-button-response","37","82080","0.0-29.0","CKN_125","125","","","","","","2882","","0","neonyellow","lightred","[""neonyellow"",""lightred"",""low nameability""]","right-left","[""lightred"",""neonyellow""]","1","low nameability","5","right","trigger",""
"html-button-response","38","83370","0.0-30.0-0.0","CKN_125","125","","","","","","1283","<button class=""jspsych-btn""><img src=""stimuli/neonyellow.png"" style=""width: 200px;height: 200px;""></button>","1","neonyellow","lightred","[""neonyellow"",""lightred"",""low nameability""]","right-left","[""lightred"",""neonyellow""]","1","low nameability","5","right","response","1"
"html-audio-button-response","39","83580","0.0-30.0-1.0","CKN_125","125","","","","","","null","stimuli/bleep.m4a","null","neonyellow","lightred","[""neonyellow"",""lightred"",""low nameability""]","right-left","[""lightred"",""neonyellow""]","1","low nameability","5","right","audio_feedback","1"
"html-button-response","40","84107","0.0-31.0","CKN_125","125","","","","","","null","<button class=""jspsych-btn""><img src=""stimuli/white_square.png"" style=""width: 200px;height: 200px;""></button>","null","neonyellow","lightred","[""neonyellow"",""lightred"",""low nameability""]","right-left","[""lightred"",""neonyellow""]","1","low nameability","5","right","iti",""
"html-button-response","41","91636","0.0-32.0","CKN_125","125","","","","","","7515","","0","orange","red","[""orange"",""red"",""high nameability""]","left-right","[""orange"",""red"",""high nameability""]","1","high nameability","6","left","trigger",""
"html-button-response","42","97920","0.0-33.0-0.0","CKN_125","125","","","","","","6276","<button class=""jspsych-btn""><img src=""stimuli/orange.png"" style=""width: 200px;height: 200px;""></button>","0","orange","red","[""orange"",""red"",""high nameability""]","left-right","[""orange"",""red"",""high nameability""]","1","high nameability","6","left","response","1"
"html-audio-button-response","43","98130","0.0-33.0-1.0","CKN_125","125","","","","","","null","stimuli/bleep.m4a","null","orange","red","[""orange"",""red"",""high nameability""]","left-right","[""orange"",""red"",""high nameability""]","1","high nameability","6","left","audio_feedback","1"
"html-button-response","44","98660","0.0-34.0","CKN_125","125","","","","","","null","<button class=""jspsych-btn""><img src=""stimuli/white_square.png"" style=""width: 200px;height: 200px;""></button>","null","orange","red","[""orange"",""red"",""high nameability""]","left-right","[""orange"",""red"",""high nameability""]","1","high nameability","6","left","iti",""
"html-button-response","45","103358","0.0-35.0","CKN_125","125","","","","","","4681","","0","purple","blue","[""purple"",""blue"",""high nameability""]","left-right","[""purple"",""blue"",""high nameability""]","1","high nameability","7","left","trigger",""
"html-button-response","46","105701","0.0-36.0-0.0","CKN_125","125","","","","","","2328","<button class=""jspsych-btn""><img src=""stimuli/purple.png"" style=""width: 200px;height: 200px;""></button>","0","purple","blue","[""purple"",""blue"",""high nameability""]","left-right","[""purple"",""blue"",""high nameability""]","1","high nameability","7","left","response","1"
"html-audio-button-response","47","105910","0.0-36.0-1.0","CKN_125","125","","","","","","null","stimuli/bleep.m4a","null","purple","blue","[""purple"",""blue"",""high nameability""]","left-right","[""purple"",""blue"",""high nameability""]","1","high nameability","7","left","audio_feedback","1"
"html-button-response","48","106430","0.0-37.0","CKN_125","125","","","","","","null","<button class=""jspsych-btn""><img src=""stimuli/white_square.png"" style=""width: 200px;height: 200px;""></button>","null","purple","blue","[""purple"",""blue"",""high nameability""]","left-right","[""purple"",""blue"",""high nameability""]","1","high nameability","7","left","iti",""
"html-button-response","49","108475","0.0-38.0","CKN_125","125","","","","","","2028","","0","mustard","darkgreenblue","[""mustard"",""darkgreenblue"",""low nameability""]","right-left","[""darkgreenblue"",""mustard""]","1","low nameability","8","right","trigger",""
"html-button-response","50","110930","0.0-39.0-0.0","CKN_125","125","","","","","","2447","<button class=""jspsych-btn""><img src=""stimuli/mustard.png"" style=""width: 200px;height: 200px;""></button>","1","mustard","darkgreenblue","[""mustard"",""darkgreenblue"",""low nameability""]","right-left","[""darkgreenblue"",""mustard""]","1","low nameability","8","right","response","1"
"html-audio-button-response","51","111134","0.0-39.0-1.0","CKN_125","125","","","","","","null","stimuli/bleep.m4a","null","mustard","darkgreenblue","[""mustard"",""darkgreenblue"",""low nameability""]","right-left","[""darkgreenblue"",""mustard""]","1","low nameability","8","right","audio_feedback","1"
"html-button-response","52","111650","0.0-40.0","CKN_125","125","","","","","","null","<button class=""jspsych-btn""><img src=""stimuli/white_square.png"" style=""width: 200px;height: 200px;""></button>","null","mustard","darkgreenblue","[""mustard"",""darkgreenblue"",""low nameability""]","right-left","[""darkgreenblue"",""mustard""]","1","low nameability","8","right","iti",""
"html-button-response","53","116241","0.0-41.0","CKN_125","125","","","","","","4581","","0","orange","purple","[""orange"",""purple"",""high nameability""]","left-right","[""orange"",""purple"",""high nameability""]","1","high nameability","9","left","trigger",""
"html-button-response","54","120619","0.0-42.0-0.0","CKN_125","125","","","","","","4371","<button class=""jspsych-btn""><img src=""stimuli/orange.png"" style=""width: 200px;height: 200px;""></button>","0","orange","purple","[""orange"",""purple"",""high nameability""]","left-right","[""orange"",""purple"",""high nameability""]","1","high nameability","9","left","response","1"
"html-audio-button-response","55","120821","0.0-42.0-1.0","CKN_125","125","","","","","","null","stimuli/bleep.m4a","null","orange","purple","[""orange"",""purple"",""high nameability""]","left-right","[""orange"",""purple"",""high nameability""]","1","high nameability","9","left","audio_feedback","1"
"html-button-response","56","121330","0.0-43.0","CKN_125","125","","","","","","null","<button class=""jspsych-btn""><img src=""stimuli/white_square.png"" style=""width: 200px;height: 200px;""></button>","null","orange","purple","[""orange"",""purple"",""high nameability""]","left-right","[""orange"",""purple"",""high nameability""]","1","high nameability","9","left","iti",""
"html-button-response","57","123119","0.0-44.0","CKN_125","125","","","","","","1776","","0","yellow","blue","[""yellow"",""blue"",""high nameability""]","left-right","[""yellow"",""blue"",""high nameability""]","1","high nameability","10","left","trigger",""
"html-button-response","58","124656","0.0-45.0-0.0","CKN_125","125","","","","","","1525","<button class=""jspsych-btn""><img src=""stimuli/yellow.png"" style=""width: 200px;height: 200px;""></button>","0","yellow","blue","[""yellow"",""blue"",""high nameability""]","left-right","[""yellow"",""blue"",""high nameability""]","1","high nameability","10","left","response","1"
"html-audio-button-response","59","124872","0.0-45.0-1.0","CKN_125","125","","","","","","null","stimuli/bleep.m4a","null","yellow","blue","[""yellow"",""blue"",""high nameability""]","left-right","[""yellow"",""blue"",""high nameability""]","1","high nameability","10","left","audio_feedback","1"
"html-button-response","60","125404","0.0-46.0","CKN_125","125","","","","","","null","<button class=""jspsych-btn""><img src=""stimuli/white_square.png"" style=""width: 200px;height: 200px;""></button>","null","yellow","blue","[""yellow"",""blue"",""high nameability""]","left-right","[""yellow"",""blue"",""high nameability""]","1","high nameability","10","left","iti",""
"pavlovia","61","125516","0.0-47.0","CKN_125","125","","","","","","","","","","","","","","","","","","",""
"pavlovia","62","125539","0.0-48.0","CKN_125","125","","","","","","","","","","","","","","","","","","",""
"html-audio-button-response","63","130503","0.0-49.0","CKN_125","125","","","","","","5104","stimuli/tada.m4a","0","","","","","","","","","","",""
"html-button-response","64","131033","0.0-50.0","CKN_125","125","","","","","","522","","0","","","","","","","","","","",""
"html-button-response","65","132270","0.0-51.0","CKN_125","125","","","","","","1223","","0","pink","darkgreenblue","[""pink"",""darkgreenblue"",""low nameability""]","right-left","[""darkgreenblue"",""pink""]","2","low nameability","11","right","trigger",""
"html-button-response","66","133856","0.0-52.0-0.0","CKN_125","125","","","","","","1571","<button class=""jspsych-btn""><img src=""stimuli/pink.png"" style=""width: 200px;height: 200px;""></button>","1","pink","darkgreenblue","[""pink"",""darkgreenblue"",""low nameability""]","right-left","[""darkgreenblue"",""pink""]","2","low nameability","11","right","response","1"
"html-audio-button-response","67","134063","0.0-52.0-1.0","CKN_125","125","","","","","","null","stimuli/bleep.m4a","null","pink","darkgreenblue","[""pink"",""darkgreenblue"",""low nameability""]","right-left","[""darkgreenblue"",""pink""]","2","low nameability","11","right","audio_feedback","1"
"html-button-response","68","134586","0.0-53.0","CKN_125","125","","","","","","null","<button class=""jspsych-btn""><img src=""stimuli/white_square.png"" style=""width: 200px;height: 200px;""></button>","null","pink","darkgreenblue","[""pink"",""darkgreenblue"",""low nameability""]","right-left","[""darkgreenblue"",""pink""]","2","low nameability","11","right","iti",""
"html-button-response","69","137225","0.0-54.0","CKN_125","125","","","","","","2624","","0","darkgreenblue","lightred","[""darkgreenblue"",""lightred"",""low nameability""]","right-left","[""lightred"",""darkgreenblue""]","2","low nameability","12","right","trigger",""
"html-button-response","70","139413","0.0-55.0-0.0","CKN_125","125","","","","","","2177","<button class=""jspsych-btn""><img src=""stimuli/darkgreenblue.png"" style=""width: 200px;height: 200px;""></button>","1","darkgreenblue","lightred","[""darkgreenblue"",""lightred"",""low nameability""]","right-left","[""lightred"",""darkgreenblue""]","2","low nameability","12","right","response","1"
"html-audio-button-response","71","139624","0.0-55.0-1.0","CKN_125","125","","","","","","null","stimuli/bleep.m4a","null","darkgreenblue","lightred","[""darkgreenblue"",""lightred"",""low nameability""]","right-left","[""lightred"",""darkgreenblue""]","2","low nameability","12","right","audio_feedback","1"
"html-button-response","72","140155","0.0-56.0","CKN_125","125","","","","","","null","<button class=""jspsych-btn""><img src=""stimuli/white_square.png"" style=""width: 200px;height: 200px;""></button>","null","darkgreenblue","lightred","[""darkgreenblue"",""lightred"",""low nameability""]","right-left","[""lightred"",""darkgreenblue""]","2","low nameability","12","right","iti",""
"html-button-response","73","141259","0.0-57.0","CKN_125","125","","","","","","1079","","0","neonyellow","mustard","[""neonyellow"",""mustard"",""low nameability""]","left-right","[""neonyellow"",""mustard"",""low nameability""]","2","low nameability","13","left","trigger",""
"html-button-response","74","145321","0.0-58.0-0.0","CKN_125","125","","","","","","4058","<button class=""jspsych-btn""><img src=""stimuli/neonyellow.png"" style=""width: 200px;height: 200px;""></button>","0","neonyellow","mustard","[""neonyellow"",""mustard"",""low nameability""]","left-right","[""neonyellow"",""mustard"",""low nameability""]","2","low nameability","13","left","response","1"
"html-audio-button-response","75","145525","0.0-58.0-1.0","CKN_125","125","","","","","","null","stimuli/bleep.m4a","null","neonyellow","mustard","[""neonyellow"",""mustard"",""low nameability""]","left-right","[""neonyellow"",""mustard"",""low nameability""]","2","low nameability","13","left","audio_feedback","1"
"html-button-response","76","146042","0.0-59.0","CKN_125","125","","","","","","null","<button class=""jspsych-btn""><img src=""stimuli/white_square.png"" style=""width: 200px;height: 200px;""></button>","null","neonyellow","mustard","[""neonyellow"",""mustard"",""low nameability""]","left-right","[""neonyellow"",""mustard"",""low nameability""]","2","low nameability","13","left","iti",""
"html-button-response","77","147684","0.0-60.0","CKN_125","125","","","","","","1627","","0","pink","neonyellow","[""pink"",""neonyellow"",""low nameability""]","right-left","[""neonyellow"",""pink""]","2","low nameability","14","right","trigger",""
"html-button-response","78","149604","0.0-61.0-0.0","CKN_125","125","","","","","","1914","<button class=""jspsych-btn""><img src=""stimuli/pink.png"" style=""width: 200px;height: 200px;""></button>","1","pink","neonyellow","[""pink"",""neonyellow"",""low nameability""]","right-left","[""neonyellow"",""pink""]","2","low nameability","14","right","response","1"
"html-audio-button-response","79","149805","0.0-61.0-1.0","CKN_125","125","","","","","","null","stimuli/bleep.m4a","null","pink","neonyellow","[""pink"",""neonyellow"",""low nameability""]","right-left","[""neonyellow"",""pink""]","2","low nameability","14","right","audio_feedback","1"
"html-button-response","80","150330","0.0-62.0","CKN_125","125","","","","","","null","<button class=""jspsych-btn""><img src=""stimuli/white_square.png"" style=""width: 200px;height: 200px;""></button>","null","pink","neonyellow","[""pink"",""neonyellow"",""low nameability""]","right-left","[""neonyellow"",""pink""]","2","low nameability","14","right","iti",""
"html-button-response","81","153267","0.0-63.0","CKN_125","125","","","","","","2923","","0","mustard","neonyellow","[""mustard"",""neonyellow"",""low nameability""]","right-left","[""neonyellow"",""mustard""]","2","low nameability","15","right","trigger",""
"html-button-response","82","155514","0.0-64.0-0.0","CKN_125","125","","","","","","2239","<button class=""jspsych-btn""><img src=""stimuli/mustard.png"" style=""width: 200px;height: 200px;""></button>","1","mustard","neonyellow","[""mustard"",""neonyellow"",""low nameability""]","right-left","[""neonyellow"",""mustard""]","2","low nameability","15","right","response","1"
"html-audio-button-response","83","155718","0.0-64.0-1.0","CKN_125","125","","","","","","null","stimuli/bleep.m4a","null","mustard","neonyellow","[""mustard"",""neonyellow"",""low nameability""]","right-left","[""neonyellow"",""mustard""]","2","low nameability","15","right","audio_feedback","1"
"html-button-response","84","156236","0.0-65.0","CKN_125","125","","","","","","null","<button class=""jspsych-btn""><img src=""stimuli/white_square.png"" style=""width: 200px;height: 200px;""></button>","null","mustard","neonyellow","[""mustard"",""neonyellow"",""low nameability""]","right-left","[""neonyellow"",""mustard""]","2","low nameability","15","right","iti",""
"html-button-response","85","157289","0.0-66.0","CKN_125","125","","","","","","1037","","0","turquoise","pink","[""turquoise"",""pink"",""low nameability""]","right-left","[""pink"",""turquoise""]","2","low nameability","16","right","trigger",""
"html-button-response","86","159615","0.0-67.0-0.0","CKN_125","125","","","","","","2315","<button class=""jspsych-btn""><img src=""stimuli/turquoise.png"" style=""width: 200px;height: 200px;""></button>","1","turquoise","pink","[""turquoise"",""pink"",""low nameability""]","right-left","[""pink"",""turquoise""]","2","low nameability","16","right","response","1"
"html-audio-button-response","87","159821","0.0-67.0-1.0","CKN_125","125","","","","","","null","stimuli/bleep.m4a","null","turquoise","pink","[""turquoise"",""pink"",""low nameability""]","right-left","[""pink"",""turquoise""]","2","low nameability","16","right","audio_feedback","1"
"html-button-response","88","160340","0.0-68.0","CKN_125","125","","","","","","null","<button class=""jspsych-btn""><img src=""stimuli/white_square.png"" style=""width: 200px;height: 200px;""></button>","null","turquoise","pink","[""turquoise"",""pink"",""low nameability""]","right-left","[""pink"",""turquoise""]","2","low nameability","16","right","iti",""
"html-button-response","89","161832","0.0-69.0","CKN_125","125","","","","","","1480","","0","yellow","purple","[""yellow"",""purple"",""high nameability""]","left-right","[""yellow"",""purple"",""high nameability""]","2","high nameability","17","left","trigger",""
"html-button-response","90","164061","0.0-70.0-0.0","CKN_125","125","","","","","","2222","<button class=""jspsych-btn""><img src=""stimuli/yellow.png"" style=""width: 200px;height: 200px;""></button>","0","yellow","purple","[""yellow"",""purple"",""high nameability""]","left-right","[""yellow"",""purple"",""high nameability""]","2","high nameability","17","left","response","1"
"html-audio-button-response","91","164271","0.0-70.0-1.0","CKN_125","125","","","","","","null","stimuli/bleep.m4a","null","yellow","purple","[""yellow"",""purple"",""high nameability""]","left-right","[""yellow"",""purple"",""high nameability""]","2","high nameability","17","left","audio_feedback","1"
"html-button-response","92","164800","0.0-71.0","CKN_125","125","","","","","","null","<button class=""jspsych-btn""><img src=""stimuli/white_square.png"" style=""width: 200px;height: 200px;""></button>","null","yellow","purple","[""yellow"",""purple"",""high nameability""]","left-right","[""yellow"",""purple"",""high nameability""]","2","high nameability","17","left","iti",""
"html-button-response","93","166613","0.0-72.0","CKN_125","125","","","","","","1801","","0","mustard","lightred","[""mustard"",""lightred"",""low nameability""]","left-right","[""mustard"",""lightred"",""low nameability""]","2","low nameability","18","left","trigger",""
"html-button-response","94","169503","0.0-73.0-0.0","CKN_125","125","","","","","","2881","<button class=""jspsych-btn""><img src=""stimuli/mustard.png"" style=""width: 200px;height: 200px;""></button>","0","mustard","lightred","[""mustard"",""lightred"",""low nameability""]","left-right","[""mustard"",""lightred"",""low nameability""]","2","low nameability","18","left","response","1"
"html-audio-button-response","95","169707","0.0-73.0-1.0","CKN_125","125","","","","","","null","stimuli/bleep.m4a","null","mustard","lightred","[""mustard"",""lightred"",""low nameability""]","left-right","[""mustard"",""lightred"",""low nameability""]","2","low nameability","18","left","audio_feedback","1"
"html-button-response","96","170222","0.0-74.0","CKN_125","125","","","","","","null","<button class=""jspsych-btn""><img src=""stimuli/white_square.png"" style=""width: 200px;height: 200px;""></button>","null","mustard","lightred","[""mustard"",""lightred"",""low nameability""]","left-right","[""mustard"",""lightred"",""low nameability""]","2","low nameability","18","left","iti",""
"html-button-response","97","171448","0.0-75.0","CKN_125","125","","","","","","1213","","0","brown","yellow","[""brown"",""yellow"",""high nameability""]","left-right","[""brown"",""yellow"",""high nameability""]","2","high nameability","19","left","trigger",""
"html-button-response","98","173960","0.0-76.0-0.0","CKN_125","125","","","","","","2505","<button class=""jspsych-btn""><img src=""stimuli/brown.png"" style=""width: 200px;height: 200px;""></button>","0","brown","yellow","[""brown"",""yellow"",""high nameability""]","left-right","[""brown"",""yellow"",""high nameability""]","2","high nameability","19","left","response","1"
"html-audio-button-response","99","174169","0.0-76.0-1.0","CKN_125","125","","","","","","null","stimuli/bleep.m4a","null","brown","yellow","[""brown"",""yellow"",""high nameability""]","left-right","[""brown"",""yellow"",""high nameability""]","2","high nameability","19","left","audio_feedback","1"
"html-button-response","100","174690","0.0-77.0","CKN_125","125","","","","","","null","<button class=""jspsych-btn""><img src=""stimuli/white_square.png"" style=""width: 200px;height: 200px;""></button>","null","brown","yellow","[""brown"",""yellow"",""high nameability""]","left-right","[""brown"",""yellow"",""high nameability""]","2","high nameability","19","left","iti",""
"html-button-response","101","176439","0.0-78.0","CKN_125","125","","","","","","1743","","0","purple","brown","[""purple"",""brown"",""high nameability""]","right-left","[""brown"",""purple""]","2","high nameability","20","right","trigger",""
"html-button-response","102","177531","0.0-79.0-0.0","CKN_125","125","","","","","","1085","<button class=""jspsych-btn""><img src=""stimuli/purple.png"" style=""width: 200px;height: 200px;""></button>","0","purple","brown","[""purple"",""brown"",""high nameability""]","right-left","[""brown"",""purple""]","2","high nameability","20","right","response","0"
"html-audio-button-response","103","178172","0.0-79.0-1.0","CKN_125","125","","","","","","null","stimuli/boing.m4a","null","purple","brown","[""purple"",""brown"",""high nameability""]","right-left","[""brown"",""purple""]","2","high nameability","20","right","audio_feedback","0"
"html-button-response","104","179844","0.0-79.1-0.1","CKN_125","125","","","","","","1651","<button class=""jspsych-btn""><img src=""stimuli/purple.png"" style=""width: 200px;height: 200px;""></button>","1","purple","brown","[""purple"",""brown"",""high nameability""]","right-left","[""brown"",""purple""]","2","high nameability","20","right","response","1"
"html-audio-button-response","105","180045","0.0-79.1-1.1","CKN_125","125","","","","","","null","stimuli/bleep.m4a","null","purple","brown","[""purple"",""brown"",""high nameability""]","right-left","[""brown"",""purple""]","2","high nameability","20","right","audio_feedback","1"
"html-button-response","106","180567","0.0-80.0","CKN_125","125","","","","","","null","<button class=""jspsych-btn""><img src=""stimuli/white_square.png"" style=""width: 200px;height: 200px;""></button>","null","purple","brown","[""purple"",""brown"",""high nameability""]","right-left","[""brown"",""purple""]","2","high nameability","20","right","iti",""
"pavlovia","107","180654","0.0-81.0","CKN_125","125","","","","","","","","","","","","","","","","","","",""
"pavlovia","108","180661","0.0-82.0","CKN_125","125","","","","","","","","","","","","","","","","","","",""
"html-audio-button-response","109","186001","0.0-83.0","CKN_125","125","","","","","","5440","stimuli/tada.m4a","0","","","","","","","","","","",""
"html-button-response","110","186517","0.0-84.0","CKN_125","125","","","","","","510","","0","","","","","","","","","","",""
"html-button-response","111","190550","0.0-85.0","CKN_125","125","","","","","","4025","","0","darkgreenblue","turquoise","[""darkgreenblue"",""turquoise"",""low nameability""]","left-right","[""darkgreenblue"",""turquoise"",""low nameability""]","3","low nameability","21","left","trigger",""
"html-button-response","112","191665","0.0-86.0-0.0","CKN_125","125","","","","","","1109","<button class=""jspsych-btn""><img src=""stimuli/darkgreenblue.png"" style=""width: 200px;height: 200px;""></button>","0","darkgreenblue","turquoise","[""darkgreenblue"",""turquoise"",""low nameability""]","left-right","[""darkgreenblue"",""turquoise"",""low nameability""]","3","low nameability","21","left","response","1"
"html-audio-button-response","113","191869","0.0-86.0-1.0","CKN_125","125","","","","","","null","stimuli/bleep.m4a","null","darkgreenblue","turquoise","[""darkgreenblue"",""turquoise"",""low nameability""]","left-right","[""darkgreenblue"",""turquoise"",""low nameability""]","3","low nameability","21","left","audio_feedback","1"
"html-button-response","114","192404","0.0-87.0","CKN_125","125","","","","","","null","<button class=""jspsych-btn""><img src=""stimuli/white_square.png"" style=""width: 200px;height: 200px;""></button>","null","darkgreenblue","turquoise","[""darkgreenblue"",""turquoise"",""low nameability""]","left-right","[""darkgreenblue"",""turquoise"",""low nameability""]","3","low nameability","21","left","iti",""
"html-button-response","115","193395","0.0-88.0","CKN_125","125","","","","","","981","","0","blue","red","[""blue"",""red"",""high nameability""]","left-right","[""blue"",""red"",""high nameability""]","3","high nameability","22","left","trigger",""
"html-button-response","116","195539","0.0-89.0-0.0","CKN_125","125","","","","","","2136","<button class=""jspsych-btn""><img src=""stimuli/blue.png"" style=""width: 200px;height: 200px;""></button>","0","blue","red","[""blue"",""red"",""high nameability""]","left-right","[""blue"",""red"",""high nameability""]","3","high nameability","22","left","response","1"
"html-audio-button-response","117","195765","0.0-89.0-1.0","CKN_125","125","","","","","","null","stimuli/bleep.m4a","null","blue","red","[""blue"",""red"",""high nameability""]","left-right","[""blue"",""red"",""high nameability""]","3","high nameability","22","left","audio_feedback","1"
"html-button-response","118","196278","0.0-90.0","CKN_125","125","","","","","","null","<button class=""jspsych-btn""><img src=""stimuli/white_square.png"" style=""width: 200px;height: 200px;""></button>","null","blue","red","[""blue"",""red"",""high nameability""]","left-right","[""blue"",""red"",""high nameability""]","3","high nameability","22","left","iti",""
"html-button-response","119","197774","0.0-91.0","CKN_125","125","","","","","","1480","","0","neonyellow","turquoise","[""neonyellow"",""turquoise"",""low nameability""]","right-left","[""turquoise"",""neonyellow""]","3","low nameability","23","right","trigger",""
"html-button-response","120","199700","0.0-92.0-0.0","CKN_125","125","","","","","","1919","<button class=""jspsych-btn""><img src=""stimuli/neonyellow.png"" style=""width: 200px;height: 200px;""></button>","1","neonyellow","turquoise","[""neonyellow"",""turquoise"",""low nameability""]","right-left","[""turquoise"",""neonyellow""]","3","low nameability","23","right","response","1"
"html-audio-button-response","121","199902","0.0-92.0-1.0","CKN_125","125","","","","","","null","stimuli/bleep.m4a","null","neonyellow","turquoise","[""neonyellow"",""turquoise"",""low nameability""]","right-left","[""turquoise"",""neonyellow""]","3","low nameability","23","right","audio_feedback","1"
"html-button-response","122","200419","0.0-93.0","CKN_125","125","","","","","","null","<button class=""jspsych-btn""><img src=""stimuli/white_square.png"" style=""width: 200px;height: 200px;""></button>","null","neonyellow","turquoise","[""neonyellow"",""turquoise"",""low nameability""]","right-left","[""turquoise"",""neonyellow""]","3","low nameability","23","right","iti",""
"html-button-response","123","202225","0.0-94.0","CKN_125","125","","","","","","1794","","0","turquoise","mustard","[""turquoise"",""mustard"",""low nameability""]","right-left","[""mustard"",""turquoise""]","3","low nameability","24","right","trigger",""
"html-button-response","124","203556","0.0-95.0-0.0","CKN_125","125","","","","","","1323","<button class=""jspsych-btn""><img src=""stimuli/turquoise.png"" style=""width: 200px;height: 200px;""></button>","1","turquoise","mustard","[""turquoise"",""mustard"",""low nameability""]","right-left","[""mustard"",""turquoise""]","3","low nameability","24","right","response","1"
"html-audio-button-response","125","203766","0.0-95.0-1.0","CKN_125","125","","","","","","null","stimuli/bleep.m4a","null","turquoise","mustard","[""turquoise"",""mustard"",""low nameability""]","right-left","[""mustard"",""turquoise""]","3","low nameability","24","right","audio_feedback","1"
"html-button-response","126","204298","0.0-96.0","CKN_125","125","","","","","","null","<button class=""jspsych-btn""><img src=""stimuli/white_square.png"" style=""width: 200px;height: 200px;""></button>","null","turquoise","mustard","[""turquoise"",""mustard"",""low nameability""]","right-left","[""mustard"",""turquoise""]","3","low nameability","24","right","iti",""
"html-button-response","127","206300","0.0-97.0","CKN_125","125","","","","","","1987","","0","darkgreenblue","mustard","[""darkgreenblue"",""mustard"",""low nameability""]","left-right","[""darkgreenblue"",""mustard"",""low nameability""]","3","low nameability","25","left","trigger",""
"html-button-response","128","207922","0.0-98.0-0.0","CKN_125","125","","","","","","1616","<button class=""jspsych-btn""><img src=""stimuli/darkgreenblue.png"" style=""width: 200px;height: 200px;""></button>","0","darkgreenblue","mustard","[""darkgreenblue"",""mustard"",""low nameability""]","left-right","[""darkgreenblue"",""mustard"",""low nameability""]","3","low nameability","25","left","response","1"
"html-audio-button-response","129","208126","0.0-98.0-1.0","CKN_125","125","","","","","","null","stimuli/bleep.m4a","null","darkgreenblue","mustard","[""darkgreenblue"",""mustard"",""low nameability""]","left-right","[""darkgreenblue"",""mustard"",""low nameability""]","3","low nameability","25","left","audio_feedback","1"
"html-button-response","130","208645","0.0-99.0","CKN_125","125","","","","","","null","<button class=""jspsych-btn""><img src=""stimuli/white_square.png"" style=""width: 200px;height: 200px;""></button>","null","darkgreenblue","mustard","[""darkgreenblue"",""mustard"",""low nameability""]","left-right","[""darkgreenblue"",""mustard"",""low nameability""]","3","low nameability","25","left","iti",""
"html-button-response","131","218284","0.0-100.0","CKN_125","125","","","","","","9627","","0","blue","purple","[""blue"",""purple"",""high nameability""]","left-right","[""blue"",""purple"",""high nameability""]","3","high nameability","26","left","trigger",""
"html-button-response","132","221081","0.0-101.0-0.0","CKN_125","125","","","","","","2789","<button class=""jspsych-btn""><img src=""stimuli/blue.png"" style=""width: 200px;height: 200px;""></button>","0","blue","purple","[""blue"",""purple"",""high nameability""]","left-right","[""blue"",""purple"",""high nameability""]","3","high nameability","26","left","response","1"
"html-audio-button-response","133","221286","0.0-101.0-1.0","CKN_125","125","","","","","","null","stimuli/bleep.m4a","null","blue","purple","[""blue"",""purple"",""high nameability""]","left-right","[""blue"",""purple"",""high nameability""]","3","high nameability","26","left","audio_feedback","1"
"html-button-response","134","221805","0.0-102.0","CKN_125","125","","","","","","null","<button class=""jspsych-btn""><img src=""stimuli/white_square.png"" style=""width: 200px;height: 200px;""></button>","null","blue","purple","[""blue"",""purple"",""high nameability""]","left-right","[""blue"",""purple"",""high nameability""]","3","high nameability","26","left","iti",""
"html-button-response","135","223071","0.0-103.0","CKN_125","125","","","","","","1255","","0","pink","mustard","[""pink"",""mustard"",""low nameability""]","left-right","[""pink"",""mustard"",""low nameability""]","3","low nameability","27","left","trigger",""
"html-button-response","136","224057","0.0-104.0-0.0","CKN_125","125","","","","","","981","<button class=""jspsych-btn""><img src=""stimuli/pink.png"" style=""width: 200px;height: 200px;""></button>","0","pink","mustard","[""pink"",""mustard"",""low nameability""]","left-right","[""pink"",""mustard"",""low nameability""]","3","low nameability","27","left","response","1"
"html-audio-button-response","137","224262","0.0-104.0-1.0","CKN_125","125","","","","","","null","stimuli/bleep.m4a","null","pink","mustard","[""pink"",""mustard"",""low nameability""]","left-right","[""pink"",""mustard"",""low nameability""]","3","low nameability","27","left","audio_feedback","1"
"html-button-response","138","224775","0.0-105.0","CKN_125","125","","","","","","null","<button class=""jspsych-btn""><img src=""stimuli/white_square.png"" style=""width: 200px;height: 200px;""></button>","null","pink","mustard","[""pink"",""mustard"",""low nameability""]","left-right","[""pink"",""mustard"",""low nameability""]","3","low nameability","27","left","iti",""
"html-button-response","139","226492","0.0-106.0","CKN_125","125","","","","","","1707","","0","blue","brown","[""blue"",""brown"",""high nameability""]","right-left","[""brown"",""blue""]","3","high nameability","28","right","trigger",""
"html-button-response","140","228384","0.0-107.0-0.0","CKN_125","125","","","","","","1884","<button class=""jspsych-btn""><img src=""stimuli/blue.png"" style=""width: 200px;height: 200px;""></button>","1","blue","brown","[""blue"",""brown"",""high nameability""]","right-left","[""brown"",""blue""]","3","high nameability","28","right","response","1"
"html-audio-button-response","141","228593","0.0-107.0-1.0","CKN_125","125","","","","","","null","stimuli/bleep.m4a","null","blue","brown","[""blue"",""brown"",""high nameability""]","right-left","[""brown"",""blue""]","3","high nameability","28","right","audio_feedback","1"
"html-button-response","142","229120","0.0-108.0","CKN_125","125","","","","","","null","<button class=""jspsych-btn""><img src=""stimuli/white_square.png"" style=""width: 200px;height: 200px;""></button>","null","blue","brown","[""blue"",""brown"",""high nameability""]","right-left","[""brown"",""blue""]","3","high nameability","28","right","iti",""
"html-button-response","143","230105","0.0-109.0","CKN_125","125","","","","","","973","","0","yellow","brown","[""yellow"",""brown"",""high nameability""]","right-left","[""brown"",""yellow""]","3","high nameability","29","right","trigger",""
"html-button-response","144","232052","0.0-110.0-0.0","CKN_125","125","","","","","","1943","<button class=""jspsych-btn""><img src=""stimuli/yellow.png"" style=""width: 200px;height: 200px;""></button>","1","yellow","brown","[""yellow"",""brown"",""high nameability""]","right-left","[""brown"",""yellow""]","3","high nameability","29","right","response","1"
"html-audio-button-response","145","232254","0.0-110.0-1.0","CKN_125","125","","","","","","null","stimuli/bleep.m4a","null","yellow","brown","[""yellow"",""brown"",""high nameability""]","right-left","[""brown"",""yellow""]","3","high nameability","29","right","audio_feedback","1"
"html-button-response","146","232769","0.0-111.0","CKN_125","125","","","","","","null","<button class=""jspsych-btn""><img src=""stimuli/white_square.png"" style=""width: 200px;height: 200px;""></button>","null","yellow","brown","[""yellow"",""brown"",""high nameability""]","right-left","[""brown"",""yellow""]","3","high nameability","29","right","iti",""
"html-button-response","147","233671","0.0-112.0","CKN_125","125","","","","","","889","","0","blue","yellow","[""blue"",""yellow"",""high nameability""]","right-left","[""yellow"",""blue""]","3","high nameability","30","right","trigger",""
"html-button-response","148","236501","0.0-113.0-0.0","CKN_125","125","","","","","","2824","<button class=""jspsych-btn""><img src=""stimuli/blue.png"" style=""width: 200px;height: 200px;""></button>","1","blue","yellow","[""blue"",""yellow"",""high nameability""]","right-left","[""yellow"",""blue""]","3","high nameability","30","right","response","1"
"html-audio-button-response","149","236716","0.0-113.0-1.0","CKN_125","125","","","","","","null","stimuli/bleep.m4a","null","blue","yellow","[""blue"",""yellow"",""high nameability""]","right-left","[""yellow"",""blue""]","3","high nameability","30","right","audio_feedback","1"
"html-button-response","150","237254","0.0-114.0","CKN_125","125","","","","","","null","<button class=""jspsych-btn""><img src=""stimuli/white_square.png"" style=""width: 200px;height: 200px;""></button>","null","blue","yellow","[""blue"",""yellow"",""high nameability""]","right-left","[""yellow"",""blue""]","3","high nameability","30","right","iti",""
"pavlovia","151","237318","0.0-115.0","CKN_125","125","","","","","","","","","","","","","","","","","","",""
"pavlovia","152","237330","0.0-116.0","CKN_125","125","","","","","","","","","","","","","","","","","","",""
"html-audio-button-response","153","243874","0.0-117.0","CKN_125","125","","","","","","6621","stimuli/tada.m4a","0","","","","","","","","","","",""
"html-button-response","154","244357","0.0-118.0","CKN_125","125","","","","","","479","","0","","","","","","","","","","",""
"html-button-response","155","246085","0.0-119.0","CKN_125","125","","","","","","1722","","0","lightred","darkgreenblue","[""lightred"",""darkgreenblue"",""low nameability""]","left-right","[""lightred"",""darkgreenblue"",""low nameability""]","4","low nameability","31","left","trigger",""
"html-button-response","156","247271","0.0-120.0-0.0","CKN_125","125","","","","","","1180","<button class=""jspsych-btn""><img src=""stimuli/lightred.png"" style=""width: 200px;height: 200px;""></button>","0","lightred","darkgreenblue","[""lightred"",""darkgreenblue"",""low nameability""]","left-right","[""lightred"",""darkgreenblue"",""low nameability""]","4","low nameability","31","left","response","1"
"html-audio-button-response","157","247482","0.0-120.0-1.0","CKN_125","125","","","","","","null","stimuli/bleep.m4a","null","lightred","darkgreenblue","[""lightred"",""darkgreenblue"",""low nameability""]","left-right","[""lightred"",""darkgreenblue"",""low nameability""]","4","low nameability","31","left","audio_feedback","1"
"html-button-response","158","248001","0.0-121.0","CKN_125","125","","","","","","null","<button class=""jspsych-btn""><img src=""stimuli/white_square.png"" style=""width: 200px;height: 200px;""></button>","null","lightred","darkgreenblue","[""lightred"",""darkgreenblue"",""low nameability""]","left-right","[""lightred"",""darkgreenblue"",""low nameability""]","4","low nameability","31","left","iti",""
"html-button-response","159","251655","0.0-122.0","CKN_125","125","","","","","","3638","","0","orange","brown","[""orange"",""brown"",""high nameability""]","left-right","[""orange"",""brown"",""high nameability""]","4","high nameability","32","left","trigger",""
"html-button-response","160","253496","0.0-123.0-0.0","CKN_125","125","","","","","","1832","<button class=""jspsych-btn""><img src=""stimuli/orange.png"" style=""width: 200px;height: 200px;""></button>","0","orange","brown","[""orange"",""brown"",""high nameability""]","left-right","[""orange"",""brown"",""high nameability""]","4","high nameability","32","left","response","1"
"html-audio-button-response","161","253707","0.0-123.0-1.0","CKN_125","125","","","","","","null","stimuli/bleep.m4a","null","orange","brown","[""orange"",""brown"",""high nameability""]","left-right","[""orange"",""brown"",""high nameability""]","4","high nameability","32","left","audio_feedback","1"
"html-button-response","162","254231","0.0-124.0","CKN_125","125","","","","","","null","<button class=""jspsych-btn""><img src=""stimuli/white_square.png"" style=""width: 200px;height: 200px;""></button>","null","orange","brown","[""orange"",""brown"",""high nameability""]","left-right","[""orange"",""brown"",""high nameability""]","4","high nameability","32","left","iti",""
"html-button-response","163","255501","0.0-125.0","CKN_125","125","","","","","","1254","","0","purple","yellow","[""purple"",""yellow"",""high nameability""]","right-left","[""yellow"",""purple""]","4","high nameability","33","right","trigger",""
"html-button-response","164","256366","0.0-126.0-0.0","CKN_125","125","","","","","","859","<button class=""jspsych-btn""><img src=""stimuli/purple.png"" style=""width: 200px;height: 200px;""></button>","0","purple","yellow","[""purple"",""yellow"",""high nameability""]","right-left","[""yellow"",""purple""]","4","high nameability","33","right","response","0"
"html-audio-button-response","165","257012","0.0-126.0-1.0","CKN_125","125","","","","","","null","stimuli/boing.m4a","null","purple","yellow","[""purple"",""yellow"",""high nameability""]","right-left","[""yellow"",""purple""]","4","high nameability","33","right","audio_feedback","0"
"html-button-response","166","258413","0.0-126.1-0.1","CKN_125","125","","","","","","1380","<button class=""jspsych-btn""><img src=""stimuli/purple.png"" style=""width: 200px;height: 200px;""></button>","1","purple","yellow","[""purple"",""yellow"",""high nameability""]","right-left","[""yellow"",""purple""]","4","high nameability","33","right","response","1"
"html-audio-button-response","167","258614","0.0-126.1-1.1","CKN_125","125","","","","","","null","stimuli/bleep.m4a","null","purple","yellow","[""purple"",""yellow"",""high nameability""]","right-left","[""yellow"",""purple""]","4","high nameability","33","right","audio_feedback","1"
"html-button-response","168","259132","0.0-127.0","CKN_125","125","","","","","","null","<button class=""jspsych-btn""><img src=""stimuli/white_square.png"" style=""width: 200px;height: 200px;""></button>","null","purple","yellow","[""purple"",""yellow"",""high nameability""]","right-left","[""yellow"",""purple""]","4","high nameability","33","right","iti",""
"html-button-response","169","261063","0.0-128.0","CKN_125","125","","","","","","1915","","0","purple","orange","[""purple"",""orange"",""high nameability""]","left-right","[""purple"",""orange"",""high nameability""]","4","high nameability","34","left","trigger",""
"html-button-response","170","262318","0.0-129.0-0.0","CKN_125","125","","","","","","1248","<button class=""jspsych-btn""><img src=""stimuli/purple.png"" style=""width: 200px;height: 200px;""></button>","0","purple","orange","[""purple"",""orange"",""high nameability""]","left-right","[""purple"",""orange"",""high nameability""]","4","high nameability","34","left","response","1"
"html-audio-button-response","171","262527","0.0-129.0-1.0","CKN_125","125","","","","","","null","stimuli/bleep.m4a","null","purple","orange","[""purple"",""orange"",""high nameability""]","left-right","[""purple"",""orange"",""high nameability""]","4","high nameability","34","left","audio_feedback","1"
"html-button-response","172","263036","0.0-130.0","CKN_125","125","","","","","","null","<button class=""jspsych-btn""><img src=""stimuli/white_square.png"" style=""width: 200px;height: 200px;""></button>","null","purple","orange","[""purple"",""orange"",""high nameability""]","left-right","[""purple"",""orange"",""high nameability""]","4","high nameability","34","left","iti",""
"html-button-response","173","263861","0.0-131.0","CKN_125","125","","","","","","810","","0","brown","orange","[""brown"",""orange"",""high nameability""]","left-right","[""brown"",""orange"",""high nameability""]","4","high nameability","35","left","trigger",""
"html-button-response","174","265725","0.0-132.0-0.0","CKN_125","125","","","","","","1857","<button class=""jspsych-btn""><img src=""stimuli/brown.png"" style=""width: 200px;height: 200px;""></button>","0","brown","orange","[""brown"",""orange"",""high nameability""]","left-right","[""brown"",""orange"",""high nameability""]","4","high nameability","35","left","response","1"
"html-audio-button-response","175","265933","0.0-132.0-1.0","CKN_125","125","","","","","","null","stimuli/bleep.m4a","null","brown","orange","[""brown"",""orange"",""high nameability""]","left-right","[""brown"",""orange"",""high nameability""]","4","high nameability","35","left","audio_feedback","1"
"html-button-response","176","266453","0.0-133.0","CKN_125","125","","","","","","null","<button class=""jspsych-btn""><img src=""stimuli/white_square.png"" style=""width: 200px;height: 200px;""></button>","null","brown","orange","[""brown"",""orange"",""high nameability""]","left-right","[""brown"",""orange"",""high nameability""]","4","high nameability","35","left","iti",""
"html-button-response","177","268458","0.0-134.0","CKN_125","125","","","","","","1991","","0","orange","blue","[""orange"",""blue"",""high nameability""]","left-right","[""orange"",""blue"",""high nameability""]","4","high nameability","36","left","trigger",""
"html-button-response","178","269389","0.0-135.0-0.0","CKN_125","125","","","","","","923","<button class=""jspsych-btn""><img src=""stimuli/orange.png"" style=""width: 200px;height: 200px;""></button>","0","orange","blue","[""orange"",""blue"",""high nameability""]","left-right","[""orange"",""blue"",""high nameability""]","4","high nameability","36","left","response","1"
"html-audio-button-response","179","269598","0.0-135.0-1.0","CKN_125","125","","","","","","null","stimuli/bleep.m4a","null","orange","blue","[""orange"",""blue"",""high nameability""]","left-right","[""orange"",""blue"",""high nameability""]","4","high nameability","36","left","audio_feedback","1"
"html-button-response","180","270116","0.0-136.0","CKN_125","125","","","","","","null","<button class=""jspsych-btn""><img src=""stimuli/white_square.png"" style=""width: 200px;height: 200px;""></button>","null","orange","blue","[""orange"",""blue"",""high nameability""]","left-right","[""orange"",""blue"",""high nameability""]","4","high nameability","36","left","iti",""
"html-button-response","181","270980","0.0-137.0","CKN_125","125","","","","","","849","","0","brown","purple","[""brown"",""purple"",""high nameability""]","right-left","[""purple"",""brown""]","4","high nameability","37","right","trigger",""
"html-button-response","182","272344","0.0-138.0-0.0","CKN_125","125","","","","","","1357","<button class=""jspsych-btn""><img src=""stimuli/brown.png"" style=""width: 200px;height: 200px;""></button>","1","brown","purple","[""brown"",""purple"",""high nameability""]","right-left","[""purple"",""brown""]","4","high nameability","37","right","response","1"
"html-audio-button-response","183","272554","0.0-138.0-1.0","CKN_125","125","","","","","","null","stimuli/bleep.m4a","null","brown","purple","[""brown"",""purple"",""high nameability""]","right-left","[""purple"",""brown""]","4","high nameability","37","right","audio_feedback","1"
"html-button-response","184","273083","0.0-139.0","CKN_125","125","","","","","","null","<button class=""jspsych-btn""><img src=""stimuli/white_square.png"" style=""width: 200px;height: 200px;""></button>","null","brown","purple","[""brown"",""purple"",""high nameability""]","right-left","[""purple"",""brown""]","4","high nameability","37","right","iti",""
"html-button-response","185","275585","0.0-140.0","CKN_125","125","","","","","","2492","","0","turquoise","lightred","[""turquoise"",""lightred"",""low nameability""]","right-left","[""lightred"",""turquoise""]","4","low nameability","38","right","trigger",""
"html-button-response","186","276791","0.0-141.0-0.0","CKN_125","125","","","","","","1200","<button class=""jspsych-btn""><img src=""stimuli/turquoise.png"" style=""width: 200px;height: 200px;""></button>","1","turquoise","lightred","[""turquoise"",""lightred"",""low nameability""]","right-left","[""lightred"",""turquoise""]","4","low nameability","38","right","response","1"
"html-audio-button-response","187","276998","0.0-141.0-1.0","CKN_125","125","","","","","","null","stimuli/bleep.m4a","null","turquoise","lightred","[""turquoise"",""lightred"",""low nameability""]","right-left","[""lightred"",""turquoise""]","4","low nameability","38","right","audio_feedback","1"
"html-button-response","188","277517","0.0-142.0","CKN_125","125","","","","","","null","<button class=""jspsych-btn""><img src=""stimuli/white_square.png"" style=""width: 200px;height: 200px;""></button>","null","turquoise","lightred","[""turquoise"",""lightred"",""low nameability""]","right-left","[""lightred"",""turquoise""]","4","low nameability","38","right","iti",""
"html-button-response","189","279343","0.0-143.0","CKN_125","125","","","","","","1809","","0","mustard","turquoise","[""mustard"",""turquoise"",""low nameability""]","left-right","[""mustard"",""turquoise"",""low nameability""]","4","low nameability","39","left","trigger",""
"html-button-response","190","283367","0.0-144.0-0.0","CKN_125","125","","","","","","4018","<button class=""jspsych-btn""><img src=""stimuli/mustard.png"" style=""width: 200px;height: 200px;""></button>","0","mustard","turquoise","[""mustard"",""turquoise"",""low nameability""]","left-right","[""mustard"",""turquoise"",""low nameability""]","4","low nameability","39","left","response","1"
"html-audio-button-response","191","283566","0.0-144.0-1.0","CKN_125","125","","","","","","null","stimuli/bleep.m4a","null","mustard","turquoise","[""mustard"",""turquoise"",""low nameability""]","left-right","[""mustard"",""turquoise"",""low nameability""]","4","low nameability","39","left","audio_feedback","1"
"html-button-response","192","284087","0.0-145.0","CKN_125","125","","","","","","null","<button class=""jspsych-btn""><img src=""stimuli/white_square.png"" style=""width: 200px;height: 200px;""></button>","null","mustard","turquoise","[""mustard"",""turquoise"",""low nameability""]","left-right","[""mustard"",""turquoise"",""low nameability""]","4","low nameability","39","left","iti",""
"html-button-response","193","286509","0.0-146.0","CKN_125","125","","","","","","2405","","0","mustard","pink","[""mustard"",""pink"",""low nameability""]","right-left","[""pink"",""mustard""]","4","low nameability","40","right","trigger",""
"html-button-response","194","287863","0.0-147.0-0.0","CKN_125","125","","","","","","1347","<button class=""jspsych-btn""><img src=""stimuli/mustard.png"" style=""width: 200px;height: 200px;""></button>","1","mustard","pink","[""mustard"",""pink"",""low nameability""]","right-left","[""pink"",""mustard""]","4","low nameability","40","right","response","1"
"html-audio-button-response","195","288074","0.0-147.0-1.0","CKN_125","125","","","","","","null","stimuli/bleep.m4a","null","mustard","pink","[""mustard"",""pink"",""low nameability""]","right-left","[""pink"",""mustard""]","4","low nameability","40","right","audio_feedback","1"
"html-button-response","196","288587","0.0-148.0","CKN_125","125","","","","","","null","<button class=""jspsych-btn""><img src=""stimuli/white_square.png"" style=""width: 200px;height: 200px;""></button>","null","mustard","pink","[""mustard"",""pink"",""low nameability""]","right-left","[""pink"",""mustard""]","4","low nameability","40","right","iti",""
"pavlovia","197","288653","0.0-149.0","CKN_125","125","","","","","","","","","","","","","","","","","","",""
"pavlovia","198","288666","0.0-150.0","CKN_125","125","","","","","","","","","","","","","","","","","","",""
"html-audio-button-response","199","295006","0.0-151.0","CKN_125","125","","","","","","6416","stimuli/tada.m4a","0","","","","","","","","","","",""
"html-button-response","200","295553","0.0-152.0","CKN_125","125","","","","","","542","","0","","","","","","","","","","",""
"html-button-response","201","297165","0.0-153.0","CKN_125","125","","","","","","1607","","0","darkgreenblue","pink","[""darkgreenblue"",""pink"",""low nameability""]","right-left","[""pink"",""darkgreenblue""]","5","low nameability","41","right","trigger",""
"html-button-response","202","300999","0.0-154.0-0.0","CKN_125","125","","","","","","3826","<button class=""jspsych-btn""><img src=""stimuli/darkgreenblue.png"" style=""width: 200px;height: 200px;""></button>","1","darkgreenblue","pink","[""darkgreenblue"",""pink"",""low nameability""]","right-left","[""pink"",""darkgreenblue""]","5","low nameability","41","right","response","1"
"html-audio-button-response","203","301201","0.0-154.0-1.0","CKN_125","125","","","","","","null","stimuli/bleep.m4a","null","darkgreenblue","pink","[""darkgreenblue"",""pink"",""low nameability""]","right-left","[""pink"",""darkgreenblue""]","5","low nameability","41","right","audio_feedback","1"
"html-button-response","204","301714","0.0-155.0","CKN_125","125","","","","","","null","<button class=""jspsych-btn""><img src=""stimuli/white_square.png"" style=""width: 200px;height: 200px;""></button>","null","darkgreenblue","pink","[""darkgreenblue"",""pink"",""low nameability""]","right-left","[""pink"",""darkgreenblue""]","5","low nameability","41","right","iti",""
"html-button-response","205","302703","0.0-156.0","CKN_125","125","","","","","","965","","0","lightred","neonyellow","[""lightred"",""neonyellow"",""low nameability""]","right-left","[""neonyellow"",""lightred""]","5","low nameability","42","right","trigger",""
"html-button-response","206","303877","0.0-157.0-0.0","CKN_125","125","","","","","","1167","<button class=""jspsych-btn""><img src=""stimuli/lightred.png"" style=""width: 200px;height: 200px;""></button>","1","lightred","neonyellow","[""lightred"",""neonyellow"",""low nameability""]","right-left","[""neonyellow"",""lightred""]","5","low nameability","42","right","response","1"
"html-audio-button-response","207","304077","0.0-157.0-1.0","CKN_125","125","","","","","","null","stimuli/bleep.m4a","null","lightred","neonyellow","[""lightred"",""neonyellow"",""low nameability""]","right-left","[""neonyellow"",""lightred""]","5","low nameability","42","right","audio_feedback","1"
"html-button-response","208","304590","0.0-158.0","CKN_125","125","","","","","","null","<button class=""jspsych-btn""><img src=""stimuli/white_square.png"" style=""width: 200px;height: 200px;""></button>","null","lightred","neonyellow","[""lightred"",""neonyellow"",""low nameability""]","right-left","[""neonyellow"",""lightred""]","5","low nameability","42","right","iti",""
"html-button-response","209","306964","0.0-159.0","CKN_125","125","","","","","","2361","","0","red","blue","[""red"",""blue"",""high nameability""]","left-right","[""red"",""blue"",""high nameability""]","5","high nameability","43","left","trigger",""
"html-button-response","210","308162","0.0-160.0-0.0","CKN_125","125","","","","","","1190","<button class=""jspsych-btn""><img src=""stimuli/red.png"" style=""width: 200px;height: 200px;""></button>","0","red","blue","[""red"",""blue"",""high nameability""]","left-right","[""red"",""blue"",""high nameability""]","5","high nameability","43","left","response","1"
"html-audio-button-response","211","308365","0.0-160.0-1.0","CKN_125","125","","","","","","null","stimuli/bleep.m4a","null","red","blue","[""red"",""blue"",""high nameability""]","left-right","[""red"",""blue"",""high nameability""]","5","high nameability","43","left","audio_feedback","1"
"html-button-response","212","308876","0.0-161.0","CKN_125","125","","","","","","null","<button class=""jspsych-btn""><img src=""stimuli/white_square.png"" style=""width: 200px;height: 200px;""></button>","null","red","blue","[""red"",""blue"",""high nameability""]","left-right","[""red"",""blue"",""high nameability""]","5","high nameability","43","left","iti",""
"html-button-response","213","311565","0.0-162.0","CKN_125","125","","","","","","2675","","0","neonyellow","pink","[""neonyellow"",""pink"",""low nameability""]","right-left","[""pink"",""neonyellow""]","5","low nameability","44","right","trigger",""
"html-button-response","214","312704","0.0-163.0-0.0","CKN_125","125","","","","","","1133","<button class=""jspsych-btn""><img src=""stimuli/neonyellow.png"" style=""width: 200px;height: 200px;""></button>","1","neonyellow","pink","[""neonyellow"",""pink"",""low nameability""]","right-left","[""pink"",""neonyellow""]","5","low nameability","44","right","response","1"
"html-audio-button-response","215","312903","0.0-163.0-1.0","CKN_125","125","","","","","","null","stimuli/bleep.m4a","null","neonyellow","pink","[""neonyellow"",""pink"",""low nameability""]","right-left","[""pink"",""neonyellow""]","5","low nameability","44","right","audio_feedback","1"
"html-button-response","216","313420","0.0-164.0","CKN_125","125","","","","","","null","<button class=""jspsych-btn""><img src=""stimuli/white_square.png"" style=""width: 200px;height: 200px;""></button>","null","neonyellow","pink","[""neonyellow"",""pink"",""low nameability""]","right-left","[""pink"",""neonyellow""]","5","low nameability","44","right","iti",""
"html-button-response","217","314295","0.0-165.0","CKN_125","125","","","","","","861","","0","lightred","mustard","[""lightred"",""mustard"",""low nameability""]","left-right","[""lightred"",""mustard"",""low nameability""]","5","low nameability","45","left","trigger",""
"html-button-response","218","315231","0.0-166.0-0.0","CKN_125","125","","","","","","931","<button class=""jspsych-btn""><img src=""stimuli/lightred.png"" style=""width: 200px;height: 200px;""></button>","1","lightred","mustard","[""lightred"",""mustard"",""low nameability""]","left-right","[""lightred"",""mustard"",""low nameability""]","5","low nameability","45","left","response","0"
"html-audio-button-response","219","315858","0.0-166.0-1.0","CKN_125","125","","","","","","null","stimuli/boing.m4a","null","lightred","mustard","[""lightred"",""mustard"",""low nameability""]","left-right","[""lightred"",""mustard"",""low nameability""]","5","low nameability","45","left","audio_feedback","0"
"html-button-response","220","316444","0.0-166.1-0.1","CKN_125","125","","","","","","563","<button class=""jspsych-btn""><img src=""stimuli/lightred.png"" style=""width: 200px;height: 200px;""></button>","0","lightred","mustard","[""lightred"",""mustard"",""low nameability""]","left-right","[""lightred"",""mustard"",""low nameability""]","5","low nameability","45","left","response","1"
"html-audio-button-response","221","316646","0.0-166.1-1.1","CKN_125","125","","","","","","null","stimuli/bleep.m4a","null","lightred","mustard","[""lightred"",""mustard"",""low nameability""]","left-right","[""lightred"",""mustard"",""low nameability""]","5","low nameability","45","left","audio_feedback","1"
"html-button-response","222","317166","0.0-167.0","CKN_125","125","","","","","","null","<button class=""jspsych-btn""><img src=""stimuli/white_square.png"" style=""width: 200px;height: 200px;""></button>","null","lightred","mustard","[""lightred"",""mustard"",""low nameability""]","left-right","[""lightred"",""mustard"",""low nameability""]","5","low nameability","45","left","iti",""
"html-button-response","223","317866","0.0-168.0","CKN_125","125","","","","","","683","","0","neonyellow","darkgreenblue","[""neonyellow"",""darkgreenblue"",""low nameability""]","left-right","[""neonyellow"",""darkgreenblue"",""low nameability""]","5","low nameability","46","left","trigger",""
"html-button-response","224","318845","0.0-169.0-0.0","CKN_125","125","","","","","","973","<button class=""jspsych-btn""><img src=""stimuli/neonyellow.png"" style=""width: 200px;height: 200px;""></button>","0","neonyellow","darkgreenblue","[""neonyellow"",""darkgreenblue"",""low nameability""]","left-right","[""neonyellow"",""darkgreenblue"",""low nameability""]","5","low nameability","46","left","response","1"
"html-audio-button-response","225","319054","0.0-169.0-1.0","CKN_125","125","","","","","","null","stimuli/bleep.m4a","null","neonyellow","darkgreenblue","[""neonyellow"",""darkgreenblue"",""low nameability""]","left-right","[""neonyellow"",""darkgreenblue"",""low nameability""]","5","low nameability","46","left","audio_feedback","1"
"html-button-response","226","319574","0.0-170.0","CKN_125","125","","","","","","null","<button class=""jspsych-btn""><img src=""stimuli/white_square.png"" style=""width: 200px;height: 200px;""></button>","null","neonyellow","darkgreenblue","[""neonyellow"",""darkgreenblue"",""low nameability""]","left-right","[""neonyellow"",""darkgreenblue"",""low nameability""]","5","low nameability","46","left","iti",""
"html-button-response","227","320485","0.0-171.0","CKN_125","125","","","","","","892","","0","darkgreenblue","neonyellow","[""darkgreenblue"",""neonyellow"",""low nameability""]","left-right","[""darkgreenblue"",""neonyellow"",""low nameability""]","5","low nameability","47","left","trigger",""
"html-button-response","228","321587","0.0-172.0-0.0","CKN_125","125","","","","","","1097","<button class=""jspsych-btn""><img src=""stimuli/darkgreenblue.png"" style=""width: 200px;height: 200px;""></button>","1","darkgreenblue","neonyellow","[""darkgreenblue"",""neonyellow"",""low nameability""]","left-right","[""darkgreenblue"",""neonyellow"",""low nameability""]","5","low nameability","47","left","response","0"
"html-audio-button-response","229","322225","0.0-172.0-1.0","CKN_125","125","","","","","","null","stimuli/boing.m4a","null","darkgreenblue","neonyellow","[""darkgreenblue"",""neonyellow"",""low nameability""]","left-right","[""darkgreenblue"",""neonyellow"",""low nameability""]","5","low nameability","47","left","audio_feedback","0"
"html-button-response","230","322996","0.0-172.1-0.1","CKN_125","125","","","","","","744","<button class=""jspsych-btn""><img src=""stimuli/darkgreenblue.png"" style=""width: 200px;height: 200px;""></button>","0","darkgreenblue","neonyellow","[""darkgreenblue"",""neonyellow"",""low nameability""]","left-right","[""darkgreenblue"",""neonyellow"",""low nameability""]","5","low nameability","47","left","response","1"
"html-audio-button-response","231","323198","0.0-172.1-1.1","CKN_125","125","","","","","","null","stimuli/bleep.m4a","null","darkgreenblue","neonyellow","[""darkgreenblue"",""neonyellow"",""low nameability""]","left-right","[""darkgreenblue"",""neonyellow"",""low nameability""]","5","low nameability","47","left","audio_feedback","1"
"html-button-response","232","323722","0.0-173.0","CKN_125","125","","","","","","null","<button class=""jspsych-btn""><img src=""stimuli/white_square.png"" style=""width: 200px;height: 200px;""></button>","null","darkgreenblue","neonyellow","[""darkgreenblue"",""neonyellow"",""low nameability""]","left-right","[""darkgreenblue"",""neonyellow"",""low nameability""]","5","low nameability","47","left","iti",""
"html-button-response","233","324472","0.0-174.0","CKN_125","125","","","","","","734","","0","orange","yellow","[""orange"",""yellow"",""high nameability""]","left-right","[""orange"",""yellow"",""high nameability""]","5","high nameability","48","left","trigger",""
"html-button-response","234","325446","0.0-175.0-0.0","CKN_125","125","","","","","","968","<button class=""jspsych-btn""><img src=""stimuli/orange.png"" style=""width: 200px;height: 200px;""></button>","0","orange","yellow","[""orange"",""yellow"",""high nameability""]","left-right","[""orange"",""yellow"",""high nameability""]","5","high nameability","48","left","response","1"
"html-audio-button-response","235","325646","0.0-175.0-1.0","CKN_125","125","","","","","","null","stimuli/bleep.m4a","null","orange","yellow","[""orange"",""yellow"",""high nameability""]","left-right","[""orange"",""yellow"",""high nameability""]","5","high nameability","48","left","audio_feedback","1"
"html-button-response","236","326170","0.0-176.0","CKN_125","125","","","","","","null","<button class=""jspsych-btn""><img src=""stimuli/white_square.png"" style=""width: 200px;height: 200px;""></button>","null","orange","yellow","[""orange"",""yellow"",""high nameability""]","left-right","[""orange"",""yellow"",""high nameability""]","5","high nameability","48","left","iti",""
"html-button-response","237","327215","0.0-177.0","CKN_125","125","","","","","","1032","","0","blue","orange","[""blue"",""orange"",""high nameability""]","right-left","[""orange"",""blue""]","5","high nameability","49","right","trigger",""
"html-button-response","238","328504","0.0-178.0-0.0","CKN_125","125","","","","","","1282","<button class=""jspsych-btn""><img src=""stimuli/blue.png"" style=""width: 200px;height: 200px;""></button>","1","blue","orange","[""blue"",""orange"",""high nameability""]","right-left","[""orange"",""blue""]","5","high nameability","49","right","response","1"
"html-audio-button-response","239","328712","0.0-178.0-1.0","CKN_125","125","","","","","","null","stimuli/bleep.m4a","null","blue","orange","[""blue"",""orange"",""high nameability""]","right-left","[""orange"",""blue""]","5","high nameability","49","right","audio_feedback","1"
"html-button-response","240","329242","0.0-179.0","CKN_125","125","","","","","","null","<button class=""jspsych-btn""><img src=""stimuli/white_square.png"" style=""width: 200px;height: 200px;""></button>","null","blue","orange","[""blue"",""orange"",""high nameability""]","right-left","[""orange"",""blue""]","5","high nameability","49","right","iti",""
"html-button-response","241","330329","0.0-180.0","CKN_125","125","","","","","","1033","","0","red","purple","[""red"",""purple"",""high nameability""]","right-left","[""purple"",""red""]","5","high nameability","50","right","trigger",""
"html-button-response","242","331612","0.0-181.0-0.0","CKN_125","125","","","","","","1273","<button class=""jspsych-btn""><img src=""stimuli/red.png"" style=""width: 200px;height: 200px;""></button>","1","red","purple","[""red"",""purple"",""high nameability""]","right-left","[""purple"",""red""]","5","high nameability","50","right","response","1"
"html-audio-button-response","243","331814","0.0-181.0-1.0","CKN_125","125","","","","","","null","stimuli/bleep.m4a","null","red","purple","[""red"",""purple"",""high nameability""]","right-left","[""purple"",""red""]","5","high nameability","50","right","audio_feedback","1"
"html-button-response","244","332331","0.0-182.0","CKN_125","125","","","","","","null","<button class=""jspsych-btn""><img src=""stimuli/white_square.png"" style=""width: 200px;height: 200px;""></button>","null","red","purple","[""red"",""purple"",""high nameability""]","right-left","[""purple"",""red""]","5","high nameability","50","right","iti",""
"pavlovia","245","332400","0.0-183.0","CKN_125","125","","","","","","","","","","","","","","","","","","",""
"pavlovia","246","332416","0.0-184.0","CKN_125","125","","","","","","","","","","","","","","","","","","",""
"html-audio-button-response","247","335115","0.0-185.0","CKN_125","125","","","","","","2784","stimuli/tada.m4a","0","","","","","","","","","","",""
"html-button-response","248","335567","0.0-186.0","CKN_125","125","","","","","","446","","0","","","","","","","","","","",""
"html-button-response","249","336685","0.0-187.0","CKN_125","125","","","","","","1113","","0","purple","red","[""purple"",""red"",""high nameability""]","right-left","[""red"",""purple""]","6","high nameability","51","right","trigger",""
"html-button-response","250","337962","0.0-188.0-0.0","CKN_125","125","","","","","","1272","<button class=""jspsych-btn""><img src=""stimuli/purple.png"" style=""width: 200px;height: 200px;""></button>","1","purple","red","[""purple"",""red"",""high nameability""]","right-left","[""red"",""purple""]","6","high nameability","51","right","response","1"
"html-audio-button-response","251","338165","0.0-188.0-1.0","CKN_125","125","","","","","","null","stimuli/bleep.m4a","null","purple","red","[""purple"",""red"",""high nameability""]","right-left","[""red"",""purple""]","6","high nameability","51","right","audio_feedback","1"
"html-button-response","252","338686","0.0-189.0","CKN_125","125","","","","","","null","<button class=""jspsych-btn""><img src=""stimuli/white_square.png"" style=""width: 200px;height: 200px;""></button>","null","purple","red","[""purple"",""red"",""high nameability""]","right-left","[""red"",""purple""]","6","high nameability","51","right","iti",""
"html-button-response","253","342675","0.0-190.0","CKN_125","125","","","","","","3978","","0","turquoise","darkgreenblue","[""turquoise"",""darkgreenblue"",""low nameability""]","left-right","[""turquoise"",""darkgreenblue"",""low nameability""]","6","low nameability","52","left","trigger",""
"html-button-response","254","344037","0.0-191.0-0.0","CKN_125","125","","","","","","1356","<button class=""jspsych-btn""><img src=""stimuli/turquoise.png"" style=""width: 200px;height: 200px;""></button>","0","turquoise","darkgreenblue","[""turquoise"",""darkgreenblue"",""low nameability""]","left-right","[""turquoise"",""darkgreenblue"",""low nameability""]","6","low nameability","52","left","response","1"
"html-audio-button-response","255","344255","0.0-191.0-1.0","CKN_125","125","","","","","","null","stimuli/bleep.m4a","null","turquoise","darkgreenblue","[""turquoise"",""darkgreenblue"",""low nameability""]","left-right","[""turquoise"",""darkgreenblue"",""low nameability""]","6","low nameability","52","left","audio_feedback","1"
"html-button-response","256","344779","0.0-192.0","CKN_125","125","","","","","","null","<button class=""jspsych-btn""><img src=""stimuli/white_square.png"" style=""width: 200px;height: 200px;""></button>","null","turquoise","darkgreenblue","[""turquoise"",""darkgreenblue"",""low nameability""]","left-right","[""turquoise"",""darkgreenblue"",""low nameability""]","6","low nameability","52","left","iti",""
"html-button-response","257","345993","0.0-193.0","CKN_125","125","","","","","","1197","","0","yellow","orange","[""yellow"",""orange"",""high nameability""]","right-left","[""orange"",""yellow""]","6","high nameability","53","right","trigger",""
"html-button-response","258","346798","0.0-194.0-0.0","CKN_125","125","","","","","","801","<button class=""jspsych-btn""><img src=""stimuli/yellow.png"" style=""width: 200px;height: 200px;""></button>","0","yellow","orange","[""yellow"",""orange"",""high nameability""]","right-left","[""orange"",""yellow""]","6","high nameability","53","right","response","0"
"html-audio-button-response","259","347443","0.0-194.0-1.0","CKN_125","125","","","","","","null","stimuli/boing.m4a","null","yellow","orange","[""yellow"",""orange"",""high nameability""]","right-left","[""orange"",""yellow""]","6","high nameability","53","right","audio_feedback","0"
"html-button-response","260","348276","0.0-194.1-0.1","CKN_125","125","","","","","","814","<button class=""jspsych-btn""><img src=""stimuli/yellow.png"" style=""width: 200px;height: 200px;""></button>","1","yellow","orange","[""yellow"",""orange"",""high nameability""]","right-left","[""orange"",""yellow""]","6","high nameability","53","right","response","1"
"html-audio-button-response","261","348481","0.0-194.1-1.1","CKN_125","125","","","","","","null","stimuli/bleep.m4a","null","yellow","orange","[""yellow"",""orange"",""high nameability""]","right-left","[""orange"",""yellow""]","6","high nameability","53","right","audio_feedback","1"
"html-button-response","262","349001","0.0-195.0","CKN_125","125","","","","","","null","<button class=""jspsych-btn""><img src=""stimuli/white_square.png"" style=""width: 200px;height: 200px;""></button>","null","yellow","orange","[""yellow"",""orange"",""high nameability""]","right-left","[""orange"",""yellow""]","6","high nameability","53","right","iti",""
"html-button-response","263","350004","0.0-196.0","CKN_125","125","","","","","","993","","0","turquoise","neonyellow","[""turquoise"",""neonyellow"",""low nameability""]","left-right","[""turquoise"",""neonyellow"",""low nameability""]","6","low nameability","54","left","trigger",""
"html-button-response","264","351153","0.0-197.0-0.0","CKN_125","125","","","","","","1141","<button class=""jspsych-btn""><img src=""stimuli/turquoise.png"" style=""width: 200px;height: 200px;""></button>","0","turquoise","neonyellow","[""turquoise"",""neonyellow"",""low nameability""]","left-right","[""turquoise"",""neonyellow"",""low nameability""]","6","low nameability","54","left","response","1"
"html-audio-button-response","265","351358","0.0-197.0-1.0","CKN_125","125","","","","","","null","stimuli/bleep.m4a","null","turquoise","neonyellow","[""turquoise"",""neonyellow"",""low nameability""]","left-right","[""turquoise"",""neonyellow"",""low nameability""]","6","low nameability","54","left","audio_feedback","1"
"html-button-response","266","351903","0.0-198.0","CKN_125","125","","","","","","null","<button class=""jspsych-btn""><img src=""stimuli/white_square.png"" style=""width: 200px;height: 200px;""></button>","null","turquoise","neonyellow","[""turquoise"",""neonyellow"",""low nameability""]","left-right","[""turquoise"",""neonyellow"",""low nameability""]","6","low nameability","54","left","iti",""
"html-button-response","267","353719","0.0-199.0","CKN_125","125","","","","","","1799","","0","yellow","red","[""yellow"",""red"",""high nameability""]","right-left","[""red"",""yellow""]","6","high nameability","55","right","trigger",""
"html-button-response","268","354817","0.0-200.0-0.0","CKN_125","125","","","","","","1092","<button class=""jspsych-btn""><img src=""stimuli/yellow.png"" style=""width: 200px;height: 200px;""></button>","1","yellow","red","[""yellow"",""red"",""high nameability""]","right-left","[""red"",""yellow""]","6","high nameability","55","right","response","1"
"html-audio-button-response","269","355022","0.0-200.0-1.0","CKN_125","125","","","","","","null","stimuli/bleep.m4a","null","yellow","red","[""yellow"",""red"",""high nameability""]","right-left","[""red"",""yellow""]","6","high nameability","55","right","audio_feedback","1"
"html-button-response","270","355539","0.0-201.0","CKN_125","125","","","","","","null","<button class=""jspsych-btn""><img src=""stimuli/white_square.png"" style=""width: 200px;height: 200px;""></button>","null","yellow","red","[""yellow"",""red"",""high nameability""]","right-left","[""red"",""yellow""]","6","high nameability","55","right","iti",""
"html-button-response","271","356227","0.0-202.0","CKN_125","125","","","","","","675","","0","brown","red","[""brown"",""red"",""high nameability""]","left-right","[""brown"",""red"",""high nameability""]","6","high nameability","56","left","trigger",""
"html-button-response","272","357327","0.0-203.0-0.0","CKN_125","125","","","","","","1097","<button class=""jspsych-btn""><img src=""stimuli/brown.png"" style=""width: 200px;height: 200px;""></button>","1","brown","red","[""brown"",""red"",""high nameability""]","left-right","[""brown"",""red"",""high nameability""]","6","high nameability","56","left","response","0"
"html-audio-button-response","273","357955","0.0-203.0-1.0","CKN_125","125","","","","","","null","stimuli/boing.m4a","null","brown","red","[""brown"",""red"",""high nameability""]","left-right","[""brown"",""red"",""high nameability""]","6","high nameability","56","left","audio_feedback","0"
"html-button-response","274","358872","0.0-203.1-0.1","CKN_125","125","","","","","","898","<button class=""jspsych-btn""><img src=""stimuli/brown.png"" style=""width: 200px;height: 200px;""></button>","0","brown","red","[""brown"",""red"",""high nameability""]","left-right","[""brown"",""red"",""high nameability""]","6","high nameability","56","left","response","1"
"html-audio-button-response","275","359077","0.0-203.1-1.1","CKN_125","125","","","","","","null","stimuli/bleep.m4a","null","brown","red","[""brown"",""red"",""high nameability""]","left-right","[""brown"",""red"",""high nameability""]","6","high nameability","56","left","audio_feedback","1"
"html-button-response","276","359596","0.0-204.0","CKN_125","125","","","","","","null","<button class=""jspsych-btn""><img src=""stimuli/white_square.png"" style=""width: 200px;height: 200px;""></button>","null","brown","red","[""brown"",""red"",""high nameability""]","left-right","[""brown"",""red"",""high nameability""]","6","high nameability","56","left","iti",""
"html-button-response","277","362360","0.0-205.0","CKN_125","125","","","","","","2749","","0","pink","lightred","[""pink"",""lightred"",""low nameability""]","right-left","[""lightred"",""pink""]","6","low nameability","57","right","trigger",""
"html-button-response","278","363723","0.0-206.0-0.0","CKN_125","125","","","","","","1355","<button class=""jspsych-btn""><img src=""stimuli/pink.png"" style=""width: 200px;height: 200px;""></button>","1","pink","lightred","[""pink"",""lightred"",""low nameability""]","right-left","[""lightred"",""pink""]","6","low nameability","57","right","response","1"
"html-audio-button-response","279","363925","0.0-206.0-1.0","CKN_125","125","","","","","","null","stimuli/bleep.m4a","null","pink","lightred","[""pink"",""lightred"",""low nameability""]","right-left","[""lightred"",""pink""]","6","low nameability","57","right","audio_feedback","1"
"html-button-response","280","364444","0.0-207.0","CKN_125","125","","","","","","null","<button class=""jspsych-btn""><img src=""stimuli/white_square.png"" style=""width: 200px;height: 200px;""></button>","null","pink","lightred","[""pink"",""lightred"",""low nameability""]","right-left","[""lightred"",""pink""]","6","low nameability","57","right","iti",""
"html-button-response","281","365108","0.0-208.0","CKN_125","125","","","","","","646","","0","brown","blue","[""brown"",""blue"",""high nameability""]","left-right","[""brown"",""blue"",""high nameability""]","6","high nameability","58","left","trigger",""
"html-button-response","282","366331","0.0-209.0-0.0","CKN_125","125","","","","","","1217","<button class=""jspsych-btn""><img src=""stimuli/brown.png"" style=""width: 200px;height: 200px;""></button>","0","brown","blue","[""brown"",""blue"",""high nameability""]","left-right","[""brown"",""blue"",""high nameability""]","6","high nameability","58","left","response","1"
"html-audio-button-response","283","366534","0.0-209.0-1.0","CKN_125","125","","","","","","null","stimuli/bleep.m4a","null","brown","blue","[""brown"",""blue"",""high nameability""]","left-right","[""brown"",""blue"",""high nameability""]","6","high nameability","58","left","audio_feedback","1"
"html-button-response","284","367049","0.0-210.0","CKN_125","125","","","","","","null","<button class=""jspsych-btn""><img src=""stimuli/white_square.png"" style=""width: 200px;height: 200px;""></button>","null","brown","blue","[""brown"",""blue"",""high nameability""]","left-right","[""brown"",""blue"",""high nameability""]","6","high nameability","58","left","iti",""
"html-button-response","285","368725","0.0-211.0","CKN_125","125","","","","","","1667","","0","lightred","turquoise","[""lightred"",""turquoise"",""low nameability""]","right-left","[""turquoise"",""lightred""]","6","low nameability","59","right","trigger",""
"html-button-response","286","372517","0.0-212.0-0.0","CKN_125","125","","","","","","3785","<button class=""jspsych-btn""><img src=""stimuli/lightred.png"" style=""width: 200px;height: 200px;""></button>","1","lightred","turquoise","[""lightred"",""turquoise"",""low nameability""]","right-left","[""turquoise"",""lightred""]","6","low nameability","59","right","response","1"
"html-audio-button-response","287","372717","0.0-212.0-1.0","CKN_125","125","","","","","","null","stimuli/bleep.m4a","null","lightred","turquoise","[""lightred"",""turquoise"",""low nameability""]","right-left","[""turquoise"",""lightred""]","6","low nameability","59","right","audio_feedback","1"
"html-button-response","288","373229","0.0-213.0","CKN_125","125","","","","","","null","<button class=""jspsych-btn""><img src=""stimuli/white_square.png"" style=""width: 200px;height: 200px;""></button>","null","lightred","turquoise","[""lightred"",""turquoise"",""low nameability""]","right-left","[""turquoise"",""lightred""]","6","low nameability","59","right","iti",""
"html-button-response","289","374485","0.0-214.0","CKN_125","125","","","","","","1240","","0","red","brown","[""red"",""brown"",""high nameability""]","left-right","[""red"",""brown"",""high nameability""]","6","high nameability","60","left","trigger",""
"html-button-response","290","375873","0.0-215.0-0.0","CKN_125","125","","","","","","1381","<button class=""jspsych-btn""><img src=""stimuli/red.png"" style=""width: 200px;height: 200px;""></button>","0","red","brown","[""red"",""brown"",""high nameability""]","left-right","[""red"",""brown"",""high nameability""]","6","high nameability","60","left","response","1"
"html-audio-button-response","291","376084","0.0-215.0-1.0","CKN_125","125","","","","","","null","stimuli/bleep.m4a","null","red","brown","[""red"",""brown"",""high nameability""]","left-right","[""red"",""brown"",""high nameability""]","6","high nameability","60","left","audio_feedback","1"
"html-button-response","292","376596","0.0-216.0","CKN_125","125","","","","","","null","<button class=""jspsych-btn""><img src=""stimuli/white_square.png"" style=""width: 200px;height: 200px;""></button>","null","red","brown","[""red"",""brown"",""high nameability""]","left-right","[""red"",""brown"",""high nameability""]","6","high nameability","60","left","iti",""
