"trial_type","trial_index","time_elapsed","internal_node_id","subject_id","seed","success","timeout","failed_images","failed_audio","failed_video","rt","stimulus","response","target","foil","choices","combination_order","choices_in_order","round","condition","trial_counter","target_location","trial_kind","correct"
"pavlovia","0","22","0.0-0.0","CKN_144","144","","","","","","","","","","","","","","","","","","",""
"preload","1","1255","0.0-1.0","CKN_144","144","true","false","[]","[]","[]","","","","","","","","","","","","","",""
"fullscreen","2","3854","0.0-2.0","CKN_144","144","true","","","","","","","","","","","","","","","","","",""
"html-button-response","3","241867","0.0-3.0","CKN_144","144","","","","","","237987","","0","","","","","","","","","","",""
"html-button-response","4","244995","0.0-4.0","CKN_144","144","","","","","","3114","","0","star","square","[""square"",""star""]","left-right","[""square"",""star""]","1","practice","1","right","trigger",""
"html-button-response","5","252067","0.0-5.0-0.0","CKN_144","144","","","","","","7052","<button class=""jspsych-btn""><img src=""stimuli/star.png"" style=""width: 200px;height: 200px;""></button>","0","star","square","[""square"",""star""]","left-right","[""square"",""star""]","1","practice","1","right","response","0"
"html-audio-button-response","6","252711","0.0-5.0-1.0","CKN_144","144","","","","","","null","stimuli/boing.m4a","null","star","square","[""square"",""star""]","left-right","[""square"",""star""]","1","practice","1","right","audio_feedback","0"
"html-button-response","7","258630","0.0-5.1-0.1","CKN_144","144","","","","","","5866","<button class=""jspsych-btn""><img src=""stimuli/star.png"" style=""width: 200px;height: 200px;""></button>","1","star","square","[""square"",""star""]","left-right","[""square"",""star""]","1","practice","1","right","response","1"
"html-audio-button-response","8","258854","0.0-5.1-1.1","CKN_144","144","","","","","","null","stimuli/bleep.m4a","null","star","square","[""square"",""star""]","left-right","[""square"",""star""]","1","practice","1","right","audio_feedback","1"
"html-button-response","9","259384","0.0-6.0","CKN_144","144","","","","","","null","<button class=""jspsych-btn""><img src=""stimuli/white_square.png"" style=""width: 200px;height: 200px;""></button>","null","star","square","[""square"",""star""]","left-right","[""square"",""star""]","1","practice","1","right","iti",""
"html-button-response","10","263873","0.0-7.0","CKN_144","144","","","","","","4471","","0","triangle","pentagram","[""triangle"",""pentagram""]","left-right","[""triangle"",""pentagram""]","1","practice","1","left","trigger",""
"html-button-response","11","267606","0.0-8.0-0.0","CKN_144","144","","","","","","3720","<button class=""jspsych-btn""><img src=""stimuli/triangle.png"" style=""width: 200px;height: 200px;""></button>","0","triangle","pentagram","[""triangle"",""pentagram""]","left-right","[""triangle"",""pentagram""]","1","practice","1","left","response","1"
"html-audio-button-response","12","267825","0.0-8.0-1.0","CKN_144","144","","","","","","null","stimuli/bleep.m4a","null","triangle","pentagram","[""triangle"",""pentagram""]","left-right","[""triangle"",""pentagram""]","1","practice","1","left","audio_feedback","1"
"html-button-response","13","268360","0.0-9.0","CKN_144","144","","","","","","null","<button class=""jspsych-btn""><img src=""stimuli/white_square.png"" style=""width: 200px;height: 200px;""></button>","null","triangle","pentagram","[""triangle"",""pentagram""]","left-right","[""triangle"",""pentagram""]","1","practice","1","left","iti",""
"html-button-response","14","270106","0.0-10.0","CKN_144","144","","","","","","1724","","0","diamond","rectangle","[""rectangle"",""diamond""]","left-right","[""rectangle"",""diamond""]","1","practice","1","right","trigger",""
"html-button-response","15","272609","0.0-11.0-0.0","CKN_144","144","","","","","","2484","<button class=""jspsych-btn""><img src=""stimuli/diamond.png"" style=""width: 200px;height: 200px;""></button>","1","diamond","rectangle","[""rectangle"",""diamond""]","left-right","[""rectangle"",""diamond""]","1","practice","1","right","response","1"
"html-audio-button-response","16","272819","0.0-11.0-1.0","CKN_144","144","","","","","","null","stimuli/bleep.m4a","null","diamond","rectangle","[""rectangle"",""diamond""]","left-right","[""rectangle"",""diamond""]","1","practice","1","right","audio_feedback","1"
"html-button-response","17","273342","0.0-12.0","CKN_144","144","","","","","","null","<button class=""jspsych-btn""><img src=""stimuli/white_square.png"" style=""width: 200px;height: 200px;""></button>","null","diamond","rectangle","[""rectangle"",""diamond""]","left-right","[""rectangle"",""diamond""]","1","practice","1","right","iti",""
"html-button-response","18","276414","0.0-13.0","CKN_144","144","","","","","","3051","","0","pentagram","star","[""pentagram"",""star""]","left-right","[""pentagram"",""star""]","1","practice","1","left","trigger",""
"html-button-response","19","279545","0.0-14.0-0.0","CKN_144","144","","","","","","3122","<button class=""jspsych-btn""><img src=""stimuli/pentagram.png"" style=""width: 200px;height: 200px;""></button>","0","pentagram","star","[""pentagram"",""star""]","left-right","[""pentagram"",""star""]","1","practice","1","left","response","1"
"html-audio-button-response","20","279759","0.0-14.0-1.0","CKN_144","144","","","","","","null","stimuli/bleep.m4a","null","pentagram","star","[""pentagram"",""star""]","left-right","[""pentagram"",""star""]","1","practice","1","left","audio_feedback","1"
"html-button-response","21","280283","0.0-15.0","CKN_144","144","","","","","","null","<button class=""jspsych-btn""><img src=""stimuli/white_square.png"" style=""width: 200px;height: 200px;""></button>","null","pentagram","star","[""pentagram"",""star""]","left-right","[""pentagram"",""star""]","1","practice","1","left","iti",""
"html-button-response","22","283146","0.0-16.0","CKN_144","144","","","","","","2845","","0","","","","","","","","","","",""
"html-button-response","23","284681","0.0-17.0","CKN_144","144","","","","","","1526","","0","purple","yellow","[""purple"",""yellow"",""high nameability""]","left-right","[""purple"",""yellow"",""high nameability""]","1","high nameability","1","left","trigger",""
"html-button-response","24","289747","0.0-18.0-0.0","CKN_144","144","","","","","","5056","<button class=""jspsych-btn""><img src=""stimuli/purple.png"" style=""width: 200px;height: 200px;""></button>","0","purple","yellow","[""purple"",""yellow"",""high nameability""]","left-right","[""purple"",""yellow"",""high nameability""]","1","high nameability","1","left","response","1"
"html-audio-button-response","25","289954","0.0-18.0-1.0","CKN_144","144","","","","","","null","stimuli/bleep.m4a","null","purple","yellow","[""purple"",""yellow"",""high nameability""]","left-right","[""purple"",""yellow"",""high nameability""]","1","high nameability","1","left","audio_feedback","1"
"html-button-response","26","290475","0.0-19.0","CKN_144","144","","","","","","null","<button class=""jspsych-btn""><img src=""stimuli/white_square.png"" style=""width: 200px;height: 200px;""></button>","null","purple","yellow","[""purple"",""yellow"",""high nameability""]","left-right","[""purple"",""yellow"",""high nameability""]","1","high nameability","1","left","iti",""
"html-button-response","27","292861","0.0-20.0","CKN_144","144","","","","","","2359","","0","darkgreenblue","turquoise","[""darkgreenblue"",""turquoise"",""low nameability""]","right-left","[""turquoise"",""darkgreenblue""]","1","low nameability","2","right","trigger",""
"html-button-response","28","295652","0.0-21.0-0.0","CKN_144","144","","","","","","2777","<button class=""jspsych-btn""><img src=""stimuli/darkgreenblue.png"" style=""width: 200px;height: 200px;""></button>","1","darkgreenblue","turquoise","[""darkgreenblue"",""turquoise"",""low nameability""]","right-left","[""turquoise"",""darkgreenblue""]","1","low nameability","2","right","response","1"
"html-audio-button-response","29","295865","0.0-21.0-1.0","CKN_144","144","","","","","","null","stimuli/bleep.m4a","null","darkgreenblue","turquoise","[""darkgreenblue"",""turquoise"",""low nameability""]","right-left","[""turquoise"",""darkgreenblue""]","1","low nameability","2","right","audio_feedback","1"
"html-button-response","30","296392","0.0-22.0","CKN_144","144","","","","","","null","<button class=""jspsych-btn""><img src=""stimuli/white_square.png"" style=""width: 200px;height: 200px;""></button>","null","darkgreenblue","turquoise","[""darkgreenblue"",""turquoise"",""low nameability""]","right-left","[""turquoise"",""darkgreenblue""]","1","low nameability","2","right","iti",""
"html-button-response","31","299785","0.0-23.0","CKN_144","144","","","","","","3367","","0","pink","lightred","[""pink"",""lightred"",""low nameability""]","right-left","[""lightred"",""pink""]","1","low nameability","3","right","trigger",""
"html-button-response","32","302040","0.0-24.0-0.0","CKN_144","144","","","","","","2247","<button class=""jspsych-btn""><img src=""stimuli/pink.png"" style=""width: 200px;height: 200px;""></button>","1","pink","lightred","[""pink"",""lightred"",""low nameability""]","right-left","[""lightred"",""pink""]","1","low nameability","3","right","response","1"
"html-audio-button-response","33","302254","0.0-24.0-1.0","CKN_144","144","","","","","","null","stimuli/bleep.m4a","null","pink","lightred","[""pink"",""lightred"",""low nameability""]","right-left","[""lightred"",""pink""]","1","low nameability","3","right","audio_feedback","1"
"html-button-response","34","302775","0.0-25.0","CKN_144","144","","","","","","null","<button class=""jspsych-btn""><img src=""stimuli/white_square.png"" style=""width: 200px;height: 200px;""></button>","null","pink","lightred","[""pink"",""lightred"",""low nameability""]","right-left","[""lightred"",""pink""]","1","low nameability","3","right","iti",""
"html-button-response","35","304526","0.0-26.0","CKN_144","144","","","","","","1728","","0","brown","red","[""brown"",""red"",""high nameability""]","right-left","[""red"",""brown""]","1","high nameability","4","right","trigger",""
"html-button-response","36","306908","0.0-27.0-0.0","CKN_144","144","","","","","","2367","<button class=""jspsych-btn""><img src=""stimuli/brown.png"" style=""width: 200px;height: 200px;""></button>","1","brown","red","[""brown"",""red"",""high nameability""]","right-left","[""red"",""brown""]","1","high nameability","4","right","response","1"
"html-audio-button-response","37","307118","0.0-27.0-1.0","CKN_144","144","","","","","","null","stimuli/bleep.m4a","null","brown","red","[""brown"",""red"",""high nameability""]","right-left","[""red"",""brown""]","1","high nameability","4","right","audio_feedback","1"
"html-button-response","38","307638","0.0-28.0","CKN_144","144","","","","","","null","<button class=""jspsych-btn""><img src=""stimuli/white_square.png"" style=""width: 200px;height: 200px;""></button>","null","brown","red","[""brown"",""red"",""high nameability""]","right-left","[""red"",""brown""]","1","high nameability","4","right","iti",""
"html-button-response","39","311419","0.0-29.0","CKN_144","144","","","","","","3763","","0","lightred","pink","[""lightred"",""pink"",""low nameability""]","left-right","[""lightred"",""pink"",""low nameability""]","1","low nameability","5","left","trigger",""
"html-button-response","40","319821","0.0-30.0-0.0","CKN_144","144","","","","","","8391","<button class=""jspsych-btn""><img src=""stimuli/lightred.png"" style=""width: 200px;height: 200px;""></button>","0","lightred","pink","[""lightred"",""pink"",""low nameability""]","left-right","[""lightred"",""pink"",""low nameability""]","1","low nameability","5","left","response","1"
"html-audio-button-response","41","320026","0.0-30.0-1.0","CKN_144","144","","","","","","null","stimuli/bleep.m4a","null","lightred","pink","[""lightred"",""pink"",""low nameability""]","left-right","[""lightred"",""pink"",""low nameability""]","1","low nameability","5","left","audio_feedback","1"
"html-button-response","42","320550","0.0-31.0","CKN_144","144","","","","","","null","<button class=""jspsych-btn""><img src=""stimuli/white_square.png"" style=""width: 200px;height: 200px;""></button>","null","lightred","pink","[""lightred"",""pink"",""low nameability""]","left-right","[""lightred"",""pink"",""low nameability""]","1","low nameability","5","left","iti",""
"html-button-response","43","322028","0.0-32.0","CKN_144","144","","","","","","1462","","0","pink","neonyellow","[""pink"",""neonyellow"",""low nameability""]","right-left","[""neonyellow"",""pink""]","1","low nameability","6","right","trigger",""
"html-button-response","44","324420","0.0-33.0-0.0","CKN_144","144","","","","","","2382","<button class=""jspsych-btn""><img src=""stimuli/pink.png"" style=""width: 200px;height: 200px;""></button>","1","pink","neonyellow","[""pink"",""neonyellow"",""low nameability""]","right-left","[""neonyellow"",""pink""]","1","low nameability","6","right","response","1"
"html-audio-button-response","45","324636","0.0-33.0-1.0","CKN_144","144","","","","","","null","stimuli/bleep.m4a","null","pink","neonyellow","[""pink"",""neonyellow"",""low nameability""]","right-left","[""neonyellow"",""pink""]","1","low nameability","6","right","audio_feedback","1"
"html-button-response","46","325158","0.0-34.0","CKN_144","144","","","","","","null","<button class=""jspsych-btn""><img src=""stimuli/white_square.png"" style=""width: 200px;height: 200px;""></button>","null","pink","neonyellow","[""pink"",""neonyellow"",""low nameability""]","right-left","[""neonyellow"",""pink""]","1","low nameability","6","right","iti",""
"html-button-response","47","326776","0.0-35.0","CKN_144","144","","","","","","1600","","0","yellow","red","[""yellow"",""red"",""high nameability""]","left-right","[""yellow"",""red"",""high nameability""]","1","high nameability","7","left","trigger",""
"html-button-response","48","328831","0.0-36.0-0.0","CKN_144","144","","","","","","2044","<button class=""jspsych-btn""><img src=""stimuli/yellow.png"" style=""width: 200px;height: 200px;""></button>","0","yellow","red","[""yellow"",""red"",""high nameability""]","left-right","[""yellow"",""red"",""high nameability""]","1","high nameability","7","left","response","1"
"html-audio-button-response","49","329037","0.0-36.0-1.0","CKN_144","144","","","","","","null","stimuli/bleep.m4a","null","yellow","red","[""yellow"",""red"",""high nameability""]","left-right","[""yellow"",""red"",""high nameability""]","1","high nameability","7","left","audio_feedback","1"
"html-button-response","50","329557","0.0-37.0","CKN_144","144","","","","","","null","<button class=""jspsych-btn""><img src=""stimuli/white_square.png"" style=""width: 200px;height: 200px;""></button>","null","yellow","red","[""yellow"",""red"",""high nameability""]","left-right","[""yellow"",""red"",""high nameability""]","1","high nameability","7","left","iti",""
"html-button-response","51","331824","0.0-38.0","CKN_144","144","","","","","","2243","","0","purple","blue","[""purple"",""blue"",""high nameability""]","left-right","[""purple"",""blue"",""high nameability""]","1","high nameability","8","left","trigger",""
"html-button-response","52","335573","0.0-39.0-0.0","CKN_144","144","","","","","","3741","<button class=""jspsych-btn""><img src=""stimuli/purple.png"" style=""width: 200px;height: 200px;""></button>","0","purple","blue","[""purple"",""blue"",""high nameability""]","left-right","[""purple"",""blue"",""high nameability""]","1","high nameability","8","left","response","1"
"html-audio-button-response","53","335786","0.0-39.0-1.0","CKN_144","144","","","","","","null","stimuli/bleep.m4a","null","purple","blue","[""purple"",""blue"",""high nameability""]","left-right","[""purple"",""blue"",""high nameability""]","1","high nameability","8","left","audio_feedback","1"
"html-button-response","54","336306","0.0-40.0","CKN_144","144","","","","","","null","<button class=""jspsych-btn""><img src=""stimuli/white_square.png"" style=""width: 200px;height: 200px;""></button>","null","purple","blue","[""purple"",""blue"",""high nameability""]","left-right","[""purple"",""blue"",""high nameability""]","1","high nameability","8","left","iti",""
"html-button-response","55","337802","0.0-41.0","CKN_144","144","","","","","","1481","","0","mustard","lightred","[""mustard"",""lightred"",""low nameability""]","right-left","[""lightred"",""mustard""]","1","low nameability","9","right","trigger",""
"html-button-response","56","339879","0.0-42.0-0.0","CKN_144","144","","","","","","2065","<button class=""jspsych-btn""><img src=""stimuli/mustard.png"" style=""width: 200px;height: 200px;""></button>","1","mustard","lightred","[""mustard"",""lightred"",""low nameability""]","right-left","[""lightred"",""mustard""]","1","low nameability","9","right","response","1"
"html-audio-button-response","57","340091","0.0-42.0-1.0","CKN_144","144","","","","","","null","stimuli/bleep.m4a","null","mustard","lightred","[""mustard"",""lightred"",""low nameability""]","right-left","[""lightred"",""mustard""]","1","low nameability","9","right","audio_feedback","1"
"html-button-response","58","340609","0.0-43.0","CKN_144","144","","","","","","null","<button class=""jspsych-btn""><img src=""stimuli/white_square.png"" style=""width: 200px;height: 200px;""></button>","null","mustard","lightred","[""mustard"",""lightred"",""low nameability""]","right-left","[""lightred"",""mustard""]","1","low nameability","9","right","iti",""
"html-button-response","59","342135","0.0-44.0","CKN_144","144","","","","","","1508","","0","blue","purple","[""blue"",""purple"",""high nameability""]","left-right","[""blue"",""purple"",""high nameability""]","1","high nameability","10","left","trigger",""
"html-button-response","60","344545","0.0-45.0-0.0","CKN_144","144","","","","","","2394","<button class=""jspsych-btn""><img src=""stimuli/blue.png"" style=""width: 200px;height: 200px;""></button>","0","blue","purple","[""blue"",""purple"",""high nameability""]","left-right","[""blue"",""purple"",""high nameability""]","1","high nameability","10","left","response","1"
"html-audio-button-response","61","344758","0.0-45.0-1.0","CKN_144","144","","","","","","null","stimuli/bleep.m4a","null","blue","purple","[""blue"",""purple"",""high nameability""]","left-right","[""blue"",""purple"",""high nameability""]","1","high nameability","10","left","audio_feedback","1"
"html-button-response","62","345273","0.0-46.0","CKN_144","144","","","","","","null","<button class=""jspsych-btn""><img src=""stimuli/white_square.png"" style=""width: 200px;height: 200px;""></button>","null","blue","purple","[""blue"",""purple"",""high nameability""]","left-right","[""blue"",""purple"",""high nameability""]","1","high nameability","10","left","iti",""
"pavlovia","63","345388","0.0-47.0","CKN_144","144","","","","","","","","","","","","","","","","","","",""
"pavlovia","64","345403","0.0-48.0","CKN_144","144","","","","","","","","","","","","","","","","","","",""
"html-audio-button-response","65","351689","0.0-49.0","CKN_144","144","","","","","","6413","stimuli/tada.m4a","0","","","","","","","","","","",""
"html-button-response","66","352147","0.0-50.0","CKN_144","144","","","","","","450","","0","","","","","","","","","","",""
"html-button-response","67","353797","0.0-51.0","CKN_144","144","","","","","","1640","","0","darkgreenblue","pink","[""darkgreenblue"",""pink"",""low nameability""]","left-right","[""darkgreenblue"",""pink"",""low nameability""]","2","low nameability","11","left","trigger",""
"html-button-response","68","355596","0.0-52.0-0.0","CKN_144","144","","","","","","1789","<button class=""jspsych-btn""><img src=""stimuli/darkgreenblue.png"" style=""width: 200px;height: 200px;""></button>","0","darkgreenblue","pink","[""darkgreenblue"",""pink"",""low nameability""]","left-right","[""darkgreenblue"",""pink"",""low nameability""]","2","low nameability","11","left","response","1"
"html-audio-button-response","69","355805","0.0-52.0-1.0","CKN_144","144","","","","","","null","stimuli/bleep.m4a","null","darkgreenblue","pink","[""darkgreenblue"",""pink"",""low nameability""]","left-right","[""darkgreenblue"",""pink"",""low nameability""]","2","low nameability","11","left","audio_feedback","1"
"html-button-response","70","356322","0.0-53.0","CKN_144","144","","","","","","null","<button class=""jspsych-btn""><img src=""stimuli/white_square.png"" style=""width: 200px;height: 200px;""></button>","null","darkgreenblue","pink","[""darkgreenblue"",""pink"",""low nameability""]","left-right","[""darkgreenblue"",""pink"",""low nameability""]","2","low nameability","11","left","iti",""
"html-button-response","71","357794","0.0-54.0","CKN_144","144","","","","","","1451","","0","darkgreenblue","neonyellow","[""darkgreenblue"",""neonyellow"",""low nameability""]","left-right","[""darkgreenblue"",""neonyellow"",""low nameability""]","2","low nameability","12","left","trigger",""
"html-button-response","72","361058","0.0-55.0-0.0","CKN_144","144","","","","","","3252","<button class=""jspsych-btn""><img src=""stimuli/darkgreenblue.png"" style=""width: 200px;height: 200px;""></button>","0","darkgreenblue","neonyellow","[""darkgreenblue"",""neonyellow"",""low nameability""]","left-right","[""darkgreenblue"",""neonyellow"",""low nameability""]","2","low nameability","12","left","response","1"
"html-audio-button-response","73","361265","0.0-55.0-1.0","CKN_144","144","","","","","","null","stimuli/bleep.m4a","null","darkgreenblue","neonyellow","[""darkgreenblue"",""neonyellow"",""low nameability""]","left-right","[""darkgreenblue"",""neonyellow"",""low nameability""]","2","low nameability","12","left","audio_feedback","1"
"html-button-response","74","361788","0.0-56.0","CKN_144","144","","","","","","null","<button class=""jspsych-btn""><img src=""stimuli/white_square.png"" style=""width: 200px;height: 200px;""></button>","null","darkgreenblue","neonyellow","[""darkgreenblue"",""neonyellow"",""low nameability""]","left-right","[""darkgreenblue"",""neonyellow"",""low nameability""]","2","low nameability","12","left","iti",""
"html-button-response","75","363313","0.0-57.0","CKN_144","144","","","","","","1505","","0","orange","purple","[""orange"",""purple"",""high nameability""]","left-right","[""orange"",""purple"",""high nameability""]","2","high nameability","13","left","trigger",""
"html-button-response","76","365886","0.0-58.0-0.0","CKN_144","144","","","","","","2561","<button class=""jspsych-btn""><img src=""stimuli/orange.png"" style=""width: 200px;height: 200px;""></button>","0","orange","purple","[""orange"",""purple"",""high nameability""]","left-right","[""orange"",""purple"",""high nameability""]","2","high nameability","13","left","response","1"
"html-audio-button-response","77","366093","0.0-58.0-1.0","CKN_144","144","","","","","","null","stimuli/bleep.m4a","null","orange","purple","[""orange"",""purple"",""high nameability""]","left-right","[""orange"",""purple"",""high nameability""]","2","high nameability","13","left","audio_feedback","1"
"html-button-response","78","366612","0.0-59.0","CKN_144","144","","","","","","null","<button class=""jspsych-btn""><img src=""stimuli/white_square.png"" style=""width: 200px;height: 200px;""></button>","null","orange","purple","[""orange"",""purple"",""high nameability""]","left-right","[""orange"",""purple"",""high nameability""]","2","high nameability","13","left","iti",""
"html-button-response","79","367921","0.0-60.0","CKN_144","144","","","","","","1292","","0","yellow","brown","[""yellow"",""brown"",""high nameability""]","right-left","[""brown"",""yellow""]","2","high nameability","14","right","trigger",""
"html-button-response","80","369520","0.0-61.0-0.0","CKN_144","144","","","","","","1587","<button class=""jspsych-btn""><img src=""stimuli/yellow.png"" style=""width: 200px;height: 200px;""></button>","1","yellow","brown","[""yellow"",""brown"",""high nameability""]","right-left","[""brown"",""yellow""]","2","high nameability","14","right","response","1"
"html-audio-button-response","81","369737","0.0-61.0-1.0","CKN_144","144","","","","","","null","stimuli/bleep.m4a","null","yellow","brown","[""yellow"",""brown"",""high nameability""]","right-left","[""brown"",""yellow""]","2","high nameability","14","right","audio_feedback","1"
"html-button-response","82","370254","0.0-62.0","CKN_144","144","","","","","","null","<button class=""jspsych-btn""><img src=""stimuli/white_square.png"" style=""width: 200px;height: 200px;""></button>","null","yellow","brown","[""yellow"",""brown"",""high nameability""]","right-left","[""brown"",""yellow""]","2","high nameability","14","right","iti",""
"html-button-response","83","372027","0.0-63.0","CKN_144","144","","","","","","1753","","0","turquoise","mustard","[""turquoise"",""mustard"",""low nameability""]","left-right","[""turquoise"",""mustard"",""low nameability""]","2","low nameability","15","left","trigger",""
"html-button-response","84","374928","0.0-64.0-0.0","CKN_144","144","","","","","","2885","<button class=""jspsych-btn""><img src=""stimuli/turquoise.png"" style=""width: 200px;height: 200px;""></button>","0","turquoise","mustard","[""turquoise"",""mustard"",""low nameability""]","left-right","[""turquoise"",""mustard"",""low nameability""]","2","low nameability","15","left","response","1"
"html-audio-button-response","85","375136","0.0-64.0-1.0","CKN_144","144","","","","","","null","stimuli/bleep.m4a","null","turquoise","mustard","[""turquoise"",""mustard"",""low nameability""]","left-right","[""turquoise"",""mustard"",""low nameability""]","2","low nameability","15","left","audio_feedback","1"
"html-button-response","86","375650","0.0-65.0","CKN_144","144","","","","","","null","<button class=""jspsych-btn""><img src=""stimuli/white_square.png"" style=""width: 200px;height: 200px;""></button>","null","turquoise","mustard","[""turquoise"",""mustard"",""low nameability""]","left-right","[""turquoise"",""mustard"",""low nameability""]","2","low nameability","15","left","iti",""
"html-button-response","87","377233","0.0-66.0","CKN_144","144","","","","","","1565","","0","orange","red","[""orange"",""red"",""high nameability""]","left-right","[""orange"",""red"",""high nameability""]","2","high nameability","16","left","trigger",""
"html-button-response","88","379819","0.0-67.0-0.0","CKN_144","144","","","","","","2578","<button class=""jspsych-btn""><img src=""stimuli/orange.png"" style=""width: 200px;height: 200px;""></button>","0","orange","red","[""orange"",""red"",""high nameability""]","left-right","[""orange"",""red"",""high nameability""]","2","high nameability","16","left","response","1"
"html-audio-button-response","89","380025","0.0-67.0-1.0","CKN_144","144","","","","","","null","stimuli/bleep.m4a","null","orange","red","[""orange"",""red"",""high nameability""]","left-right","[""orange"",""red"",""high nameability""]","2","high nameability","16","left","audio_feedback","1"
"html-button-response","90","380544","0.0-68.0","CKN_144","144","","","","","","null","<button class=""jspsych-btn""><img src=""stimuli/white_square.png"" style=""width: 200px;height: 200px;""></button>","null","orange","red","[""orange"",""red"",""high nameability""]","left-right","[""orange"",""red"",""high nameability""]","2","high nameability","16","left","iti",""
"html-button-response","91","381879","0.0-69.0","CKN_144","144","","","","","","1315","","0","mustard","pink","[""mustard"",""pink"",""low nameability""]","right-left","[""pink"",""mustard""]","2","low nameability","17","right","trigger",""
"html-button-response","92","383678","0.0-70.0-0.0","CKN_144","144","","","","","","1787","<button class=""jspsych-btn""><img src=""stimuli/mustard.png"" style=""width: 200px;height: 200px;""></button>","1","mustard","pink","[""mustard"",""pink"",""low nameability""]","right-left","[""pink"",""mustard""]","2","low nameability","17","right","response","1"
"html-audio-button-response","93","383885","0.0-70.0-1.0","CKN_144","144","","","","","","null","stimuli/bleep.m4a","null","mustard","pink","[""mustard"",""pink"",""low nameability""]","right-left","[""pink"",""mustard""]","2","low nameability","17","right","audio_feedback","1"
"html-button-response","94","384408","0.0-71.0","CKN_144","144","","","","","","null","<button class=""jspsych-btn""><img src=""stimuli/white_square.png"" style=""width: 200px;height: 200px;""></button>","null","mustard","pink","[""mustard"",""pink"",""low nameability""]","right-left","[""pink"",""mustard""]","2","low nameability","17","right","iti",""
"html-button-response","95","386026","0.0-72.0","CKN_144","144","","","","","","1602","","0","neonyellow","pink","[""neonyellow"",""pink"",""low nameability""]","left-right","[""neonyellow"",""pink"",""low nameability""]","2","low nameability","18","left","trigger",""
"html-button-response","96","388725","0.0-73.0-0.0","CKN_144","144","","","","","","2682","<button class=""jspsych-btn""><img src=""stimuli/neonyellow.png"" style=""width: 200px;height: 200px;""></button>","0","neonyellow","pink","[""neonyellow"",""pink"",""low nameability""]","left-right","[""neonyellow"",""pink"",""low nameability""]","2","low nameability","18","left","response","1"
"html-audio-button-response","97","388934","0.0-73.0-1.0","CKN_144","144","","","","","","null","stimuli/bleep.m4a","null","neonyellow","pink","[""neonyellow"",""pink"",""low nameability""]","left-right","[""neonyellow"",""pink"",""low nameability""]","2","low nameability","18","left","audio_feedback","1"
"html-button-response","98","389452","0.0-74.0","CKN_144","144","","","","","","null","<button class=""jspsych-btn""><img src=""stimuli/white_square.png"" style=""width: 200px;height: 200px;""></button>","null","neonyellow","pink","[""neonyellow"",""pink"",""low nameability""]","left-right","[""neonyellow"",""pink"",""low nameability""]","2","low nameability","18","left","iti",""
"html-button-response","99","391060","0.0-75.0","CKN_144","144","","","","","","1590","","0","yellow","orange","[""yellow"",""orange"",""high nameability""]","right-left","[""orange"",""yellow""]","2","high nameability","19","right","trigger",""
"html-button-response","100","392763","0.0-76.0-0.0","CKN_144","144","","","","","","1693","<button class=""jspsych-btn""><img src=""stimuli/yellow.png"" style=""width: 200px;height: 200px;""></button>","1","yellow","orange","[""yellow"",""orange"",""high nameability""]","right-left","[""orange"",""yellow""]","2","high nameability","19","right","response","1"
"html-audio-button-response","101","392970","0.0-76.0-1.0","CKN_144","144","","","","","","null","stimuli/bleep.m4a","null","yellow","orange","[""yellow"",""orange"",""high nameability""]","right-left","[""orange"",""yellow""]","2","high nameability","19","right","audio_feedback","1"
"html-button-response","102","393487","0.0-77.0","CKN_144","144","","","","","","null","<button class=""jspsych-btn""><img src=""stimuli/white_square.png"" style=""width: 200px;height: 200px;""></button>","null","yellow","orange","[""yellow"",""orange"",""high nameability""]","right-left","[""orange"",""yellow""]","2","high nameability","19","right","iti",""
"html-button-response","103","395026","0.0-78.0","CKN_144","144","","","","","","1520","","0","yellow","blue","[""yellow"",""blue"",""high nameability""]","left-right","[""yellow"",""blue"",""high nameability""]","2","high nameability","20","left","trigger",""
"html-button-response","104","398116","0.0-79.0-0.0","CKN_144","144","","","","","","3079","<button class=""jspsych-btn""><img src=""stimuli/yellow.png"" style=""width: 200px;height: 200px;""></button>","0","yellow","blue","[""yellow"",""blue"",""high nameability""]","left-right","[""yellow"",""blue"",""high nameability""]","2","high nameability","20","left","response","1"
"html-audio-button-response","105","398333","0.0-79.0-1.0","CKN_144","144","","","","","","null","stimuli/bleep.m4a","null","yellow","blue","[""yellow"",""blue"",""high nameability""]","left-right","[""yellow"",""blue"",""high nameability""]","2","high nameability","20","left","audio_feedback","1"
"html-button-response","106","398850","0.0-80.0","CKN_144","144","","","","","","null","<button class=""jspsych-btn""><img src=""stimuli/white_square.png"" style=""width: 200px;height: 200px;""></button>","null","yellow","blue","[""yellow"",""blue"",""high nameability""]","left-right","[""yellow"",""blue"",""high nameability""]","2","high nameability","20","left","iti",""
"pavlovia","107","398920","0.0-81.0","CKN_144","144","","","","","","","","","","","","","","","","","","",""
"pavlovia","108","398929","0.0-82.0","CKN_144","144","","","","","","","","","","","","","","","","","","",""
"html-audio-button-response","109","402783","0.0-83.0","CKN_144","144","","","","","","3933","stimuli/tada.m4a","0","","","","","","","","","","",""
"html-button-response","110","403293","0.0-84.0","CKN_144","144","","","","","","499","","0","","","","","","","","","","",""
"html-button-response","111","405884","0.0-85.0","CKN_144","144","","","","","","2577","","0","brown","orange","[""brown"",""orange"",""high nameability""]","right-left","[""orange"",""brown""]","3","high nameability","21","right","trigger",""
"html-button-response","112","407262","0.0-86.0-0.0","CKN_144","144","","","","","","1347","<button class=""jspsych-btn""><img src=""stimuli/brown.png"" style=""width: 200px;height: 200px;""></button>","1","brown","orange","[""brown"",""orange"",""high nameability""]","right-left","[""orange"",""brown""]","3","high nameability","21","right","response","1"
"html-audio-button-response","113","407472","0.0-86.0-1.0","CKN_144","144","","","","","","null","stimuli/bleep.m4a","null","brown","orange","[""brown"",""orange"",""high nameability""]","right-left","[""orange"",""brown""]","3","high nameability","21","right","audio_feedback","1"
"html-button-response","114","408006","0.0-87.0","CKN_144","144","","","","","","null","<button class=""jspsych-btn""><img src=""stimuli/white_square.png"" style=""width: 200px;height: 200px;""></button>","null","brown","orange","[""brown"",""orange"",""high nameability""]","right-left","[""orange"",""brown""]","3","high nameability","21","right","iti",""
"html-button-response","115","410082","0.0-88.0","CKN_144","144","","","","","","2044","","0","pink","darkgreenblue","[""pink"",""darkgreenblue"",""low nameability""]","right-left","[""darkgreenblue"",""pink""]","3","low nameability","22","right","trigger",""
"html-button-response","116","412533","0.0-89.0-0.0","CKN_144","144","","","","","","2438","<button class=""jspsych-btn""><img src=""stimuli/pink.png"" style=""width: 200px;height: 200px;""></button>","1","pink","darkgreenblue","[""pink"",""darkgreenblue"",""low nameability""]","right-left","[""darkgreenblue"",""pink""]","3","low nameability","22","right","response","1"
"html-audio-button-response","117","412755","0.0-89.0-1.0","CKN_144","144","","","","","","null","stimuli/bleep.m4a","null","pink","darkgreenblue","[""pink"",""darkgreenblue"",""low nameability""]","right-left","[""darkgreenblue"",""pink""]","3","low nameability","22","right","audio_feedback","1"
"html-button-response","118","413279","0.0-90.0","CKN_144","144","","","","","","null","<button class=""jspsych-btn""><img src=""stimuli/white_square.png"" style=""width: 200px;height: 200px;""></button>","null","pink","darkgreenblue","[""pink"",""darkgreenblue"",""low nameability""]","right-left","[""darkgreenblue"",""pink""]","3","low nameability","22","right","iti",""
"html-button-response","119","415552","0.0-91.0","CKN_144","144","","","","","","2250","","0","lightred","turquoise","[""lightred"",""turquoise"",""low nameability""]","left-right","[""lightred"",""turquoise"",""low nameability""]","3","low nameability","23","left","trigger",""
"html-button-response","120","417020","0.0-92.0-0.0","CKN_144","144","","","","","","1459","<button class=""jspsych-btn""><img src=""stimuli/lightred.png"" style=""width: 200px;height: 200px;""></button>","0","lightred","turquoise","[""lightred"",""turquoise"",""low nameability""]","left-right","[""lightred"",""turquoise"",""low nameability""]","3","low nameability","23","left","response","1"
"html-audio-button-response","121","417232","0.0-92.0-1.0","CKN_144","144","","","","","","null","stimuli/bleep.m4a","null","lightred","turquoise","[""lightred"",""turquoise"",""low nameability""]","left-right","[""lightred"",""turquoise"",""low nameability""]","3","low nameability","23","left","audio_feedback","1"
"html-button-response","122","417764","0.0-93.0","CKN_144","144","","","","","","null","<button class=""jspsych-btn""><img src=""stimuli/white_square.png"" style=""width: 200px;height: 200px;""></button>","null","lightred","turquoise","[""lightred"",""turquoise"",""low nameability""]","left-right","[""lightred"",""turquoise"",""low nameability""]","3","low nameability","23","left","iti",""
"html-button-response","123","422058","0.0-94.0","CKN_144","144","","","","","","4270","","0","pink","mustard","[""pink"",""mustard"",""low nameability""]","right-left","[""mustard"",""pink""]","3","low nameability","24","right","trigger",""
"html-button-response","124","424224","0.0-95.0-0.0","CKN_144","144","","","","","","2157","<button class=""jspsych-btn""><img src=""stimuli/pink.png"" style=""width: 200px;height: 200px;""></button>","1","pink","mustard","[""pink"",""mustard"",""low nameability""]","right-left","[""mustard"",""pink""]","3","low nameability","24","right","response","1"
"html-audio-button-response","125","424438","0.0-95.0-1.0","CKN_144","144","","","","","","null","stimuli/bleep.m4a","null","pink","mustard","[""pink"",""mustard"",""low nameability""]","right-left","[""mustard"",""pink""]","3","low nameability","24","right","audio_feedback","1"
"html-button-response","126","424961","0.0-96.0","CKN_144","144","","","","","","null","<button class=""jspsych-btn""><img src=""stimuli/white_square.png"" style=""width: 200px;height: 200px;""></button>","null","pink","mustard","[""pink"",""mustard"",""low nameability""]","right-left","[""mustard"",""pink""]","3","low nameability","24","right","iti",""
"html-button-response","127","426506","0.0-97.0","CKN_144","144","","","","","","1528","","0","blue","red","[""blue"",""red"",""high nameability""]","right-left","[""red"",""blue""]","3","high nameability","25","right","trigger",""
"html-button-response","128","427849","0.0-98.0-0.0","CKN_144","144","","","","","","1329","<button class=""jspsych-btn""><img src=""stimuli/blue.png"" style=""width: 200px;height: 200px;""></button>","1","blue","red","[""blue"",""red"",""high nameability""]","right-left","[""red"",""blue""]","3","high nameability","25","right","response","1"
"html-audio-button-response","129","428061","0.0-98.0-1.0","CKN_144","144","","","","","","null","stimuli/bleep.m4a","null","blue","red","[""blue"",""red"",""high nameability""]","right-left","[""red"",""blue""]","3","high nameability","25","right","audio_feedback","1"
"html-button-response","130","428584","0.0-99.0","CKN_144","144","","","","","","null","<button class=""jspsych-btn""><img src=""stimuli/white_square.png"" style=""width: 200px;height: 200px;""></button>","null","blue","red","[""blue"",""red"",""high nameability""]","right-left","[""red"",""blue""]","3","high nameability","25","right","iti",""
"html-button-response","131","431323","0.0-100.0","CKN_144","144","","","","","","2723","","0","neonyellow","darkgreenblue","[""neonyellow"",""darkgreenblue"",""low nameability""]","left-right","[""neonyellow"",""darkgreenblue"",""low nameability""]","3","low nameability","26","left","trigger",""
"html-button-response","132","432775","0.0-101.0-0.0","CKN_144","144","","","","","","1440","<button class=""jspsych-btn""><img src=""stimuli/neonyellow.png"" style=""width: 200px;height: 200px;""></button>","0","neonyellow","darkgreenblue","[""neonyellow"",""darkgreenblue"",""low nameability""]","left-right","[""neonyellow"",""darkgreenblue"",""low nameability""]","3","low nameability","26","left","response","1"
"html-audio-button-response","133","432993","0.0-101.0-1.0","CKN_144","144","","","","","","null","stimuli/bleep.m4a","null","neonyellow","darkgreenblue","[""neonyellow"",""darkgreenblue"",""low nameability""]","left-right","[""neonyellow"",""darkgreenblue"",""low nameability""]","3","low nameability","26","left","audio_feedback","1"
"html-button-response","134","433512","0.0-102.0","CKN_144","144","","","","","","null","<button class=""jspsych-btn""><img src=""stimuli/white_square.png"" style=""width: 200px;height: 200px;""></button>","null","neonyellow","darkgreenblue","[""neonyellow"",""darkgreenblue"",""low nameability""]","left-right","[""neonyellow"",""darkgreenblue"",""low nameability""]","3","low nameability","26","left","iti",""
"html-button-response","135","434938","0.0-103.0","CKN_144","144","","","","","","1397","","0","brown","purple","[""brown"",""purple"",""high nameability""]","right-left","[""purple"",""brown""]","3","high nameability","27","right","trigger",""
"html-button-response","136","436676","0.0-104.0-0.0","CKN_144","144","","","","","","1726","<button class=""jspsych-btn""><img src=""stimuli/brown.png"" style=""width: 200px;height: 200px;""></button>","1","brown","purple","[""brown"",""purple"",""high nameability""]","right-left","[""purple"",""brown""]","3","high nameability","27","right","response","1"
"html-audio-button-response","137","436893","0.0-104.0-1.0","CKN_144","144","","","","","","null","stimuli/bleep.m4a","null","brown","purple","[""brown"",""purple"",""high nameability""]","right-left","[""purple"",""brown""]","3","high nameability","27","right","audio_feedback","1"
"html-button-response","138","437415","0.0-105.0","CKN_144","144","","","","","","null","<button class=""jspsych-btn""><img src=""stimuli/white_square.png"" style=""width: 200px;height: 200px;""></button>","null","brown","purple","[""brown"",""purple"",""high nameability""]","right-left","[""purple"",""brown""]","3","high nameability","27","right","iti",""
"html-button-response","139","438849","0.0-106.0","CKN_144","144","","","","","","1413","","0","orange","yellow","[""orange"",""yellow"",""high nameability""]","left-right","[""orange"",""yellow"",""high nameability""]","3","high nameability","28","left","trigger",""
"html-button-response","140","441931","0.0-107.0-0.0","CKN_144","144","","","","","","3072","<button class=""jspsych-btn""><img src=""stimuli/orange.png"" style=""width: 200px;height: 200px;""></button>","0","orange","yellow","[""orange"",""yellow"",""high nameability""]","left-right","[""orange"",""yellow"",""high nameability""]","3","high nameability","28","left","response","1"
"html-audio-button-response","141","442150","0.0-107.0-1.0","CKN_144","144","","","","","","null","stimuli/bleep.m4a","null","orange","yellow","[""orange"",""yellow"",""high nameability""]","left-right","[""orange"",""yellow"",""high nameability""]","3","high nameability","28","left","audio_feedback","1"
"html-button-response","142","442673","0.0-108.0","CKN_144","144","","","","","","null","<button class=""jspsych-btn""><img src=""stimuli/white_square.png"" style=""width: 200px;height: 200px;""></button>","null","orange","yellow","[""orange"",""yellow"",""high nameability""]","left-right","[""orange"",""yellow"",""high nameability""]","3","high nameability","28","left","iti",""
"html-button-response","143","445836","0.0-109.0","CKN_144","144","","","","","","3142","","0","turquoise","pink","[""turquoise"",""pink"",""low nameability""]","right-left","[""pink"",""turquoise""]","3","low nameability","29","right","trigger",""
"html-button-response","144","448041","0.0-110.0-0.0","CKN_144","144","","","","","","2195","<button class=""jspsych-btn""><img src=""stimuli/turquoise.png"" style=""width: 200px;height: 200px;""></button>","1","turquoise","pink","[""turquoise"",""pink"",""low nameability""]","right-left","[""pink"",""turquoise""]","3","low nameability","29","right","response","1"
"html-audio-button-response","145","448246","0.0-110.0-1.0","CKN_144","144","","","","","","null","stimuli/bleep.m4a","null","turquoise","pink","[""turquoise"",""pink"",""low nameability""]","right-left","[""pink"",""turquoise""]","3","low nameability","29","right","audio_feedback","1"
"html-button-response","146","448772","0.0-111.0","CKN_144","144","","","","","","null","<button class=""jspsych-btn""><img src=""stimuli/white_square.png"" style=""width: 200px;height: 200px;""></button>","null","turquoise","pink","[""turquoise"",""pink"",""low nameability""]","right-left","[""pink"",""turquoise""]","3","low nameability","29","right","iti",""
"html-button-response","147","450381","0.0-112.0","CKN_144","144","","","","","","1583","","0","orange","blue","[""orange"",""blue"",""high nameability""]","right-left","[""blue"",""orange""]","3","high nameability","30","right","trigger",""
"html-button-response","148","451889","0.0-113.0-0.0","CKN_144","144","","","","","","1498","<button class=""jspsych-btn""><img src=""stimuli/orange.png"" style=""width: 200px;height: 200px;""></button>","1","orange","blue","[""orange"",""blue"",""high nameability""]","right-left","[""blue"",""orange""]","3","high nameability","30","right","response","1"
"html-audio-button-response","149","452099","0.0-113.0-1.0","CKN_144","144","","","","","","null","stimuli/bleep.m4a","null","orange","blue","[""orange"",""blue"",""high nameability""]","right-left","[""blue"",""orange""]","3","high nameability","30","right","audio_feedback","1"
"html-button-response","150","452614","0.0-114.0","CKN_144","144","","","","","","null","<button class=""jspsych-btn""><img src=""stimuli/white_square.png"" style=""width: 200px;height: 200px;""></button>","null","orange","blue","[""orange"",""blue"",""high nameability""]","right-left","[""blue"",""orange""]","3","high nameability","30","right","iti",""
"pavlovia","151","452740","0.0-115.0","CKN_144","144","","","","","","","","","","","","","","","","","","",""
"pavlovia","152","452753","0.0-116.0","CKN_144","144","","","","","","","","","","","","","","","","","","",""
"html-audio-button-response","153","457271","0.0-117.0","CKN_144","144","","","","","","4651","stimuli/tada.m4a","0","","","","","","","","","","",""
"html-button-response","154","457856","0.0-118.0","CKN_144","144","","","","","","578","","0","","","","","","","","","","",""
"html-button-response","155","459179","0.0-119.0","CKN_144","144","","","","","","1313","","0","neonyellow","mustard","[""neonyellow"",""mustard"",""low nameability""]","right-left","[""mustard"",""neonyellow""]","4","low nameability","31","right","trigger",""
"html-button-response","156","460466","0.0-120.0-0.0","CKN_144","144","","","","","","1275","<button class=""jspsych-btn""><img src=""stimuli/neonyellow.png"" style=""width: 200px;height: 200px;""></button>","1","neonyellow","mustard","[""neonyellow"",""mustard"",""low nameability""]","right-left","[""mustard"",""neonyellow""]","4","low nameability","31","right","response","1"
"html-audio-button-response","157","460677","0.0-120.0-1.0","CKN_144","144","","","","","","null","stimuli/bleep.m4a","null","neonyellow","mustard","[""neonyellow"",""mustard"",""low nameability""]","right-left","[""mustard"",""neonyellow""]","4","low nameability","31","right","audio_feedback","1"
"html-button-response","158","461205","0.0-121.0","CKN_144","144","","","","","","null","<button class=""jspsych-btn""><img src=""stimuli/white_square.png"" style=""width: 200px;height: 200px;""></button>","null","neonyellow","mustard","[""neonyellow"",""mustard"",""low nameability""]","right-left","[""mustard"",""neonyellow""]","4","low nameability","31","right","iti",""
"html-button-response","159","462465","0.0-122.0","CKN_144","144","","","","","","1236","","0","neonyellow","lightred","[""neonyellow"",""lightred"",""low nameability""]","left-right","[""neonyellow"",""lightred"",""low nameability""]","4","low nameability","32","left","trigger",""
"html-button-response","160","463561","0.0-123.0-0.0","CKN_144","144","","","","","","1085","<button class=""jspsych-btn""><img src=""stimuli/neonyellow.png"" style=""width: 200px;height: 200px;""></button>","1","neonyellow","lightred","[""neonyellow"",""lightred"",""low nameability""]","left-right","[""neonyellow"",""lightred"",""low nameability""]","4","low nameability","32","left","response","0"
"html-audio-button-response","161","464201","0.0-123.0-1.0","CKN_144","144","","","","","","null","stimuli/boing.m4a","null","neonyellow","lightred","[""neonyellow"",""lightred"",""low nameability""]","left-right","[""neonyellow"",""lightred"",""low nameability""]","4","low nameability","32","left","audio_feedback","0"
"html-button-response","162","467088","0.0-123.1-0.1","CKN_144","144","","","","","","2830","<button class=""jspsych-btn""><img src=""stimuli/neonyellow.png"" style=""width: 200px;height: 200px;""></button>","0","neonyellow","lightred","[""neonyellow"",""lightred"",""low nameability""]","left-right","[""neonyellow"",""lightred"",""low nameability""]","4","low nameability","32","left","response","1"
"html-audio-button-response","163","467306","0.0-123.1-1.1","CKN_144","144","","","","","","null","stimuli/bleep.m4a","null","neonyellow","lightred","[""neonyellow"",""lightred"",""low nameability""]","left-right","[""neonyellow"",""lightred"",""low nameability""]","4","low nameability","32","left","audio_feedback","1"
"html-button-response","164","467843","0.0-124.0","CKN_144","144","","","","","","null","<button class=""jspsych-btn""><img src=""stimuli/white_square.png"" style=""width: 200px;height: 200px;""></button>","null","neonyellow","lightred","[""neonyellow"",""lightred"",""low nameability""]","left-right","[""neonyellow"",""lightred"",""low nameability""]","4","low nameability","32","left","iti",""
"html-button-response","165","469801","0.0-125.0","CKN_144","144","","","","","","1931","","0","darkgreenblue","mustard","[""darkgreenblue"",""mustard"",""low nameability""]","left-right","[""darkgreenblue"",""mustard"",""low nameability""]","4","low nameability","33","left","trigger",""
"html-button-response","166","471923","0.0-126.0-0.0","CKN_144","144","","","","","","2104","<button class=""jspsych-btn""><img src=""stimuli/darkgreenblue.png"" style=""width: 200px;height: 200px;""></button>","0","darkgreenblue","mustard","[""darkgreenblue"",""mustard"",""low nameability""]","left-right","[""darkgreenblue"",""mustard"",""low nameability""]","4","low nameability","33","left","response","1"
"html-audio-button-response","167","472142","0.0-126.0-1.0","CKN_144","144","","","","","","null","stimuli/bleep.m4a","null","darkgreenblue","mustard","[""darkgreenblue"",""mustard"",""low nameability""]","left-right","[""darkgreenblue"",""mustard"",""low nameability""]","4","low nameability","33","left","audio_feedback","1"
"html-button-response","168","472679","0.0-127.0","CKN_144","144","","","","","","null","<button class=""jspsych-btn""><img src=""stimuli/white_square.png"" style=""width: 200px;height: 200px;""></button>","null","darkgreenblue","mustard","[""darkgreenblue"",""mustard"",""low nameability""]","left-right","[""darkgreenblue"",""mustard"",""low nameability""]","4","low nameability","33","left","iti",""
"html-button-response","169","474147","0.0-128.0","CKN_144","144","","","","","","1442","","0","purple","orange","[""purple"",""orange"",""high nameability""]","left-right","[""purple"",""orange"",""high nameability""]","4","high nameability","34","left","trigger",""
"html-button-response","170","475545","0.0-129.0-0.0","CKN_144","144","","","","","","1385","<button class=""jspsych-btn""><img src=""stimuli/purple.png"" style=""width: 200px;height: 200px;""></button>","0","purple","orange","[""purple"",""orange"",""high nameability""]","left-right","[""purple"",""orange"",""high nameability""]","4","high nameability","34","left","response","1"
"html-audio-button-response","171","475766","0.0-129.0-1.0","CKN_144","144","","","","","","null","stimuli/bleep.m4a","null","purple","orange","[""purple"",""orange"",""high nameability""]","left-right","[""purple"",""orange"",""high nameability""]","4","high nameability","34","left","audio_feedback","1"
"html-button-response","172","476290","0.0-130.0","CKN_144","144","","","","","","null","<button class=""jspsych-btn""><img src=""stimuli/white_square.png"" style=""width: 200px;height: 200px;""></button>","null","purple","orange","[""purple"",""orange"",""high nameability""]","left-right","[""purple"",""orange"",""high nameability""]","4","high nameability","34","left","iti",""
"html-button-response","173","477075","0.0-131.0","CKN_144","144","","","","","","771","","0","blue","yellow","[""blue"",""yellow"",""high nameability""]","left-right","[""blue"",""yellow"",""high nameability""]","4","high nameability","35","left","trigger",""
"html-button-response","174","478722","0.0-132.0-0.0","CKN_144","144","","","","","","1632","<button class=""jspsych-btn""><img src=""stimuli/blue.png"" style=""width: 200px;height: 200px;""></button>","0","blue","yellow","[""blue"",""yellow"",""high nameability""]","left-right","[""blue"",""yellow"",""high nameability""]","4","high nameability","35","left","response","1"
"html-audio-button-response","175","478941","0.0-132.0-1.0","CKN_144","144","","","","","","null","stimuli/bleep.m4a","null","blue","yellow","[""blue"",""yellow"",""high nameability""]","left-right","[""blue"",""yellow"",""high nameability""]","4","high nameability","35","left","audio_feedback","1"
"html-button-response","176","479461","0.0-133.0","CKN_144","144","","","","","","null","<button class=""jspsych-btn""><img src=""stimuli/white_square.png"" style=""width: 200px;height: 200px;""></button>","null","blue","yellow","[""blue"",""yellow"",""high nameability""]","left-right","[""blue"",""yellow"",""high nameability""]","4","high nameability","35","left","iti",""
"html-button-response","177","481375","0.0-134.0","CKN_144","144","","","","","","1889","","0","mustard","darkgreenblue","[""mustard"",""darkgreenblue"",""low nameability""]","right-left","[""darkgreenblue"",""mustard""]","4","low nameability","36","right","trigger",""
"html-button-response","178","485133","0.0-135.0-0.0","CKN_144","144","","","","","","3748","<button class=""jspsych-btn""><img src=""stimuli/mustard.png"" style=""width: 200px;height: 200px;""></button>","1","mustard","darkgreenblue","[""mustard"",""darkgreenblue"",""low nameability""]","right-left","[""darkgreenblue"",""mustard""]","4","low nameability","36","right","response","1"
"html-audio-button-response","179","485338","0.0-135.0-1.0","CKN_144","144","","","","","","null","stimuli/bleep.m4a","null","mustard","darkgreenblue","[""mustard"",""darkgreenblue"",""low nameability""]","right-left","[""darkgreenblue"",""mustard""]","4","low nameability","36","right","audio_feedback","1"
"html-button-response","180","485860","0.0-136.0","CKN_144","144","","","","","","null","<button class=""jspsych-btn""><img src=""stimuli/white_square.png"" style=""width: 200px;height: 200px;""></button>","null","mustard","darkgreenblue","[""mustard"",""darkgreenblue"",""low nameability""]","right-left","[""darkgreenblue"",""mustard""]","4","low nameability","36","right","iti",""
"html-button-response","181","487828","0.0-137.0","CKN_144","144","","","","","","1953","","0","neonyellow","turquoise","[""neonyellow"",""turquoise"",""low nameability""]","right-left","[""turquoise"",""neonyellow""]","4","low nameability","37","right","trigger",""
"html-button-response","182","489186","0.0-138.0-0.0","CKN_144","144","","","","","","1348","<button class=""jspsych-btn""><img src=""stimuli/neonyellow.png"" style=""width: 200px;height: 200px;""></button>","1","neonyellow","turquoise","[""neonyellow"",""turquoise"",""low nameability""]","right-left","[""turquoise"",""neonyellow""]","4","low nameability","37","right","response","1"
"html-audio-button-response","183","489401","0.0-138.0-1.0","CKN_144","144","","","","","","null","stimuli/bleep.m4a","null","neonyellow","turquoise","[""neonyellow"",""turquoise"",""low nameability""]","right-left","[""turquoise"",""neonyellow""]","4","low nameability","37","right","audio_feedback","1"
"html-button-response","184","489920","0.0-139.0","CKN_144","144","","","","","","null","<button class=""jspsych-btn""><img src=""stimuli/white_square.png"" style=""width: 200px;height: 200px;""></button>","null","neonyellow","turquoise","[""neonyellow"",""turquoise"",""low nameability""]","right-left","[""turquoise"",""neonyellow""]","4","low nameability","37","right","iti",""
"html-button-response","185","491156","0.0-140.0","CKN_144","144","","","","","","1214","","0","red","orange","[""red"",""orange"",""high nameability""]","right-left","[""orange"",""red""]","4","high nameability","38","right","trigger",""
"html-button-response","186","492506","0.0-141.0-0.0","CKN_144","144","","","","","","1339","<button class=""jspsych-btn""><img src=""stimuli/red.png"" style=""width: 200px;height: 200px;""></button>","1","red","orange","[""red"",""orange"",""high nameability""]","right-left","[""orange"",""red""]","4","high nameability","38","right","response","1"
"html-audio-button-response","187","492718","0.0-141.0-1.0","CKN_144","144","","","","","","null","stimuli/bleep.m4a","null","red","orange","[""red"",""orange"",""high nameability""]","right-left","[""orange"",""red""]","4","high nameability","38","right","audio_feedback","1"
"html-button-response","188","493236","0.0-142.0","CKN_144","144","","","","","","null","<button class=""jspsych-btn""><img src=""stimuli/white_square.png"" style=""width: 200px;height: 200px;""></button>","null","red","orange","[""red"",""orange"",""high nameability""]","right-left","[""orange"",""red""]","4","high nameability","38","right","iti",""
"html-button-response","189","496311","0.0-143.0","CKN_144","144","","","","","","3051","","0","lightred","darkgreenblue","[""lightred"",""darkgreenblue"",""low nameability""]","right-left","[""darkgreenblue"",""lightred""]","4","low nameability","39","right","trigger",""
"html-button-response","190","499180","0.0-144.0-0.0","CKN_144","144","","","","","","2860","<button class=""jspsych-btn""><img src=""stimuli/lightred.png"" style=""width: 200px;height: 200px;""></button>","1","lightred","darkgreenblue","[""lightred"",""darkgreenblue"",""low nameability""]","right-left","[""darkgreenblue"",""lightred""]","4","low nameability","39","right","response","1"
"html-audio-button-response","191","499389","0.0-144.0-1.0","CKN_144","144","","","","","","null","stimuli/bleep.m4a","null","lightred","darkgreenblue","[""lightred"",""darkgreenblue"",""low nameability""]","right-left","[""darkgreenblue"",""lightred""]","4","low nameability","39","right","audio_feedback","1"
"html-button-response","192","499908","0.0-145.0","CKN_144","144","","","","","","null","<button class=""jspsych-btn""><img src=""stimuli/white_square.png"" style=""width: 200px;height: 200px;""></button>","null","lightred","darkgreenblue","[""lightred"",""darkgreenblue"",""low nameability""]","right-left","[""darkgreenblue"",""lightred""]","4","low nameability","39","right","iti",""
"html-button-response","193","500962","0.0-146.0","CKN_144","144","","","","","","1029","","0","purple","red","[""purple"",""red"",""high nameability""]","right-left","[""red"",""purple""]","4","high nameability","40","right","trigger",""
"html-button-response","194","502816","0.0-147.0-0.0","CKN_144","144","","","","","","1843","<button class=""jspsych-btn""><img src=""stimuli/purple.png"" style=""width: 200px;height: 200px;""></button>","1","purple","red","[""purple"",""red"",""high nameability""]","right-left","[""red"",""purple""]","4","high nameability","40","right","response","1"
"html-audio-button-response","195","503026","0.0-147.0-1.0","CKN_144","144","","","","","","null","stimuli/bleep.m4a","null","purple","red","[""purple"",""red"",""high nameability""]","right-left","[""red"",""purple""]","4","high nameability","40","right","audio_feedback","1"
"html-button-response","196","503545","0.0-148.0","CKN_144","144","","","","","","null","<button class=""jspsych-btn""><img src=""stimuli/white_square.png"" style=""width: 200px;height: 200px;""></button>","null","purple","red","[""purple"",""red"",""high nameability""]","right-left","[""red"",""purple""]","4","high nameability","40","right","iti",""
"pavlovia","197","503682","0.0-149.0","CKN_144","144","","","","","","","","","","","","","","","","","","",""
"pavlovia","198","503696","0.0-150.0","CKN_144","144","","","","","","","","","","","","","","","","","","",""
"html-audio-button-response","199","508497","0.0-151.0","CKN_144","144","","","","","","4949","stimuli/tada.m4a","0","","","","","","","","","","",""
"html-button-response","200","508951","0.0-152.0","CKN_144","144","","","","","","445","","0","","","","","","","","","","",""
"html-button-response","201","510572","0.0-153.0","CKN_144","144","","","","","","1612","","0","red","yellow","[""red"",""yellow"",""high nameability""]","right-left","[""yellow"",""red""]","5","high nameability","41","right","trigger",""
"html-button-response","202","511800","0.0-154.0-0.0","CKN_144","144","","","","","","1214","<button class=""jspsych-btn""><img src=""stimuli/red.png"" style=""width: 200px;height: 200px;""></button>","1","red","yellow","[""red"",""yellow"",""high nameability""]","right-left","[""yellow"",""red""]","5","high nameability","41","right","response","1"
"html-audio-button-response","203","512010","0.0-154.0-1.0","CKN_144","144","","","","","","null","stimuli/bleep.m4a","null","red","yellow","[""red"",""yellow"",""high nameability""]","right-left","[""yellow"",""red""]","5","high nameability","41","right","audio_feedback","1"
"html-button-response","204","512527","0.0-155.0","CKN_144","144","","","","","","null","<button class=""jspsych-btn""><img src=""stimuli/white_square.png"" style=""width: 200px;height: 200px;""></button>","null","red","yellow","[""red"",""yellow"",""high nameability""]","right-left","[""yellow"",""red""]","5","high nameability","41","right","iti",""
"html-button-response","205","513451","0.0-156.0","CKN_144","144","","","","","","904","","0","turquoise","lightred","[""turquoise"",""lightred"",""low nameability""]","left-right","[""turquoise"",""lightred"",""low nameability""]","5","low nameability","42","left","trigger",""
"html-button-response","206","514428","0.0-157.0-0.0","CKN_144","144","","","","","","968","<button class=""jspsych-btn""><img src=""stimuli/turquoise.png"" style=""width: 200px;height: 200px;""></button>","1","turquoise","lightred","[""turquoise"",""lightred"",""low nameability""]","left-right","[""turquoise"",""lightred"",""low nameability""]","5","low nameability","42","left","response","0"
"html-audio-button-response","207","515065","0.0-157.0-1.0","CKN_144","144","","","","","","null","stimuli/boing.m4a","null","turquoise","lightred","[""turquoise"",""lightred"",""low nameability""]","left-right","[""turquoise"",""lightred"",""low nameability""]","5","low nameability","42","left","audio_feedback","0"
"html-button-response","208","515836","0.0-157.1-0.1","CKN_144","144","","","","","","737","<button class=""jspsych-btn""><img src=""stimuli/turquoise.png"" style=""width: 200px;height: 200px;""></button>","0","turquoise","lightred","[""turquoise"",""lightred"",""low nameability""]","left-right","[""turquoise"",""lightred"",""low nameability""]","5","low nameability","42","left","response","1"
"html-audio-button-response","209","516046","0.0-157.1-1.1","CKN_144","144","","","","","","null","stimuli/bleep.m4a","null","turquoise","lightred","[""turquoise"",""lightred"",""low nameability""]","left-right","[""turquoise"",""lightred"",""low nameability""]","5","low nameability","42","left","audio_feedback","1"
"html-button-response","210","516569","0.0-158.0","CKN_144","144","","","","","","null","<button class=""jspsych-btn""><img src=""stimuli/white_square.png"" style=""width: 200px;height: 200px;""></button>","null","turquoise","lightred","[""turquoise"",""lightred"",""low nameability""]","left-right","[""turquoise"",""lightred"",""low nameability""]","5","low nameability","42","left","iti",""
"html-button-response","211","519335","0.0-159.0","CKN_144","144","","","","","","2750","","0","lightred","neonyellow","[""lightred"",""neonyellow"",""low nameability""]","left-right","[""lightred"",""neonyellow"",""low nameability""]","5","low nameability","43","left","trigger",""
"html-button-response","212","521226","0.0-160.0-0.0","CKN_144","144","","","","","","1881","<button class=""jspsych-btn""><img src=""stimuli/lightred.png"" style=""width: 200px;height: 200px;""></button>","0","lightred","neonyellow","[""lightred"",""neonyellow"",""low nameability""]","left-right","[""lightred"",""neonyellow"",""low nameability""]","5","low nameability","43","left","response","1"
"html-audio-button-response","213","521435","0.0-160.0-1.0","CKN_144","144","","","","","","null","stimuli/bleep.m4a","null","lightred","neonyellow","[""lightred"",""neonyellow"",""low nameability""]","left-right","[""lightred"",""neonyellow"",""low nameability""]","5","low nameability","43","left","audio_feedback","1"
"html-button-response","214","521952","0.0-161.0","CKN_144","144","","","","","","null","<button class=""jspsych-btn""><img src=""stimuli/white_square.png"" style=""width: 200px;height: 200px;""></button>","null","lightred","neonyellow","[""lightred"",""neonyellow"",""low nameability""]","left-right","[""lightred"",""neonyellow"",""low nameability""]","5","low nameability","43","left","iti",""
"html-button-response","215","522931","0.0-162.0","CKN_144","144","","","","","","966","","0","pink","turquoise","[""pink"",""turquoise"",""low nameability""]","left-right","[""pink"",""turquoise"",""low nameability""]","5","low nameability","44","left","trigger",""
"html-button-response","216","525164","0.0-163.0-0.0","CKN_144","144","","","","","","2225","<button class=""jspsych-btn""><img src=""stimuli/pink.png"" style=""width: 200px;height: 200px;""></button>","0","pink","turquoise","[""pink"",""turquoise"",""low nameability""]","left-right","[""pink"",""turquoise"",""low nameability""]","5","low nameability","44","left","response","1"
"html-audio-button-response","217","525378","0.0-163.0-1.0","CKN_144","144","","","","","","null","stimuli/bleep.m4a","null","pink","turquoise","[""pink"",""turquoise"",""low nameability""]","left-right","[""pink"",""turquoise"",""low nameability""]","5","low nameability","44","left","audio_feedback","1"
"html-button-response","218","525905","0.0-164.0","CKN_144","144","","","","","","null","<button class=""jspsych-btn""><img src=""stimuli/white_square.png"" style=""width: 200px;height: 200px;""></button>","null","pink","turquoise","[""pink"",""turquoise"",""low nameability""]","left-right","[""pink"",""turquoise"",""low nameability""]","5","low nameability","44","left","iti",""
"html-button-response","219","526307","0.0-165.0","CKN_144","144","","","","","","382","","0","mustard","neonyellow","[""mustard"",""neonyellow"",""low nameability""]","left-right","[""mustard"",""neonyellow"",""low nameability""]","5","low nameability","45","left","trigger",""
"html-button-response","220","527787","0.0-166.0-0.0","CKN_144","144","","","","","","1471","<button class=""jspsych-btn""><img src=""stimuli/mustard.png"" style=""width: 200px;height: 200px;""></button>","0","mustard","neonyellow","[""mustard"",""neonyellow"",""low nameability""]","left-right","[""mustard"",""neonyellow"",""low nameability""]","5","low nameability","45","left","response","1"
"html-audio-button-response","221","528005","0.0-166.0-1.0","CKN_144","144","","","","","","null","stimuli/bleep.m4a","null","mustard","neonyellow","[""mustard"",""neonyellow"",""low nameability""]","left-right","[""mustard"",""neonyellow"",""low nameability""]","5","low nameability","45","left","audio_feedback","1"
"html-button-response","222","528551","0.0-167.0","CKN_144","144","","","","","","null","<button class=""jspsych-btn""><img src=""stimuli/white_square.png"" style=""width: 200px;height: 200px;""></button>","null","mustard","neonyellow","[""mustard"",""neonyellow"",""low nameability""]","left-right","[""mustard"",""neonyellow"",""low nameability""]","5","low nameability","45","left","iti",""
"html-button-response","223","529459","0.0-168.0","CKN_144","144","","","","","","873","","0","darkgreenblue","lightred","[""darkgreenblue"",""lightred"",""low nameability""]","right-left","[""lightred"",""darkgreenblue""]","5","low nameability","46","right","trigger",""
"html-button-response","224","534417","0.0-169.0-0.0","CKN_144","144","","","","","","4941","<button class=""jspsych-btn""><img src=""stimuli/darkgreenblue.png"" style=""width: 200px;height: 200px;""></button>","1","darkgreenblue","lightred","[""darkgreenblue"",""lightred"",""low nameability""]","right-left","[""lightred"",""darkgreenblue""]","5","low nameability","46","right","response","1"
"html-audio-button-response","225","534649","0.0-169.0-1.0","CKN_144","144","","","","","","null","stimuli/bleep.m4a","null","darkgreenblue","lightred","[""darkgreenblue"",""lightred"",""low nameability""]","right-left","[""lightred"",""darkgreenblue""]","5","low nameability","46","right","audio_feedback","1"
"html-button-response","226","535173","0.0-170.0","CKN_144","144","","","","","","null","<button class=""jspsych-btn""><img src=""stimuli/white_square.png"" style=""width: 200px;height: 200px;""></button>","null","darkgreenblue","lightred","[""darkgreenblue"",""lightred"",""low nameability""]","right-left","[""lightred"",""darkgreenblue""]","5","low nameability","46","right","iti",""
"html-button-response","227","537025","0.0-171.0","CKN_144","144","","","","","","1822","","0","purple","brown","[""purple"",""brown"",""high nameability""]","right-left","[""brown"",""purple""]","5","high nameability","47","right","trigger",""
"html-button-response","228","538520","0.0-172.0-0.0","CKN_144","144","","","","","","1476","<button class=""jspsych-btn""><img src=""stimuli/purple.png"" style=""width: 200px;height: 200px;""></button>","1","purple","brown","[""purple"",""brown"",""high nameability""]","right-left","[""brown"",""purple""]","5","high nameability","47","right","response","1"
"html-audio-button-response","229","538767","0.0-172.0-1.0","CKN_144","144","","","","","","null","stimuli/bleep.m4a","null","purple","brown","[""purple"",""brown"",""high nameability""]","right-left","[""brown"",""purple""]","5","high nameability","47","right","audio_feedback","1"
"html-button-response","230","539288","0.0-173.0","CKN_144","144","","","","","","null","<button class=""jspsych-btn""><img src=""stimuli/white_square.png"" style=""width: 200px;height: 200px;""></button>","null","purple","brown","[""purple"",""brown"",""high nameability""]","right-left","[""brown"",""purple""]","5","high nameability","47","right","iti",""
"html-button-response","231","544461","0.0-174.0","CKN_144","144","","","","","","5150","","0","blue","orange","[""blue"",""orange"",""high nameability""]","left-right","[""blue"",""orange"",""high nameability""]","5","high nameability","48","left","trigger",""
"html-button-response","232","546302","0.0-175.0-0.0","CKN_144","144","","","","","","1832","<button class=""jspsych-btn""><img src=""stimuli/blue.png"" style=""width: 200px;height: 200px;""></button>","0","blue","orange","[""blue"",""orange"",""high nameability""]","left-right","[""blue"",""orange"",""high nameability""]","5","high nameability","48","left","response","1"
"html-audio-button-response","233","546522","0.0-175.0-1.0","CKN_144","144","","","","","","null","stimuli/bleep.m4a","null","blue","orange","[""blue"",""orange"",""high nameability""]","left-right","[""blue"",""orange"",""high nameability""]","5","high nameability","48","left","audio_feedback","1"
"html-button-response","234","547045","0.0-176.0","CKN_144","144","","","","","","null","<button class=""jspsych-btn""><img src=""stimuli/white_square.png"" style=""width: 200px;height: 200px;""></button>","null","blue","orange","[""blue"",""orange"",""high nameability""]","left-right","[""blue"",""orange"",""high nameability""]","5","high nameability","48","left","iti",""
"html-button-response","235","550156","0.0-177.0","CKN_144","144","","","","","","3090","","0","orange","brown","[""orange"",""brown"",""high nameability""]","left-right","[""orange"",""brown"",""high nameability""]","5","high nameability","49","left","trigger",""
"html-button-response","236","551567","0.0-178.0-0.0","CKN_144","144","","","","","","1401","<button class=""jspsych-btn""><img src=""stimuli/orange.png"" style=""width: 200px;height: 200px;""></button>","0","orange","brown","[""orange"",""brown"",""high nameability""]","left-right","[""orange"",""brown"",""high nameability""]","5","high nameability","49","left","response","1"
"html-audio-button-response","237","551788","0.0-178.0-1.0","CKN_144","144","","","","","","null","stimuli/bleep.m4a","null","orange","brown","[""orange"",""brown"",""high nameability""]","left-right","[""orange"",""brown"",""high nameability""]","5","high nameability","49","left","audio_feedback","1"
"html-button-response","238","552315","0.0-179.0","CKN_144","144","","","","","","null","<button class=""jspsych-btn""><img src=""stimuli/white_square.png"" style=""width: 200px;height: 200px;""></button>","null","orange","brown","[""orange"",""brown"",""high nameability""]","left-right","[""orange"",""brown"",""high nameability""]","5","high nameability","49","left","iti",""
"html-button-response","239","553228","0.0-180.0","CKN_144","144","","","","","","890","","0","brown","blue","[""brown"",""blue"",""high nameability""]","left-right","[""brown"",""blue"",""high nameability""]","5","high nameability","50","left","trigger",""
"html-button-response","240","554730","0.0-181.0-0.0","CKN_144","144","","","","","","1484","<button class=""jspsych-btn""><img src=""stimuli/brown.png"" style=""width: 200px;height: 200px;""></button>","0","brown","blue","[""brown"",""blue"",""high nameability""]","left-right","[""brown"",""blue"",""high nameability""]","5","high nameability","50","left","response","1"
"html-audio-button-response","241","554938","0.0-181.0-1.0","CKN_144","144","","","","","","null","stimuli/bleep.m4a","null","brown","blue","[""brown"",""blue"",""high nameability""]","left-right","[""brown"",""blue"",""high nameability""]","5","high nameability","50","left","audio_feedback","1"
"html-button-response","242","555462","0.0-182.0","CKN_144","144","","","","","","null","<button class=""jspsych-btn""><img src=""stimuli/white_square.png"" style=""width: 200px;height: 200px;""></button>","null","brown","blue","[""brown"",""blue"",""high nameability""]","left-right","[""brown"",""blue"",""high nameability""]","5","high nameability","50","left","iti",""
"pavlovia","243","555579","0.0-183.0","CKN_144","144","","","","","","","","","","","","","","","","","","",""
"pavlovia","244","555596","0.0-184.0","CKN_144","144","","","","","","","","","","","","","","","","","","",""
"html-audio-button-response","245","560461","0.0-185.0","CKN_144","144","","","","","","4995","stimuli/tada.m4a","0","","","","","","","","","","",""
"html-button-response","246","561037","0.0-186.0","CKN_144","144","","","","","","569","","0","","","","","","","","","","",""
"html-button-response","247","562594","0.0-187.0","CKN_144","144","","","","","","1549","","0","red","brown","[""red"",""brown"",""high nameability""]","right-left","[""brown"",""red""]","6","high nameability","51","right","trigger",""
"html-button-response","248","563915","0.0-188.0-0.0","CKN_144","144","","","","","","1311","<button class=""jspsych-btn""><img src=""stimuli/red.png"" style=""width: 200px;height: 200px;""></button>","1","red","brown","[""red"",""brown"",""high nameability""]","right-left","[""brown"",""red""]","6","high nameability","51","right","response","1"
"html-audio-button-response","249","564126","0.0-188.0-1.0","CKN_144","144","","","","","","null","stimuli/bleep.m4a","null","red","brown","[""red"",""brown"",""high nameability""]","right-left","[""brown"",""red""]","6","high nameability","51","right","audio_feedback","1"
"html-button-response","250","564660","0.0-189.0","CKN_144","144","","","","","","null","<button class=""jspsych-btn""><img src=""stimuli/white_square.png"" style=""width: 200px;height: 200px;""></button>","null","red","brown","[""red"",""brown"",""high nameability""]","right-left","[""brown"",""red""]","6","high nameability","51","right","iti",""
"html-button-response","251","566513","0.0-190.0","CKN_144","144","","","","","","1829","","0","yellow","purple","[""yellow"",""purple"",""high nameability""]","left-right","[""yellow"",""purple"",""high nameability""]","6","high nameability","52","left","trigger",""
"html-button-response","252","568005","0.0-191.0-0.0","CKN_144","144","","","","","","1481","<button class=""jspsych-btn""><img src=""stimuli/yellow.png"" style=""width: 200px;height: 200px;""></button>","0","yellow","purple","[""yellow"",""purple"",""high nameability""]","left-right","[""yellow"",""purple"",""high nameability""]","6","high nameability","52","left","response","1"
"html-audio-button-response","253","568217","0.0-191.0-1.0","CKN_144","144","","","","","","null","stimuli/bleep.m4a","null","yellow","purple","[""yellow"",""purple"",""high nameability""]","left-right","[""yellow"",""purple"",""high nameability""]","6","high nameability","52","left","audio_feedback","1"
"html-button-response","254","568741","0.0-192.0","CKN_144","144","","","","","","null","<button class=""jspsych-btn""><img src=""stimuli/white_square.png"" style=""width: 200px;height: 200px;""></button>","null","yellow","purple","[""yellow"",""purple"",""high nameability""]","left-right","[""yellow"",""purple"",""high nameability""]","6","high nameability","52","left","iti",""
"html-button-response","255","569727","0.0-193.0","CKN_144","144","","","","","","964","","0","turquoise","darkgreenblue","[""turquoise"",""darkgreenblue"",""low nameability""]","right-left","[""darkgreenblue"",""turquoise""]","6","low nameability","53","right","trigger",""
"html-button-response","256","570965","0.0-194.0-0.0","CKN_144","144","","","","","","1223","<button class=""jspsych-btn""><img src=""stimuli/turquoise.png"" style=""width: 200px;height: 200px;""></button>","1","turquoise","darkgreenblue","[""turquoise"",""darkgreenblue"",""low nameability""]","right-left","[""darkgreenblue"",""turquoise""]","6","low nameability","53","right","response","1"
"html-audio-button-response","257","571177","0.0-194.0-1.0","CKN_144","144","","","","","","null","stimuli/bleep.m4a","null","turquoise","darkgreenblue","[""turquoise"",""darkgreenblue"",""low nameability""]","right-left","[""darkgreenblue"",""turquoise""]","6","low nameability","53","right","audio_feedback","1"
"html-button-response","258","571693","0.0-195.0","CKN_144","144","","","","","","null","<button class=""jspsych-btn""><img src=""stimuli/white_square.png"" style=""width: 200px;height: 200px;""></button>","null","turquoise","darkgreenblue","[""turquoise"",""darkgreenblue"",""low nameability""]","right-left","[""darkgreenblue"",""turquoise""]","6","low nameability","53","right","iti",""
"html-button-response","259","574701","0.0-196.0","CKN_144","144","","","","","","2988","","0","blue","brown","[""blue"",""brown"",""high nameability""]","right-left","[""brown"",""blue""]","6","high nameability","54","right","trigger",""
"html-button-response","260","576182","0.0-197.0-0.0","CKN_144","144","","","","","","1470","<button class=""jspsych-btn""><img src=""stimuli/blue.png"" style=""width: 200px;height: 200px;""></button>","1","blue","brown","[""blue"",""brown"",""high nameability""]","right-left","[""brown"",""blue""]","6","high nameability","54","right","response","1"
"html-audio-button-response","261","576398","0.0-197.0-1.0","CKN_144","144","","","","","","null","stimuli/bleep.m4a","null","blue","brown","[""blue"",""brown"",""high nameability""]","right-left","[""brown"",""blue""]","6","high nameability","54","right","audio_feedback","1"
"html-button-response","262","576920","0.0-198.0","CKN_144","144","","","","","","null","<button class=""jspsych-btn""><img src=""stimuli/white_square.png"" style=""width: 200px;height: 200px;""></button>","null","blue","brown","[""blue"",""brown"",""high nameability""]","right-left","[""brown"",""blue""]","6","high nameability","54","right","iti",""
"html-button-response","263","577976","0.0-199.0","CKN_144","144","","","","","","1025","","0","lightred","mustard","[""lightred"",""mustard"",""low nameability""]","left-right","[""lightred"",""mustard"",""low nameability""]","6","low nameability","55","left","trigger",""
"html-button-response","264","579636","0.0-200.0-0.0","CKN_144","144","","","","","","1645","<button class=""jspsych-btn""><img src=""stimuli/lightred.png"" style=""width: 200px;height: 200px;""></button>","0","lightred","mustard","[""lightred"",""mustard"",""low nameability""]","left-right","[""lightred"",""mustard"",""low nameability""]","6","low nameability","55","left","response","1"
"html-audio-button-response","265","579846","0.0-200.0-1.0","CKN_144","144","","","","","","null","stimuli/bleep.m4a","null","lightred","mustard","[""lightred"",""mustard"",""low nameability""]","left-right","[""lightred"",""mustard"",""low nameability""]","6","low nameability","55","left","audio_feedback","1"
"html-button-response","266","580365","0.0-201.0","CKN_144","144","","","","","","null","<button class=""jspsych-btn""><img src=""stimuli/white_square.png"" style=""width: 200px;height: 200px;""></button>","null","lightred","mustard","[""lightred"",""mustard"",""low nameability""]","left-right","[""lightred"",""mustard"",""low nameability""]","6","low nameability","55","left","iti",""
"html-button-response","267","581320","0.0-202.0","CKN_144","144","","","","","","938","","0","mustard","turquoise","[""mustard"",""turquoise"",""low nameability""]","right-left","[""turquoise"",""mustard""]","6","low nameability","56","right","trigger",""
"html-button-response","268","582902","0.0-203.0-0.0","CKN_144","144","","","","","","1570","<button class=""jspsych-btn""><img src=""stimuli/mustard.png"" style=""width: 200px;height: 200px;""></button>","1","mustard","turquoise","[""mustard"",""turquoise"",""low nameability""]","right-left","[""turquoise"",""mustard""]","6","low nameability","56","right","response","1"
"html-audio-button-response","269","583117","0.0-203.0-1.0","CKN_144","144","","","","","","null","stimuli/bleep.m4a","null","mustard","turquoise","[""mustard"",""turquoise"",""low nameability""]","right-left","[""turquoise"",""mustard""]","6","low nameability","56","right","audio_feedback","1"
"html-button-response","270","583643","0.0-204.0","CKN_144","144","","","","","","null","<button class=""jspsych-btn""><img src=""stimuli/white_square.png"" style=""width: 200px;height: 200px;""></button>","null","mustard","turquoise","[""mustard"",""turquoise"",""low nameability""]","right-left","[""turquoise"",""mustard""]","6","low nameability","56","right","iti",""
"html-button-response","271","585594","0.0-205.0","CKN_144","144","","","","","","1933","","0","brown","yellow","[""brown"",""yellow"",""high nameability""]","right-left","[""yellow"",""brown""]","6","high nameability","57","right","trigger",""
"html-button-response","272","587052","0.0-206.0-0.0","CKN_144","144","","","","","","1443","<button class=""jspsych-btn""><img src=""stimuli/brown.png"" style=""width: 200px;height: 200px;""></button>","1","brown","yellow","[""brown"",""yellow"",""high nameability""]","right-left","[""yellow"",""brown""]","6","high nameability","57","right","response","1"
"html-audio-button-response","273","587261","0.0-206.0-1.0","CKN_144","144","","","","","","null","stimuli/bleep.m4a","null","brown","yellow","[""brown"",""yellow"",""high nameability""]","right-left","[""yellow"",""brown""]","6","high nameability","57","right","audio_feedback","1"
"html-button-response","274","587784","0.0-207.0","CKN_144","144","","","","","","null","<button class=""jspsych-btn""><img src=""stimuli/white_square.png"" style=""width: 200px;height: 200px;""></button>","null","brown","yellow","[""brown"",""yellow"",""high nameability""]","right-left","[""yellow"",""brown""]","6","high nameability","57","right","iti",""
"html-button-response","275","588761","0.0-208.0","CKN_144","144","","","","","","956","","0","turquoise","neonyellow","[""turquoise"",""neonyellow"",""low nameability""]","right-left","[""neonyellow"",""turquoise""]","6","low nameability","58","right","trigger",""
"html-button-response","276","591902","0.0-209.0-0.0","CKN_144","144","","","","","","3131","<button class=""jspsych-btn""><img src=""stimuli/turquoise.png"" style=""width: 200px;height: 200px;""></button>","1","turquoise","neonyellow","[""turquoise"",""neonyellow"",""low nameability""]","right-left","[""neonyellow"",""turquoise""]","6","low nameability","58","right","response","1"
"html-audio-button-response","277","592115","0.0-209.0-1.0","CKN_144","144","","","","","","null","stimuli/bleep.m4a","null","turquoise","neonyellow","[""turquoise"",""neonyellow"",""low nameability""]","right-left","[""neonyellow"",""turquoise""]","6","low nameability","58","right","audio_feedback","1"
"html-button-response","278","592643","0.0-210.0","CKN_144","144","","","","","","null","<button class=""jspsych-btn""><img src=""stimuli/white_square.png"" style=""width: 200px;height: 200px;""></button>","null","turquoise","neonyellow","[""turquoise"",""neonyellow"",""low nameability""]","right-left","[""neonyellow"",""turquoise""]","6","low nameability","58","right","iti",""
"html-button-response","279","594041","0.0-211.0","CKN_144","144","","","","","","1354","","0","red","purple","[""red"",""purple"",""high nameability""]","left-right","[""red"",""purple"",""high nameability""]","6","high nameability","59","left","trigger",""
"html-button-response","280","595829","0.0-212.0-0.0","CKN_144","144","","","","","","1758","<button class=""jspsych-btn""><img src=""stimuli/red.png"" style=""width: 200px;height: 200px;""></button>","0","red","purple","[""red"",""purple"",""high nameability""]","left-right","[""red"",""purple"",""high nameability""]","6","high nameability","59","left","response","1"
"html-audio-button-response","281","596048","0.0-212.0-1.0","CKN_144","144","","","","","","null","stimuli/bleep.m4a","null","red","purple","[""red"",""purple"",""high nameability""]","left-right","[""red"",""purple"",""high nameability""]","6","high nameability","59","left","audio_feedback","1"
"html-button-response","282","596569","0.0-213.0","CKN_144","144","","","","","","null","<button class=""jspsych-btn""><img src=""stimuli/white_square.png"" style=""width: 200px;height: 200px;""></button>","null","red","purple","[""red"",""purple"",""high nameability""]","left-right","[""red"",""purple"",""high nameability""]","6","high nameability","59","left","iti",""
"html-button-response","283","597845","0.0-214.0","CKN_144","144","","","","","","1255","","0","red","blue","[""red"",""blue"",""high nameability""]","left-right","[""red"",""blue"",""high nameability""]","6","high nameability","60","left","trigger",""
"html-button-response","284","599729","0.0-215.0-0.0","CKN_144","144","","","","","","1860","<button class=""jspsych-btn""><img src=""stimuli/red.png"" style=""width: 200px;height: 200px;""></button>","0","red","blue","[""red"",""blue"",""high nameability""]","left-right","[""red"",""blue"",""high nameability""]","6","high nameability","60","left","response","1"
"html-audio-button-response","285","599945","0.0-215.0-1.0","CKN_144","144","","","","","","null","stimuli/bleep.m4a","null","red","blue","[""red"",""blue"",""high nameability""]","left-right","[""red"",""blue"",""high nameability""]","6","high nameability","60","left","audio_feedback","1"
"html-button-response","286","600473","0.0-216.0","CKN_144","144","","","","","","null","<button class=""jspsych-btn""><img src=""stimuli/white_square.png"" style=""width: 200px;height: 200px;""></button>","null","red","blue","[""red"",""blue"",""high nameability""]","left-right","[""red"",""blue"",""high nameability""]","6","high nameability","60","left","iti",""
