"trial_type","trial_index","time_elapsed","internal_node_id","subject_id","seed","success","timeout","failed_images","failed_audio","failed_video","rt","stimulus","response","target","foil","choices","combination_order","choices_in_order","round","condition","trial_counter","target_location","trial_kind","correct"
"pavlovia","0","19","0.0-0.0","CKN_102","102","","","","","","","","","","","","","","","","","","",""
"preload","1","675","0.0-1.0","CKN_102","102","true","false","[]","[]","[]","","","","","","","","","","","","","",""
"fullscreen","2","6164","0.0-2.0","CKN_102","102","true","","","","","","","","","","","","","","","","","",""
"html-button-response","3","49103","0.0-3.0","CKN_102","102","","","","","","42915","","0","","","","","","","","","","",""
"html-button-response","4","56040","0.0-4.0","CKN_102","102","","","","","","6923","","0","star","square","[""square"",""star""]","left-right","[""square"",""star""]","1","practice","1","right","trigger",""
"html-button-response","5","61814","0.0-5.0-0.0","CKN_102","102","","","","","","5756","<button class=""jspsych-btn""><img src=""stimuli/star.png"" style=""width: 200px;height: 200px;""></button>","1","star","square","[""square"",""star""]","left-right","[""square"",""star""]","1","practice","1","right","response","1"
"html-audio-button-response","6","62031","0.0-5.0-1.0","CKN_102","102","","","","","","null","stimuli/bleep.m4a","null","star","square","[""square"",""star""]","left-right","[""square"",""star""]","1","practice","1","right","audio_feedback","1"
"html-button-response","7","62557","0.0-6.0","CKN_102","102","","","","","","null","<button class=""jspsych-btn""><img src=""stimuli/white_square.png"" style=""width: 200px;height: 200px;""></button>","null","star","square","[""square"",""star""]","left-right","[""square"",""star""]","1","practice","1","right","iti",""
"html-button-response","8","68605","0.0-7.0","CKN_102","102","","","","","","6034","","0","triangle","pentagram","[""triangle"",""pentagram""]","left-right","[""triangle"",""pentagram""]","1","practice","1","left","trigger",""
"html-button-response","9","71895","0.0-8.0-0.0","CKN_102","102","","","","","","3278","<button class=""jspsych-btn""><img src=""stimuli/triangle.png"" style=""width: 200px;height: 200px;""></button>","0","triangle","pentagram","[""triangle"",""pentagram""]","left-right","[""triangle"",""pentagram""]","1","practice","1","left","response","1"
"html-audio-button-response","10","72106","0.0-8.0-1.0","CKN_102","102","","","","","","null","stimuli/bleep.m4a","null","triangle","pentagram","[""triangle"",""pentagram""]","left-right","[""triangle"",""pentagram""]","1","practice","1","left","audio_feedback","1"
"html-button-response","11","72621","0.0-9.0","CKN_102","102","","","","","","null","<button class=""jspsych-btn""><img src=""stimuli/white_square.png"" style=""width: 200px;height: 200px;""></button>","null","triangle","pentagram","[""triangle"",""pentagram""]","left-right","[""triangle"",""pentagram""]","1","practice","1","left","iti",""
"html-button-response","12","76743","0.0-10.0","CKN_102","102","","","","","","4107","","0","diamond","rectangle","[""rectangle"",""diamond""]","left-right","[""rectangle"",""diamond""]","1","practice","1","right","trigger",""
"html-button-response","13","78847","0.0-11.0-0.0","CKN_102","102","","","","","","2094","<button class=""jspsych-btn""><img src=""stimuli/diamond.png"" style=""width: 200px;height: 200px;""></button>","1","diamond","rectangle","[""rectangle"",""diamond""]","left-right","[""rectangle"",""diamond""]","1","practice","1","right","response","1"
"html-audio-button-response","14","79058","0.0-11.0-1.0","CKN_102","102","","","","","","null","stimuli/bleep.m4a","null","diamond","rectangle","[""rectangle"",""diamond""]","left-right","[""rectangle"",""diamond""]","1","practice","1","right","audio_feedback","1"
"html-button-response","15","79571","0.0-12.0","CKN_102","102","","","","","","null","<button class=""jspsych-btn""><img src=""stimuli/white_square.png"" style=""width: 200px;height: 200px;""></button>","null","diamond","rectangle","[""rectangle"",""diamond""]","left-right","[""rectangle"",""diamond""]","1","practice","1","right","iti",""
"html-button-response","16","85999","0.0-13.0","CKN_102","102","","","","","","6406","","0","pentagram","star","[""pentagram"",""star""]","left-right","[""pentagram"",""star""]","1","practice","1","left","trigger",""
"html-button-response","17","90158","0.0-14.0-0.0","CKN_102","102","","","","","","4150","<button class=""jspsych-btn""><img src=""stimuli/pentagram.png"" style=""width: 200px;height: 200px;""></button>","0","pentagram","star","[""pentagram"",""star""]","left-right","[""pentagram"",""star""]","1","practice","1","left","response","1"
"html-audio-button-response","18","90364","0.0-14.0-1.0","CKN_102","102","","","","","","null","stimuli/bleep.m4a","null","pentagram","star","[""pentagram"",""star""]","left-right","[""pentagram"",""star""]","1","practice","1","left","audio_feedback","1"
"html-button-response","19","90879","0.0-15.0","CKN_102","102","","","","","","null","<button class=""jspsych-btn""><img src=""stimuli/white_square.png"" style=""width: 200px;height: 200px;""></button>","null","pentagram","star","[""pentagram"",""star""]","left-right","[""pentagram"",""star""]","1","practice","1","left","iti",""
"html-button-response","20","120264","0.0-16.0","CKN_102","102","","","","","","29379","","0","","","","","","","","","","",""
"html-button-response","21","124086","0.0-17.0","CKN_102","102","","","","","","3814","","0","yellow","red","[""yellow"",""red"",""high nameability""]","right-left","[""red"",""yellow""]","1","high nameability","1","right","trigger",""
"html-button-response","22","130027","0.0-18.0-0.0","CKN_102","102","","","","","","5932","<button class=""jspsych-btn""><img src=""stimuli/yellow.png"" style=""width: 200px;height: 200px;""></button>","1","yellow","red","[""yellow"",""red"",""high nameability""]","right-left","[""red"",""yellow""]","1","high nameability","1","right","response","1"
"html-audio-button-response","23","130230","0.0-18.0-1.0","CKN_102","102","","","","","","null","stimuli/bleep.m4a","null","yellow","red","[""yellow"",""red"",""high nameability""]","right-left","[""red"",""yellow""]","1","high nameability","1","right","audio_feedback","1"
"html-button-response","24","130746","0.0-19.0","CKN_102","102","","","","","","null","<button class=""jspsych-btn""><img src=""stimuli/white_square.png"" style=""width: 200px;height: 200px;""></button>","null","yellow","red","[""yellow"",""red"",""high nameability""]","right-left","[""red"",""yellow""]","1","high nameability","1","right","iti",""
"html-button-response","25","131648","0.0-20.0","CKN_102","102","","","","","","890","","0","orange","brown","[""orange"",""brown"",""high nameability""]","right-left","[""brown"",""orange""]","1","high nameability","2","right","trigger",""
"html-button-response","26","138929","0.0-21.0-0.0","CKN_102","102","","","","","","7274","<button class=""jspsych-btn""><img src=""stimuli/orange.png"" style=""width: 200px;height: 200px;""></button>","1","orange","brown","[""orange"",""brown"",""high nameability""]","right-left","[""brown"",""orange""]","1","high nameability","2","right","response","1"
"html-audio-button-response","27","139137","0.0-21.0-1.0","CKN_102","102","","","","","","null","stimuli/bleep.m4a","null","orange","brown","[""orange"",""brown"",""high nameability""]","right-left","[""brown"",""orange""]","1","high nameability","2","right","audio_feedback","1"
"html-button-response","28","139655","0.0-22.0","CKN_102","102","","","","","","null","<button class=""jspsych-btn""><img src=""stimuli/white_square.png"" style=""width: 200px;height: 200px;""></button>","null","orange","brown","[""orange"",""brown"",""high nameability""]","right-left","[""brown"",""orange""]","1","high nameability","2","right","iti",""
"html-button-response","29","145040","0.0-23.0","CKN_102","102","","","","","","5366","","0","darkgreenblue","mustard","[""darkgreenblue"",""mustard"",""low nameability""]","right-left","[""mustard"",""darkgreenblue""]","1","low nameability","3","right","trigger",""
"html-button-response","30","146415","0.0-24.0-0.0","CKN_102","102","","","","","","1365","<button class=""jspsych-btn""><img src=""stimuli/darkgreenblue.png"" style=""width: 200px;height: 200px;""></button>","1","darkgreenblue","mustard","[""darkgreenblue"",""mustard"",""low nameability""]","right-left","[""mustard"",""darkgreenblue""]","1","low nameability","3","right","response","1"
"html-audio-button-response","31","146625","0.0-24.0-1.0","CKN_102","102","","","","","","null","stimuli/bleep.m4a","null","darkgreenblue","mustard","[""darkgreenblue"",""mustard"",""low nameability""]","right-left","[""mustard"",""darkgreenblue""]","1","low nameability","3","right","audio_feedback","1"
"html-button-response","32","147141","0.0-25.0","CKN_102","102","","","","","","null","<button class=""jspsych-btn""><img src=""stimuli/white_square.png"" style=""width: 200px;height: 200px;""></button>","null","darkgreenblue","mustard","[""darkgreenblue"",""mustard"",""low nameability""]","right-left","[""mustard"",""darkgreenblue""]","1","low nameability","3","right","iti",""
"html-button-response","33","149749","0.0-26.0","CKN_102","102","","","","","","2597","","0","pink","mustard","[""pink"",""mustard"",""low nameability""]","right-left","[""mustard"",""pink""]","1","low nameability","4","right","trigger",""
"html-button-response","34","153973","0.0-27.0-0.0","CKN_102","102","","","","","","4216","<button class=""jspsych-btn""><img src=""stimuli/pink.png"" style=""width: 200px;height: 200px;""></button>","1","pink","mustard","[""pink"",""mustard"",""low nameability""]","right-left","[""mustard"",""pink""]","1","low nameability","4","right","response","1"
"html-audio-button-response","35","154177","0.0-27.0-1.0","CKN_102","102","","","","","","null","stimuli/bleep.m4a","null","pink","mustard","[""pink"",""mustard"",""low nameability""]","right-left","[""mustard"",""pink""]","1","low nameability","4","right","audio_feedback","1"
"html-button-response","36","154696","0.0-28.0","CKN_102","102","","","","","","null","<button class=""jspsych-btn""><img src=""stimuli/white_square.png"" style=""width: 200px;height: 200px;""></button>","null","pink","mustard","[""pink"",""mustard"",""low nameability""]","right-left","[""mustard"",""pink""]","1","low nameability","4","right","iti",""
"html-button-response","37","155731","0.0-29.0","CKN_102","102","","","","","","1028","","0","yellow","purple","[""yellow"",""purple"",""high nameability""]","left-right","[""yellow"",""purple"",""high nameability""]","1","high nameability","5","left","trigger",""
"html-button-response","38","156808","0.0-30.0-0.0","CKN_102","102","","","","","","1071","<button class=""jspsych-btn""><img src=""stimuli/yellow.png"" style=""width: 200px;height: 200px;""></button>","1","yellow","purple","[""yellow"",""purple"",""high nameability""]","left-right","[""yellow"",""purple"",""high nameability""]","1","high nameability","5","left","response","0"
"html-audio-button-response","39","157438","0.0-30.0-1.0","CKN_102","102","","","","","","null","stimuli/boing.m4a","null","yellow","purple","[""yellow"",""purple"",""high nameability""]","left-right","[""yellow"",""purple"",""high nameability""]","1","high nameability","5","left","audio_feedback","0"
"html-button-response","40","160572","0.0-30.1-0.1","CKN_102","102","","","","","","3109","<button class=""jspsych-btn""><img src=""stimuli/yellow.png"" style=""width: 200px;height: 200px;""></button>","0","yellow","purple","[""yellow"",""purple"",""high nameability""]","left-right","[""yellow"",""purple"",""high nameability""]","1","high nameability","5","left","response","1"
"html-audio-button-response","41","160778","0.0-30.1-1.1","CKN_102","102","","","","","","null","stimuli/bleep.m4a","null","yellow","purple","[""yellow"",""purple"",""high nameability""]","left-right","[""yellow"",""purple"",""high nameability""]","1","high nameability","5","left","audio_feedback","1"
"html-button-response","42","161293","0.0-31.0","CKN_102","102","","","","","","null","<button class=""jspsych-btn""><img src=""stimuli/white_square.png"" style=""width: 200px;height: 200px;""></button>","null","yellow","purple","[""yellow"",""purple"",""high nameability""]","left-right","[""yellow"",""purple"",""high nameability""]","1","high nameability","5","left","iti",""
"html-button-response","43","169635","0.0-32.0","CKN_102","102","","","","","","8323","","0","lightred","turquoise","[""lightred"",""turquoise"",""low nameability""]","right-left","[""turquoise"",""lightred""]","1","low nameability","6","right","trigger",""
"html-button-response","44","173564","0.0-33.0-0.0","CKN_102","102","","","","","","3918","<button class=""jspsych-btn""><img src=""stimuli/lightred.png"" style=""width: 200px;height: 200px;""></button>","1","lightred","turquoise","[""lightred"",""turquoise"",""low nameability""]","right-left","[""turquoise"",""lightred""]","1","low nameability","6","right","response","1"
"html-audio-button-response","45","173770","0.0-33.0-1.0","CKN_102","102","","","","","","null","stimuli/bleep.m4a","null","lightred","turquoise","[""lightred"",""turquoise"",""low nameability""]","right-left","[""turquoise"",""lightred""]","1","low nameability","6","right","audio_feedback","1"
"html-button-response","46","174284","0.0-34.0","CKN_102","102","","","","","","null","<button class=""jspsych-btn""><img src=""stimuli/white_square.png"" style=""width: 200px;height: 200px;""></button>","null","lightred","turquoise","[""lightred"",""turquoise"",""low nameability""]","right-left","[""turquoise"",""lightred""]","1","low nameability","6","right","iti",""
"html-button-response","47","179167","0.0-35.0","CKN_102","102","","","","","","4869","","0","yellow","blue","[""yellow"",""blue"",""high nameability""]","right-left","[""blue"",""yellow""]","1","high nameability","7","right","trigger",""
"html-button-response","48","181254","0.0-36.0-0.0","CKN_102","102","","","","","","2079","<button class=""jspsych-btn""><img src=""stimuli/yellow.png"" style=""width: 200px;height: 200px;""></button>","1","yellow","blue","[""yellow"",""blue"",""high nameability""]","right-left","[""blue"",""yellow""]","1","high nameability","7","right","response","1"
"html-audio-button-response","49","181460","0.0-36.0-1.0","CKN_102","102","","","","","","null","stimuli/bleep.m4a","null","yellow","blue","[""yellow"",""blue"",""high nameability""]","right-left","[""blue"",""yellow""]","1","high nameability","7","right","audio_feedback","1"
"html-button-response","50","181976","0.0-37.0","CKN_102","102","","","","","","null","<button class=""jspsych-btn""><img src=""stimuli/white_square.png"" style=""width: 200px;height: 200px;""></button>","null","yellow","blue","[""yellow"",""blue"",""high nameability""]","right-left","[""blue"",""yellow""]","1","high nameability","7","right","iti",""
"html-button-response","51","183338","0.0-38.0","CKN_102","102","","","","","","1352","","0","lightred","neonyellow","[""lightred"",""neonyellow"",""low nameability""]","right-left","[""neonyellow"",""lightred""]","1","low nameability","8","right","trigger",""
"html-button-response","52","184737","0.0-39.0-0.0","CKN_102","102","","","","","","1390","<button class=""jspsych-btn""><img src=""stimuli/lightred.png"" style=""width: 200px;height: 200px;""></button>","1","lightred","neonyellow","[""lightred"",""neonyellow"",""low nameability""]","right-left","[""neonyellow"",""lightred""]","1","low nameability","8","right","response","1"
"html-audio-button-response","53","184946","0.0-39.0-1.0","CKN_102","102","","","","","","null","stimuli/bleep.m4a","null","lightred","neonyellow","[""lightred"",""neonyellow"",""low nameability""]","right-left","[""neonyellow"",""lightred""]","1","low nameability","8","right","audio_feedback","1"
"html-button-response","54","185462","0.0-40.0","CKN_102","102","","","","","","null","<button class=""jspsych-btn""><img src=""stimuli/white_square.png"" style=""width: 200px;height: 200px;""></button>","null","lightred","neonyellow","[""lightred"",""neonyellow"",""low nameability""]","right-left","[""neonyellow"",""lightred""]","1","low nameability","8","right","iti",""
"html-button-response","55","192519","0.0-41.0","CKN_102","102","","","","","","7043","","0","darkgreenblue","pink","[""darkgreenblue"",""pink"",""low nameability""]","right-left","[""pink"",""darkgreenblue""]","1","low nameability","9","right","trigger",""
"html-button-response","56","193555","0.0-42.0-0.0","CKN_102","102","","","","","","1029","<button class=""jspsych-btn""><img src=""stimuli/darkgreenblue.png"" style=""width: 200px;height: 200px;""></button>","1","darkgreenblue","pink","[""darkgreenblue"",""pink"",""low nameability""]","right-left","[""pink"",""darkgreenblue""]","1","low nameability","9","right","response","1"
"html-audio-button-response","57","193763","0.0-42.0-1.0","CKN_102","102","","","","","","null","stimuli/bleep.m4a","null","darkgreenblue","pink","[""darkgreenblue"",""pink"",""low nameability""]","right-left","[""pink"",""darkgreenblue""]","1","low nameability","9","right","audio_feedback","1"
"html-button-response","58","194279","0.0-43.0","CKN_102","102","","","","","","null","<button class=""jspsych-btn""><img src=""stimuli/white_square.png"" style=""width: 200px;height: 200px;""></button>","null","darkgreenblue","pink","[""darkgreenblue"",""pink"",""low nameability""]","right-left","[""pink"",""darkgreenblue""]","1","low nameability","9","right","iti",""
"html-button-response","59","198413","0.0-44.0","CKN_102","102","","","","","","4116","","0","red","blue","[""red"",""blue"",""high nameability""]","left-right","[""red"",""blue"",""high nameability""]","1","high nameability","10","left","trigger",""
"html-button-response","60","199879","0.0-45.0-0.0","CKN_102","102","","","","","","1451","<button class=""jspsych-btn""><img src=""stimuli/red.png"" style=""width: 200px;height: 200px;""></button>","1","red","blue","[""red"",""blue"",""high nameability""]","left-right","[""red"",""blue"",""high nameability""]","1","high nameability","10","left","response","0"
"html-audio-button-response","61","200512","0.0-45.0-1.0","CKN_102","102","","","","","","null","stimuli/boing.m4a","null","red","blue","[""red"",""blue"",""high nameability""]","left-right","[""red"",""blue"",""high nameability""]","1","high nameability","10","left","audio_feedback","0"
"html-button-response","62","205875","0.0-45.1-0.1","CKN_102","102","","","","","","5331","<button class=""jspsych-btn""><img src=""stimuli/red.png"" style=""width: 200px;height: 200px;""></button>","0","red","blue","[""red"",""blue"",""high nameability""]","left-right","[""red"",""blue"",""high nameability""]","1","high nameability","10","left","response","1"
"html-audio-button-response","63","206089","0.0-45.1-1.1","CKN_102","102","","","","","","null","stimuli/bleep.m4a","null","red","blue","[""red"",""blue"",""high nameability""]","left-right","[""red"",""blue"",""high nameability""]","1","high nameability","10","left","audio_feedback","1"
"html-button-response","64","206610","0.0-46.0","CKN_102","102","","","","","","null","<button class=""jspsych-btn""><img src=""stimuli/white_square.png"" style=""width: 200px;height: 200px;""></button>","null","red","blue","[""red"",""blue"",""high nameability""]","left-right","[""red"",""blue"",""high nameability""]","1","high nameability","10","left","iti",""
"pavlovia","65","206680","0.0-47.0","CKN_102","102","","","","","","","","","","","","","","","","","","",""
"pavlovia","66","206690","0.0-48.0","CKN_102","102","","","","","","","","","","","","","","","","","","",""
"html-audio-button-response","67","213870","0.0-49.0","CKN_102","102","","","","","","7256","stimuli/tada.m4a","0","","","","","","","","","","",""
"html-button-response","68","221371","0.0-50.0","CKN_102","102","","","","","","7495","","0","","","","","","","","","","",""
"html-button-response","69","221895","0.0-51.0","CKN_102","102","","","","","","511","","0","pink","neonyellow","[""pink"",""neonyellow"",""low nameability""]","left-right","[""pink"",""neonyellow"",""low nameability""]","2","low nameability","11","left","trigger",""
"html-button-response","70","224368","0.0-52.0-0.0","CKN_102","102","","","","","","2461","<button class=""jspsych-btn""><img src=""stimuli/pink.png"" style=""width: 200px;height: 200px;""></button>","0","pink","neonyellow","[""pink"",""neonyellow"",""low nameability""]","left-right","[""pink"",""neonyellow"",""low nameability""]","2","low nameability","11","left","response","1"
"html-audio-button-response","71","224576","0.0-52.0-1.0","CKN_102","102","","","","","","null","stimuli/bleep.m4a","null","pink","neonyellow","[""pink"",""neonyellow"",""low nameability""]","left-right","[""pink"",""neonyellow"",""low nameability""]","2","low nameability","11","left","audio_feedback","1"
"html-button-response","72","225094","0.0-53.0","CKN_102","102","","","","","","null","<button class=""jspsych-btn""><img src=""stimuli/white_square.png"" style=""width: 200px;height: 200px;""></button>","null","pink","neonyellow","[""pink"",""neonyellow"",""low nameability""]","left-right","[""pink"",""neonyellow"",""low nameability""]","2","low nameability","11","left","iti",""
"html-button-response","73","229120","0.0-54.0","CKN_102","102","","","","","","4012","","0","mustard","pink","[""mustard"",""pink"",""low nameability""]","right-left","[""pink"",""mustard""]","2","low nameability","12","right","trigger",""
"html-button-response","74","231400","0.0-55.0-0.0","CKN_102","102","","","","","","2271","<button class=""jspsych-btn""><img src=""stimuli/mustard.png"" style=""width: 200px;height: 200px;""></button>","1","mustard","pink","[""mustard"",""pink"",""low nameability""]","right-left","[""pink"",""mustard""]","2","low nameability","12","right","response","1"
"html-audio-button-response","75","231608","0.0-55.0-1.0","CKN_102","102","","","","","","null","stimuli/bleep.m4a","null","mustard","pink","[""mustard"",""pink"",""low nameability""]","right-left","[""pink"",""mustard""]","2","low nameability","12","right","audio_feedback","1"
"html-button-response","76","232131","0.0-56.0","CKN_102","102","","","","","","null","<button class=""jspsych-btn""><img src=""stimuli/white_square.png"" style=""width: 200px;height: 200px;""></button>","null","mustard","pink","[""mustard"",""pink"",""low nameability""]","right-left","[""pink"",""mustard""]","2","low nameability","12","right","iti",""
"html-button-response","77","237059","0.0-57.0","CKN_102","102","","","","","","4919","","0","purple","blue","[""purple"",""blue"",""high nameability""]","right-left","[""blue"",""purple""]","2","high nameability","13","right","trigger",""
"html-button-response","78","239147","0.0-58.0-0.0","CKN_102","102","","","","","","2079","<button class=""jspsych-btn""><img src=""stimuli/purple.png"" style=""width: 200px;height: 200px;""></button>","1","purple","blue","[""purple"",""blue"",""high nameability""]","right-left","[""blue"",""purple""]","2","high nameability","13","right","response","1"
"html-audio-button-response","79","239353","0.0-58.0-1.0","CKN_102","102","","","","","","null","stimuli/bleep.m4a","null","purple","blue","[""purple"",""blue"",""high nameability""]","right-left","[""blue"",""purple""]","2","high nameability","13","right","audio_feedback","1"
"html-button-response","80","239866","0.0-59.0","CKN_102","102","","","","","","null","<button class=""jspsych-btn""><img src=""stimuli/white_square.png"" style=""width: 200px;height: 200px;""></button>","null","purple","blue","[""purple"",""blue"",""high nameability""]","right-left","[""blue"",""purple""]","2","high nameability","13","right","iti",""
"html-button-response","81","243764","0.0-60.0","CKN_102","102","","","","","","3884","","0","purple","orange","[""purple"",""orange"",""high nameability""]","right-left","[""orange"",""purple""]","2","high nameability","14","right","trigger",""
"html-button-response","82","244987","0.0-61.0-0.0","CKN_102","102","","","","","","1213","<button class=""jspsych-btn""><img src=""stimuli/purple.png"" style=""width: 200px;height: 200px;""></button>","1","purple","orange","[""purple"",""orange"",""high nameability""]","right-left","[""orange"",""purple""]","2","high nameability","14","right","response","1"
"html-audio-button-response","83","245192","0.0-61.0-1.0","CKN_102","102","","","","","","null","stimuli/bleep.m4a","null","purple","orange","[""purple"",""orange"",""high nameability""]","right-left","[""orange"",""purple""]","2","high nameability","14","right","audio_feedback","1"
"html-button-response","84","245705","0.0-62.0","CKN_102","102","","","","","","null","<button class=""jspsych-btn""><img src=""stimuli/white_square.png"" style=""width: 200px;height: 200px;""></button>","null","purple","orange","[""purple"",""orange"",""high nameability""]","right-left","[""orange"",""purple""]","2","high nameability","14","right","iti",""
"html-button-response","85","247653","0.0-63.0","CKN_102","102","","","","","","1937","","0","blue","orange","[""blue"",""orange"",""high nameability""]","left-right","[""blue"",""orange"",""high nameability""]","2","high nameability","15","left","trigger",""
"html-button-response","86","252446","0.0-64.0-0.0","CKN_102","102","","","","","","4785","<button class=""jspsych-btn""><img src=""stimuli/blue.png"" style=""width: 200px;height: 200px;""></button>","0","blue","orange","[""blue"",""orange"",""high nameability""]","left-right","[""blue"",""orange"",""high nameability""]","2","high nameability","15","left","response","1"
"html-audio-button-response","87","252648","0.0-64.0-1.0","CKN_102","102","","","","","","null","stimuli/bleep.m4a","null","blue","orange","[""blue"",""orange"",""high nameability""]","left-right","[""blue"",""orange"",""high nameability""]","2","high nameability","15","left","audio_feedback","1"
"html-button-response","88","253168","0.0-65.0","CKN_102","102","","","","","","null","<button class=""jspsych-btn""><img src=""stimuli/white_square.png"" style=""width: 200px;height: 200px;""></button>","null","blue","orange","[""blue"",""orange"",""high nameability""]","left-right","[""blue"",""orange"",""high nameability""]","2","high nameability","15","left","iti",""
"html-button-response","89","255567","0.0-66.0","CKN_102","102","","","","","","2383","","0","lightred","darkgreenblue","[""lightred"",""darkgreenblue"",""low nameability""]","left-right","[""lightred"",""darkgreenblue"",""low nameability""]","2","low nameability","16","left","trigger",""
"html-button-response","90","261038","0.0-67.0-0.0","CKN_102","102","","","","","","5458","<button class=""jspsych-btn""><img src=""stimuli/lightred.png"" style=""width: 200px;height: 200px;""></button>","0","lightred","darkgreenblue","[""lightred"",""darkgreenblue"",""low nameability""]","left-right","[""lightred"",""darkgreenblue"",""low nameability""]","2","low nameability","16","left","response","1"
"html-audio-button-response","91","261254","0.0-67.0-1.0","CKN_102","102","","","","","","null","stimuli/bleep.m4a","null","lightred","darkgreenblue","[""lightred"",""darkgreenblue"",""low nameability""]","left-right","[""lightred"",""darkgreenblue"",""low nameability""]","2","low nameability","16","left","audio_feedback","1"
"html-button-response","92","261777","0.0-68.0","CKN_102","102","","","","","","null","<button class=""jspsych-btn""><img src=""stimuli/white_square.png"" style=""width: 200px;height: 200px;""></button>","null","lightred","darkgreenblue","[""lightred"",""darkgreenblue"",""low nameability""]","left-right","[""lightred"",""darkgreenblue"",""low nameability""]","2","low nameability","16","left","iti",""
"html-button-response","93","265602","0.0-69.0","CKN_102","102","","","","","","3806","","0","neonyellow","pink","[""neonyellow"",""pink"",""low nameability""]","left-right","[""neonyellow"",""pink"",""low nameability""]","2","low nameability","17","left","trigger",""
"html-button-response","94","267091","0.0-70.0-0.0","CKN_102","102","","","","","","1479","<button class=""jspsych-btn""><img src=""stimuli/neonyellow.png"" style=""width: 200px;height: 200px;""></button>","0","neonyellow","pink","[""neonyellow"",""pink"",""low nameability""]","left-right","[""neonyellow"",""pink"",""low nameability""]","2","low nameability","17","left","response","1"
"html-audio-button-response","95","267306","0.0-70.0-1.0","CKN_102","102","","","","","","null","stimuli/bleep.m4a","null","neonyellow","pink","[""neonyellow"",""pink"",""low nameability""]","left-right","[""neonyellow"",""pink"",""low nameability""]","2","low nameability","17","left","audio_feedback","1"
"html-button-response","96","267830","0.0-71.0","CKN_102","102","","","","","","null","<button class=""jspsych-btn""><img src=""stimuli/white_square.png"" style=""width: 200px;height: 200px;""></button>","null","neonyellow","pink","[""neonyellow"",""pink"",""low nameability""]","left-right","[""neonyellow"",""pink"",""low nameability""]","2","low nameability","17","left","iti",""
"html-button-response","97","268420","0.0-72.0","CKN_102","102","","","","","","574","","0","blue","purple","[""blue"",""purple"",""high nameability""]","left-right","[""blue"",""purple"",""high nameability""]","2","high nameability","18","left","trigger",""
"html-button-response","98","269956","0.0-73.0-0.0","CKN_102","102","","","","","","1526","<button class=""jspsych-btn""><img src=""stimuli/blue.png"" style=""width: 200px;height: 200px;""></button>","0","blue","purple","[""blue"",""purple"",""high nameability""]","left-right","[""blue"",""purple"",""high nameability""]","2","high nameability","18","left","response","1"
"html-audio-button-response","99","270171","0.0-73.0-1.0","CKN_102","102","","","","","","null","stimuli/bleep.m4a","null","blue","purple","[""blue"",""purple"",""high nameability""]","left-right","[""blue"",""purple"",""high nameability""]","2","high nameability","18","left","audio_feedback","1"
"html-button-response","100","270691","0.0-74.0","CKN_102","102","","","","","","null","<button class=""jspsych-btn""><img src=""stimuli/white_square.png"" style=""width: 200px;height: 200px;""></button>","null","blue","purple","[""blue"",""purple"",""high nameability""]","left-right","[""blue"",""purple"",""high nameability""]","2","high nameability","18","left","iti",""
"html-button-response","101","271426","0.0-75.0","CKN_102","102","","","","","","720","","0","mustard","neonyellow","[""mustard"",""neonyellow"",""low nameability""]","left-right","[""mustard"",""neonyellow"",""low nameability""]","2","low nameability","19","left","trigger",""
"html-button-response","102","273559","0.0-76.0-0.0","CKN_102","102","","","","","","2123","<button class=""jspsych-btn""><img src=""stimuli/mustard.png"" style=""width: 200px;height: 200px;""></button>","0","mustard","neonyellow","[""mustard"",""neonyellow"",""low nameability""]","left-right","[""mustard"",""neonyellow"",""low nameability""]","2","low nameability","19","left","response","1"
"html-audio-button-response","103","273774","0.0-76.0-1.0","CKN_102","102","","","","","","null","stimuli/bleep.m4a","null","mustard","neonyellow","[""mustard"",""neonyellow"",""low nameability""]","left-right","[""mustard"",""neonyellow"",""low nameability""]","2","low nameability","19","left","audio_feedback","1"
"html-button-response","104","274294","0.0-77.0","CKN_102","102","","","","","","null","<button class=""jspsych-btn""><img src=""stimuli/white_square.png"" style=""width: 200px;height: 200px;""></button>","null","mustard","neonyellow","[""mustard"",""neonyellow"",""low nameability""]","left-right","[""mustard"",""neonyellow"",""low nameability""]","2","low nameability","19","left","iti",""
"html-button-response","105","275047","0.0-78.0","CKN_102","102","","","","","","743","","0","orange","blue","[""orange"",""blue"",""high nameability""]","left-right","[""orange"",""blue"",""high nameability""]","2","high nameability","20","left","trigger",""
"html-button-response","106","277787","0.0-79.0-0.0","CKN_102","102","","","","","","2731","<button class=""jspsych-btn""><img src=""stimuli/orange.png"" style=""width: 200px;height: 200px;""></button>","0","orange","blue","[""orange"",""blue"",""high nameability""]","left-right","[""orange"",""blue"",""high nameability""]","2","high nameability","20","left","response","1"
"html-audio-button-response","107","277993","0.0-79.0-1.0","CKN_102","102","","","","","","null","stimuli/bleep.m4a","null","orange","blue","[""orange"",""blue"",""high nameability""]","left-right","[""orange"",""blue"",""high nameability""]","2","high nameability","20","left","audio_feedback","1"
"html-button-response","108","278510","0.0-80.0","CKN_102","102","","","","","","null","<button class=""jspsych-btn""><img src=""stimuli/white_square.png"" style=""width: 200px;height: 200px;""></button>","null","orange","blue","[""orange"",""blue"",""high nameability""]","left-right","[""orange"",""blue"",""high nameability""]","2","high nameability","20","left","iti",""
"pavlovia","109","278616","0.0-81.0","CKN_102","102","","","","","","","","","","","","","","","","","","",""
"pavlovia","110","278628","0.0-82.0","CKN_102","102","","","","","","","","","","","","","","","","","","",""
"html-audio-button-response","111","284046","0.0-83.0","CKN_102","102","","","","","","5536","stimuli/tada.m4a","0","","","","","","","","","","",""
"html-button-response","112","292785","0.0-84.0","CKN_102","102","","","","","","8734","","0","","","","","","","","","","",""
"html-button-response","113","297044","0.0-85.0","CKN_102","102","","","","","","4247","","0","pink","turquoise","[""pink"",""turquoise"",""low nameability""]","right-left","[""turquoise"",""pink""]","3","low nameability","21","right","trigger",""
"html-button-response","114","298556","0.0-86.0-0.0","CKN_102","102","","","","","","1505","<button class=""jspsych-btn""><img src=""stimuli/pink.png"" style=""width: 200px;height: 200px;""></button>","1","pink","turquoise","[""pink"",""turquoise"",""low nameability""]","right-left","[""turquoise"",""pink""]","3","low nameability","21","right","response","1"
"html-audio-button-response","115","298760","0.0-86.0-1.0","CKN_102","102","","","","","","null","stimuli/bleep.m4a","null","pink","turquoise","[""pink"",""turquoise"",""low nameability""]","right-left","[""turquoise"",""pink""]","3","low nameability","21","right","audio_feedback","1"
"html-button-response","116","299281","0.0-87.0","CKN_102","102","","","","","","null","<button class=""jspsych-btn""><img src=""stimuli/white_square.png"" style=""width: 200px;height: 200px;""></button>","null","pink","turquoise","[""pink"",""turquoise"",""low nameability""]","right-left","[""turquoise"",""pink""]","3","low nameability","21","right","iti",""
"html-button-response","117","299896","0.0-88.0","CKN_102","102","","","","","","592","","0","darkgreenblue","turquoise","[""darkgreenblue"",""turquoise"",""low nameability""]","right-left","[""turquoise"",""darkgreenblue""]","3","low nameability","22","right","trigger",""
"html-button-response","118","300900","0.0-89.0-0.0","CKN_102","102","","","","","","997","<button class=""jspsych-btn""><img src=""stimuli/darkgreenblue.png"" style=""width: 200px;height: 200px;""></button>","1","darkgreenblue","turquoise","[""darkgreenblue"",""turquoise"",""low nameability""]","right-left","[""turquoise"",""darkgreenblue""]","3","low nameability","22","right","response","1"
"html-audio-button-response","119","301103","0.0-89.0-1.0","CKN_102","102","","","","","","null","stimuli/bleep.m4a","null","darkgreenblue","turquoise","[""darkgreenblue"",""turquoise"",""low nameability""]","right-left","[""turquoise"",""darkgreenblue""]","3","low nameability","22","right","audio_feedback","1"
"html-button-response","120","301616","0.0-90.0","CKN_102","102","","","","","","null","<button class=""jspsych-btn""><img src=""stimuli/white_square.png"" style=""width: 200px;height: 200px;""></button>","null","darkgreenblue","turquoise","[""darkgreenblue"",""turquoise"",""low nameability""]","right-left","[""turquoise"",""darkgreenblue""]","3","low nameability","22","right","iti",""
"html-button-response","121","302287","0.0-91.0","CKN_102","102","","","","","","661","","0","neonyellow","lightred","[""neonyellow"",""lightred"",""low nameability""]","left-right","[""neonyellow"",""lightred"",""low nameability""]","3","low nameability","23","left","trigger",""
"html-button-response","122","303833","0.0-92.0-0.0","CKN_102","102","","","","","","1537","<button class=""jspsych-btn""><img src=""stimuli/neonyellow.png"" style=""width: 200px;height: 200px;""></button>","0","neonyellow","lightred","[""neonyellow"",""lightred"",""low nameability""]","left-right","[""neonyellow"",""lightred"",""low nameability""]","3","low nameability","23","left","response","1"
"html-audio-button-response","123","304034","0.0-92.0-1.0","CKN_102","102","","","","","","null","stimuli/bleep.m4a","null","neonyellow","lightred","[""neonyellow"",""lightred"",""low nameability""]","left-right","[""neonyellow"",""lightred"",""low nameability""]","3","low nameability","23","left","audio_feedback","1"
"html-button-response","124","304553","0.0-93.0","CKN_102","102","","","","","","null","<button class=""jspsych-btn""><img src=""stimuli/white_square.png"" style=""width: 200px;height: 200px;""></button>","null","neonyellow","lightred","[""neonyellow"",""lightred"",""low nameability""]","left-right","[""neonyellow"",""lightred"",""low nameability""]","3","low nameability","23","left","iti",""
"html-button-response","125","305625","0.0-94.0","CKN_102","102","","","","","","1059","","0","turquoise","neonyellow","[""turquoise"",""neonyellow"",""low nameability""]","left-right","[""turquoise"",""neonyellow"",""low nameability""]","3","low nameability","24","left","trigger",""
"html-button-response","126","306961","0.0-95.0-0.0","CKN_102","102","","","","","","1328","<button class=""jspsych-btn""><img src=""stimuli/turquoise.png"" style=""width: 200px;height: 200px;""></button>","0","turquoise","neonyellow","[""turquoise"",""neonyellow"",""low nameability""]","left-right","[""turquoise"",""neonyellow"",""low nameability""]","3","low nameability","24","left","response","1"
"html-audio-button-response","127","307172","0.0-95.0-1.0","CKN_102","102","","","","","","null","stimuli/bleep.m4a","null","turquoise","neonyellow","[""turquoise"",""neonyellow"",""low nameability""]","left-right","[""turquoise"",""neonyellow"",""low nameability""]","3","low nameability","24","left","audio_feedback","1"
"html-button-response","128","307686","0.0-96.0","CKN_102","102","","","","","","null","<button class=""jspsych-btn""><img src=""stimuli/white_square.png"" style=""width: 200px;height: 200px;""></button>","null","turquoise","neonyellow","[""turquoise"",""neonyellow"",""low nameability""]","left-right","[""turquoise"",""neonyellow"",""low nameability""]","3","low nameability","24","left","iti",""
"html-button-response","129","308343","0.0-97.0","CKN_102","102","","","","","","645","","0","purple","yellow","[""purple"",""yellow"",""high nameability""]","left-right","[""purple"",""yellow"",""high nameability""]","3","high nameability","25","left","trigger",""
"html-button-response","130","309768","0.0-98.0-0.0","CKN_102","102","","","","","","1418","<button class=""jspsych-btn""><img src=""stimuli/purple.png"" style=""width: 200px;height: 200px;""></button>","0","purple","yellow","[""purple"",""yellow"",""high nameability""]","left-right","[""purple"",""yellow"",""high nameability""]","3","high nameability","25","left","response","1"
"html-audio-button-response","131","309972","0.0-98.0-1.0","CKN_102","102","","","","","","null","stimuli/bleep.m4a","null","purple","yellow","[""purple"",""yellow"",""high nameability""]","left-right","[""purple"",""yellow"",""high nameability""]","3","high nameability","25","left","audio_feedback","1"
"html-button-response","132","310486","0.0-99.0","CKN_102","102","","","","","","null","<button class=""jspsych-btn""><img src=""stimuli/white_square.png"" style=""width: 200px;height: 200px;""></button>","null","purple","yellow","[""purple"",""yellow"",""high nameability""]","left-right","[""purple"",""yellow"",""high nameability""]","3","high nameability","25","left","iti",""
"html-button-response","133","311344","0.0-100.0","CKN_102","102","","","","","","845","","0","red","orange","[""red"",""orange"",""high nameability""]","right-left","[""orange"",""red""]","3","high nameability","26","right","trigger",""
"html-button-response","134","312564","0.0-101.0-0.0","CKN_102","102","","","","","","1213","<button class=""jspsych-btn""><img src=""stimuli/red.png"" style=""width: 200px;height: 200px;""></button>","1","red","orange","[""red"",""orange"",""high nameability""]","right-left","[""orange"",""red""]","3","high nameability","26","right","response","1"
"html-audio-button-response","135","312769","0.0-101.0-1.0","CKN_102","102","","","","","","null","stimuli/bleep.m4a","null","red","orange","[""red"",""orange"",""high nameability""]","right-left","[""orange"",""red""]","3","high nameability","26","right","audio_feedback","1"
"html-button-response","136","313285","0.0-102.0","CKN_102","102","","","","","","null","<button class=""jspsych-btn""><img src=""stimuli/white_square.png"" style=""width: 200px;height: 200px;""></button>","null","red","orange","[""red"",""orange"",""high nameability""]","right-left","[""orange"",""red""]","3","high nameability","26","right","iti",""
"html-button-response","137","314318","0.0-103.0","CKN_102","102","","","","","","1021","","0","purple","brown","[""purple"",""brown"",""high nameability""]","left-right","[""purple"",""brown"",""high nameability""]","3","high nameability","27","left","trigger",""
"html-button-response","138","315526","0.0-104.0-0.0","CKN_102","102","","","","","","1199","<button class=""jspsych-btn""><img src=""stimuli/purple.png"" style=""width: 200px;height: 200px;""></button>","0","purple","brown","[""purple"",""brown"",""high nameability""]","left-right","[""purple"",""brown"",""high nameability""]","3","high nameability","27","left","response","1"
"html-audio-button-response","139","315724","0.0-104.0-1.0","CKN_102","102","","","","","","null","stimuli/bleep.m4a","null","purple","brown","[""purple"",""brown"",""high nameability""]","left-right","[""purple"",""brown"",""high nameability""]","3","high nameability","27","left","audio_feedback","1"
"html-button-response","140","316237","0.0-105.0","CKN_102","102","","","","","","null","<button class=""jspsych-btn""><img src=""stimuli/white_square.png"" style=""width: 200px;height: 200px;""></button>","null","purple","brown","[""purple"",""brown"",""high nameability""]","left-right","[""purple"",""brown"",""high nameability""]","3","high nameability","27","left","iti",""
"html-button-response","141","316909","0.0-106.0","CKN_102","102","","","","","","660","","0","lightred","mustard","[""lightred"",""mustard"",""low nameability""]","left-right","[""lightred"",""mustard"",""low nameability""]","3","low nameability","28","left","trigger",""
"html-button-response","142","318086","0.0-107.0-0.0","CKN_102","102","","","","","","1169","<button class=""jspsych-btn""><img src=""stimuli/lightred.png"" style=""width: 200px;height: 200px;""></button>","0","lightred","mustard","[""lightred"",""mustard"",""low nameability""]","left-right","[""lightred"",""mustard"",""low nameability""]","3","low nameability","28","left","response","1"
"html-audio-button-response","143","318287","0.0-107.0-1.0","CKN_102","102","","","","","","null","stimuli/bleep.m4a","null","lightred","mustard","[""lightred"",""mustard"",""low nameability""]","left-right","[""lightred"",""mustard"",""low nameability""]","3","low nameability","28","left","audio_feedback","1"
"html-button-response","144","318810","0.0-108.0","CKN_102","102","","","","","","null","<button class=""jspsych-btn""><img src=""stimuli/white_square.png"" style=""width: 200px;height: 200px;""></button>","null","lightred","mustard","[""lightred"",""mustard"",""low nameability""]","left-right","[""lightred"",""mustard"",""low nameability""]","3","low nameability","28","left","iti",""
"html-button-response","145","319374","0.0-109.0","CKN_102","102","","","","","","551","","0","blue","brown","[""blue"",""brown"",""high nameability""]","right-left","[""brown"",""blue""]","3","high nameability","29","right","trigger",""
"html-button-response","146","320601","0.0-110.0-0.0","CKN_102","102","","","","","","1219","<button class=""jspsych-btn""><img src=""stimuli/blue.png"" style=""width: 200px;height: 200px;""></button>","1","blue","brown","[""blue"",""brown"",""high nameability""]","right-left","[""brown"",""blue""]","3","high nameability","29","right","response","1"
"html-audio-button-response","147","320805","0.0-110.0-1.0","CKN_102","102","","","","","","null","stimuli/bleep.m4a","null","blue","brown","[""blue"",""brown"",""high nameability""]","right-left","[""brown"",""blue""]","3","high nameability","29","right","audio_feedback","1"
"html-button-response","148","321321","0.0-111.0","CKN_102","102","","","","","","null","<button class=""jspsych-btn""><img src=""stimuli/white_square.png"" style=""width: 200px;height: 200px;""></button>","null","blue","brown","[""blue"",""brown"",""high nameability""]","right-left","[""brown"",""blue""]","3","high nameability","29","right","iti",""
"html-button-response","149","322179","0.0-112.0","CKN_102","102","","","","","","842","","0","turquoise","lightred","[""turquoise"",""lightred"",""low nameability""]","right-left","[""lightred"",""turquoise""]","3","low nameability","30","right","trigger",""
"html-button-response","150","323167","0.0-113.0-0.0","CKN_102","102","","","","","","980","<button class=""jspsych-btn""><img src=""stimuli/turquoise.png"" style=""width: 200px;height: 200px;""></button>","1","turquoise","lightred","[""turquoise"",""lightred"",""low nameability""]","right-left","[""lightred"",""turquoise""]","3","low nameability","30","right","response","1"
"html-audio-button-response","151","323372","0.0-113.0-1.0","CKN_102","102","","","","","","null","stimuli/bleep.m4a","null","turquoise","lightred","[""turquoise"",""lightred"",""low nameability""]","right-left","[""lightred"",""turquoise""]","3","low nameability","30","right","audio_feedback","1"
"html-button-response","152","323901","0.0-114.0","CKN_102","102","","","","","","null","<button class=""jspsych-btn""><img src=""stimuli/white_square.png"" style=""width: 200px;height: 200px;""></button>","null","turquoise","lightred","[""turquoise"",""lightred"",""low nameability""]","right-left","[""lightred"",""turquoise""]","3","low nameability","30","right","iti",""
"pavlovia","153","323956","0.0-115.0","CKN_102","102","","","","","","","","","","","","","","","","","","",""
"pavlovia","154","323962","0.0-116.0","CKN_102","102","","","","","","","","","","","","","","","","","","",""
"html-audio-button-response","155","333758","0.0-117.0","CKN_102","102","","","","","","9845","stimuli/tada.m4a","0","","","","","","","","","","",""
"html-button-response","156","334982","0.0-118.0","CKN_102","102","","","","","","1217","","0","","","","","","","","","","",""
"html-button-response","157","342474","0.0-119.0","CKN_102","102","","","","","","7482","","0","darkgreenblue","lightred","[""darkgreenblue"",""lightred"",""low nameability""]","right-left","[""lightred"",""darkgreenblue""]","4","low nameability","31","right","trigger",""
"html-button-response","158","343940","0.0-120.0-0.0","CKN_102","102","","","","","","1459","<button class=""jspsych-btn""><img src=""stimuli/darkgreenblue.png"" style=""width: 200px;height: 200px;""></button>","1","darkgreenblue","lightred","[""darkgreenblue"",""lightred"",""low nameability""]","right-left","[""lightred"",""darkgreenblue""]","4","low nameability","31","right","response","1"
"html-audio-button-response","159","344145","0.0-120.0-1.0","CKN_102","102","","","","","","null","stimuli/bleep.m4a","null","darkgreenblue","lightred","[""darkgreenblue"",""lightred"",""low nameability""]","right-left","[""lightred"",""darkgreenblue""]","4","low nameability","31","right","audio_feedback","1"
"html-button-response","160","344662","0.0-121.0","CKN_102","102","","","","","","null","<button class=""jspsych-btn""><img src=""stimuli/white_square.png"" style=""width: 200px;height: 200px;""></button>","null","darkgreenblue","lightred","[""darkgreenblue"",""lightred"",""low nameability""]","right-left","[""lightred"",""darkgreenblue""]","4","low nameability","31","right","iti",""
"html-button-response","161","345882","0.0-122.0","CKN_102","102","","","","","","1204","","0","brown","blue","[""brown"",""blue"",""high nameability""]","left-right","[""brown"",""blue"",""high nameability""]","4","high nameability","32","left","trigger",""
"html-button-response","162","349645","0.0-123.0-0.0","CKN_102","102","","","","","","3756","<button class=""jspsych-btn""><img src=""stimuli/brown.png"" style=""width: 200px;height: 200px;""></button>","0","brown","blue","[""brown"",""blue"",""high nameability""]","left-right","[""brown"",""blue"",""high nameability""]","4","high nameability","32","left","response","1"
"html-audio-button-response","163","349852","0.0-123.0-1.0","CKN_102","102","","","","","","null","stimuli/bleep.m4a","null","brown","blue","[""brown"",""blue"",""high nameability""]","left-right","[""brown"",""blue"",""high nameability""]","4","high nameability","32","left","audio_feedback","1"
"html-button-response","164","350362","0.0-124.0","CKN_102","102","","","","","","222","<button class=""jspsych-btn""><img src=""stimuli/white_square.png"" style=""width: 200px;height: 200px;""></button>","0","brown","blue","[""brown"",""blue"",""high nameability""]","left-right","[""brown"",""blue"",""high nameability""]","4","high nameability","32","left","iti",""
"html-button-response","165","351365","0.0-125.0","CKN_102","102","","","","","","994","","0","orange","red","[""orange"",""red"",""high nameability""]","right-left","[""red"",""orange""]","4","high nameability","33","right","trigger",""
"html-button-response","166","355269","0.0-126.0-0.0","CKN_102","102","","","","","","3895","<button class=""jspsych-btn""><img src=""stimuli/orange.png"" style=""width: 200px;height: 200px;""></button>","1","orange","red","[""orange"",""red"",""high nameability""]","right-left","[""red"",""orange""]","4","high nameability","33","right","response","1"
"html-audio-button-response","167","355472","0.0-126.0-1.0","CKN_102","102","","","","","","null","stimuli/bleep.m4a","null","orange","red","[""orange"",""red"",""high nameability""]","right-left","[""red"",""orange""]","4","high nameability","33","right","audio_feedback","1"
"html-button-response","168","355996","0.0-127.0","CKN_102","102","","","","","","null","<button class=""jspsych-btn""><img src=""stimuli/white_square.png"" style=""width: 200px;height: 200px;""></button>","null","orange","red","[""orange"",""red"",""high nameability""]","right-left","[""red"",""orange""]","4","high nameability","33","right","iti",""
"html-button-response","169","356608","0.0-128.0","CKN_102","102","","","","","","603","","0","pink","darkgreenblue","[""pink"",""darkgreenblue"",""low nameability""]","left-right","[""pink"",""darkgreenblue"",""low nameability""]","4","low nameability","34","left","trigger",""
"html-button-response","170","358963","0.0-129.0-0.0","CKN_102","102","","","","","","2347","<button class=""jspsych-btn""><img src=""stimuli/pink.png"" style=""width: 200px;height: 200px;""></button>","0","pink","darkgreenblue","[""pink"",""darkgreenblue"",""low nameability""]","left-right","[""pink"",""darkgreenblue"",""low nameability""]","4","low nameability","34","left","response","1"
"html-audio-button-response","171","359168","0.0-129.0-1.0","CKN_102","102","","","","","","null","stimuli/bleep.m4a","null","pink","darkgreenblue","[""pink"",""darkgreenblue"",""low nameability""]","left-right","[""pink"",""darkgreenblue"",""low nameability""]","4","low nameability","34","left","audio_feedback","1"
"html-button-response","172","359687","0.0-130.0","CKN_102","102","","","","","","null","<button class=""jspsych-btn""><img src=""stimuli/white_square.png"" style=""width: 200px;height: 200px;""></button>","null","pink","darkgreenblue","[""pink"",""darkgreenblue"",""low nameability""]","left-right","[""pink"",""darkgreenblue"",""low nameability""]","4","low nameability","34","left","iti",""
"html-button-response","173","360913","0.0-131.0","CKN_102","102","","","","","","1215","","0","brown","orange","[""brown"",""orange"",""high nameability""]","left-right","[""brown"",""orange"",""high nameability""]","4","high nameability","35","left","trigger",""
"html-button-response","174","362288","0.0-132.0-0.0","CKN_102","102","","","","","","1367","<button class=""jspsych-btn""><img src=""stimuli/brown.png"" style=""width: 200px;height: 200px;""></button>","0","brown","orange","[""brown"",""orange"",""high nameability""]","left-right","[""brown"",""orange"",""high nameability""]","4","high nameability","35","left","response","1"
"html-audio-button-response","175","362495","0.0-132.0-1.0","CKN_102","102","","","","","","null","stimuli/bleep.m4a","null","brown","orange","[""brown"",""orange"",""high nameability""]","left-right","[""brown"",""orange"",""high nameability""]","4","high nameability","35","left","audio_feedback","1"
"html-button-response","176","363016","0.0-133.0","CKN_102","102","","","","","","null","<button class=""jspsych-btn""><img src=""stimuli/white_square.png"" style=""width: 200px;height: 200px;""></button>","null","brown","orange","[""brown"",""orange"",""high nameability""]","left-right","[""brown"",""orange"",""high nameability""]","4","high nameability","35","left","iti",""
"html-button-response","177","363652","0.0-134.0","CKN_102","102","","","","","","621","","0","neonyellow","mustard","[""neonyellow"",""mustard"",""low nameability""]","right-left","[""mustard"",""neonyellow""]","4","low nameability","36","right","trigger",""
"html-button-response","178","369234","0.0-135.0-0.0","CKN_102","102","","","","","","5576","<button class=""jspsych-btn""><img src=""stimuli/neonyellow.png"" style=""width: 200px;height: 200px;""></button>","1","neonyellow","mustard","[""neonyellow"",""mustard"",""low nameability""]","right-left","[""mustard"",""neonyellow""]","4","low nameability","36","right","response","1"
"html-audio-button-response","179","369438","0.0-135.0-1.0","CKN_102","102","","","","","","null","stimuli/bleep.m4a","null","neonyellow","mustard","[""neonyellow"",""mustard"",""low nameability""]","right-left","[""mustard"",""neonyellow""]","4","low nameability","36","right","audio_feedback","1"
"html-button-response","180","369954","0.0-136.0","CKN_102","102","","","","","","null","<button class=""jspsych-btn""><img src=""stimuli/white_square.png"" style=""width: 200px;height: 200px;""></button>","null","neonyellow","mustard","[""neonyellow"",""mustard"",""low nameability""]","right-left","[""mustard"",""neonyellow""]","4","low nameability","36","right","iti",""
"html-button-response","181","370756","0.0-137.0","CKN_102","102","","","","","","793","","0","yellow","orange","[""yellow"",""orange"",""high nameability""]","right-left","[""orange"",""yellow""]","4","high nameability","37","right","trigger",""
"html-button-response","182","372038","0.0-138.0-0.0","CKN_102","102","","","","","","1273","<button class=""jspsych-btn""><img src=""stimuli/yellow.png"" style=""width: 200px;height: 200px;""></button>","1","yellow","orange","[""yellow"",""orange"",""high nameability""]","right-left","[""orange"",""yellow""]","4","high nameability","37","right","response","1"
"html-audio-button-response","183","372244","0.0-138.0-1.0","CKN_102","102","","","","","","null","stimuli/bleep.m4a","null","yellow","orange","[""yellow"",""orange"",""high nameability""]","right-left","[""orange"",""yellow""]","4","high nameability","37","right","audio_feedback","1"
"html-button-response","184","372758","0.0-139.0","CKN_102","102","","","","","","null","<button class=""jspsych-btn""><img src=""stimuli/white_square.png"" style=""width: 200px;height: 200px;""></button>","null","yellow","orange","[""yellow"",""orange"",""high nameability""]","right-left","[""orange"",""yellow""]","4","high nameability","37","right","iti",""
"html-button-response","185","373443","0.0-140.0","CKN_102","102","","","","","","670","","0","red","yellow","[""red"",""yellow"",""high nameability""]","right-left","[""yellow"",""red""]","4","high nameability","38","right","trigger",""
"html-button-response","186","374633","0.0-141.0-0.0","CKN_102","102","","","","","","1181","<button class=""jspsych-btn""><img src=""stimuli/red.png"" style=""width: 200px;height: 200px;""></button>","1","red","yellow","[""red"",""yellow"",""high nameability""]","right-left","[""yellow"",""red""]","4","high nameability","38","right","response","1"
"html-audio-button-response","187","374843","0.0-141.0-1.0","CKN_102","102","","","","","","null","stimuli/bleep.m4a","null","red","yellow","[""red"",""yellow"",""high nameability""]","right-left","[""yellow"",""red""]","4","high nameability","38","right","audio_feedback","1"
"html-button-response","188","375356","0.0-142.0","CKN_102","102","","","","","","null","<button class=""jspsych-btn""><img src=""stimuli/white_square.png"" style=""width: 200px;height: 200px;""></button>","null","red","yellow","[""red"",""yellow"",""high nameability""]","right-left","[""yellow"",""red""]","4","high nameability","38","right","iti",""
"html-button-response","189","376256","0.0-143.0","CKN_102","102","","","","","","890","","0","turquoise","pink","[""turquoise"",""pink"",""low nameability""]","left-right","[""turquoise"",""pink"",""low nameability""]","4","low nameability","39","left","trigger",""
"html-button-response","190","377748","0.0-144.0-0.0","CKN_102","102","","","","","","1482","<button class=""jspsych-btn""><img src=""stimuli/turquoise.png"" style=""width: 200px;height: 200px;""></button>","0","turquoise","pink","[""turquoise"",""pink"",""low nameability""]","left-right","[""turquoise"",""pink"",""low nameability""]","4","low nameability","39","left","response","1"
"html-audio-button-response","191","377951","0.0-144.0-1.0","CKN_102","102","","","","","","null","stimuli/bleep.m4a","null","turquoise","pink","[""turquoise"",""pink"",""low nameability""]","left-right","[""turquoise"",""pink"",""low nameability""]","4","low nameability","39","left","audio_feedback","1"
"html-button-response","192","378463","0.0-145.0","CKN_102","102","","","","","","null","<button class=""jspsych-btn""><img src=""stimuli/white_square.png"" style=""width: 200px;height: 200px;""></button>","null","turquoise","pink","[""turquoise"",""pink"",""low nameability""]","left-right","[""turquoise"",""pink"",""low nameability""]","4","low nameability","39","left","iti",""
"html-button-response","193","379299","0.0-146.0","CKN_102","102","","","","","","826","","0","orange","purple","[""orange"",""purple"",""high nameability""]","left-right","[""orange"",""purple"",""high nameability""]","4","high nameability","40","left","trigger",""
"html-button-response","194","380449","0.0-147.0-0.0","CKN_102","102","","","","","","1142","<button class=""jspsych-btn""><img src=""stimuli/orange.png"" style=""width: 200px;height: 200px;""></button>","0","orange","purple","[""orange"",""purple"",""high nameability""]","left-right","[""orange"",""purple"",""high nameability""]","4","high nameability","40","left","response","1"
"html-audio-button-response","195","380652","0.0-147.0-1.0","CKN_102","102","","","","","","null","stimuli/bleep.m4a","null","orange","purple","[""orange"",""purple"",""high nameability""]","left-right","[""orange"",""purple"",""high nameability""]","4","high nameability","40","left","audio_feedback","1"
"html-button-response","196","381164","0.0-148.0","CKN_102","102","","","","","","null","<button class=""jspsych-btn""><img src=""stimuli/white_square.png"" style=""width: 200px;height: 200px;""></button>","null","orange","purple","[""orange"",""purple"",""high nameability""]","left-right","[""orange"",""purple"",""high nameability""]","4","high nameability","40","left","iti",""
"pavlovia","197","381229","0.0-149.0","CKN_102","102","","","","","","","","","","","","","","","","","","",""
"pavlovia","198","381235","0.0-150.0","CKN_102","102","","","","","","","","","","","","","","","","","","",""
"html-audio-button-response","199","389792","0.0-151.0","CKN_102","102","","","","","","8608","stimuli/tada.m4a","0","","","","","","","","","","",""
"html-button-response","200","392332","0.0-152.0","CKN_102","102","","","","","","2535","","0","","","","","","","","","","",""
"html-button-response","201","396578","0.0-153.0","CKN_102","102","","","","","","4239","","0","blue","yellow","[""blue"",""yellow"",""high nameability""]","left-right","[""blue"",""yellow"",""high nameability""]","5","high nameability","41","left","trigger",""
"html-button-response","202","399571","0.0-154.0-0.0","CKN_102","102","","","","","","2983","<button class=""jspsych-btn""><img src=""stimuli/blue.png"" style=""width: 200px;height: 200px;""></button>","0","blue","yellow","[""blue"",""yellow"",""high nameability""]","left-right","[""blue"",""yellow"",""high nameability""]","5","high nameability","41","left","response","1"
"html-audio-button-response","203","399786","0.0-154.0-1.0","CKN_102","102","","","","","","null","stimuli/bleep.m4a","null","blue","yellow","[""blue"",""yellow"",""high nameability""]","left-right","[""blue"",""yellow"",""high nameability""]","5","high nameability","41","left","audio_feedback","1"
"html-button-response","204","400299","0.0-155.0","CKN_102","102","","","","","","null","<button class=""jspsych-btn""><img src=""stimuli/white_square.png"" style=""width: 200px;height: 200px;""></button>","null","blue","yellow","[""blue"",""yellow"",""high nameability""]","left-right","[""blue"",""yellow"",""high nameability""]","5","high nameability","41","left","iti",""
"html-button-response","205","412956","0.0-156.0","CKN_102","102","","","","","","12644","","0","yellow","brown","[""yellow"",""brown"",""high nameability""]","right-left","[""brown"",""yellow""]","5","high nameability","42","right","trigger",""
"html-button-response","206","414521","0.0-157.0-0.0","CKN_102","102","","","","","","1555","<button class=""jspsych-btn""><img src=""stimuli/yellow.png"" style=""width: 200px;height: 200px;""></button>","1","yellow","brown","[""yellow"",""brown"",""high nameability""]","right-left","[""brown"",""yellow""]","5","high nameability","42","right","response","1"
"html-audio-button-response","207","414731","0.0-157.0-1.0","CKN_102","102","","","","","","null","stimuli/bleep.m4a","null","yellow","brown","[""yellow"",""brown"",""high nameability""]","right-left","[""brown"",""yellow""]","5","high nameability","42","right","audio_feedback","1"
"html-button-response","208","415254","0.0-158.0","CKN_102","102","","","","","","null","<button class=""jspsych-btn""><img src=""stimuli/white_square.png"" style=""width: 200px;height: 200px;""></button>","null","yellow","brown","[""yellow"",""brown"",""high nameability""]","right-left","[""brown"",""yellow""]","5","high nameability","42","right","iti",""
"html-button-response","209","422165","0.0-159.0","CKN_102","102","","","","","","6900","","0","brown","yellow","[""brown"",""yellow"",""high nameability""]","left-right","[""brown"",""yellow"",""high nameability""]","5","high nameability","43","left","trigger",""
"html-button-response","210","423946","0.0-160.0-0.0","CKN_102","102","","","","","","1771","<button class=""jspsych-btn""><img src=""stimuli/brown.png"" style=""width: 200px;height: 200px;""></button>","0","brown","yellow","[""brown"",""yellow"",""high nameability""]","left-right","[""brown"",""yellow"",""high nameability""]","5","high nameability","43","left","response","1"
"html-audio-button-response","211","424159","0.0-160.0-1.0","CKN_102","102","","","","","","null","stimuli/bleep.m4a","null","brown","yellow","[""brown"",""yellow"",""high nameability""]","left-right","[""brown"",""yellow"",""high nameability""]","5","high nameability","43","left","audio_feedback","1"
"html-button-response","212","424672","0.0-161.0","CKN_102","102","","","","","","null","<button class=""jspsych-btn""><img src=""stimuli/white_square.png"" style=""width: 200px;height: 200px;""></button>","null","brown","yellow","[""brown"",""yellow"",""high nameability""]","left-right","[""brown"",""yellow"",""high nameability""]","5","high nameability","43","left","iti",""
"html-button-response","213","425729","0.0-162.0","CKN_102","102","","","","","","1045","","0","mustard","turquoise","[""mustard"",""turquoise"",""low nameability""]","left-right","[""mustard"",""turquoise"",""low nameability""]","5","low nameability","44","left","trigger",""
"html-button-response","214","426937","0.0-163.0-0.0","CKN_102","102","","","","","","1201","<button class=""jspsych-btn""><img src=""stimuli/mustard.png"" style=""width: 200px;height: 200px;""></button>","0","mustard","turquoise","[""mustard"",""turquoise"",""low nameability""]","left-right","[""mustard"",""turquoise"",""low nameability""]","5","low nameability","44","left","response","1"
"html-audio-button-response","215","427144","0.0-163.0-1.0","CKN_102","102","","","","","","null","stimuli/bleep.m4a","null","mustard","turquoise","[""mustard"",""turquoise"",""low nameability""]","left-right","[""mustard"",""turquoise"",""low nameability""]","5","low nameability","44","left","audio_feedback","1"
"html-button-response","216","427663","0.0-164.0","CKN_102","102","","","","","","null","<button class=""jspsych-btn""><img src=""stimuli/white_square.png"" style=""width: 200px;height: 200px;""></button>","null","mustard","turquoise","[""mustard"",""turquoise"",""low nameability""]","left-right","[""mustard"",""turquoise"",""low nameability""]","5","low nameability","44","left","iti",""
"html-button-response","217","428534","0.0-165.0","CKN_102","102","","","","","","859","","0","blue","red","[""blue"",""red"",""high nameability""]","left-right","[""blue"",""red"",""high nameability""]","5","high nameability","45","left","trigger",""
"html-button-response","218","429831","0.0-166.0-0.0","CKN_102","102","","","","","","1289","<button class=""jspsych-btn""><img src=""stimuli/blue.png"" style=""width: 200px;height: 200px;""></button>","0","blue","red","[""blue"",""red"",""high nameability""]","left-right","[""blue"",""red"",""high nameability""]","5","high nameability","45","left","response","1"
"html-audio-button-response","219","430042","0.0-166.0-1.0","CKN_102","102","","","","","","null","stimuli/bleep.m4a","null","blue","red","[""blue"",""red"",""high nameability""]","left-right","[""blue"",""red"",""high nameability""]","5","high nameability","45","left","audio_feedback","1"
"html-button-response","220","430554","0.0-167.0","CKN_102","102","","","","","","null","<button class=""jspsych-btn""><img src=""stimuli/white_square.png"" style=""width: 200px;height: 200px;""></button>","null","blue","red","[""blue"",""red"",""high nameability""]","left-right","[""blue"",""red"",""high nameability""]","5","high nameability","45","left","iti",""
"html-button-response","221","431525","0.0-168.0","CKN_102","102","","","","","","960","","0","red","purple","[""red"",""purple"",""high nameability""]","left-right","[""red"",""purple"",""high nameability""]","5","high nameability","46","left","trigger",""
"html-button-response","222","433120","0.0-169.0-0.0","CKN_102","102","","","","","","1584","<button class=""jspsych-btn""><img src=""stimuli/red.png"" style=""width: 200px;height: 200px;""></button>","0","red","purple","[""red"",""purple"",""high nameability""]","left-right","[""red"",""purple"",""high nameability""]","5","high nameability","46","left","response","1"
"html-audio-button-response","223","433326","0.0-169.0-1.0","CKN_102","102","","","","","","null","stimuli/bleep.m4a","null","red","purple","[""red"",""purple"",""high nameability""]","left-right","[""red"",""purple"",""high nameability""]","5","high nameability","46","left","audio_feedback","1"
"html-button-response","224","433840","0.0-170.0","CKN_102","102","","","","","","null","<button class=""jspsych-btn""><img src=""stimuli/white_square.png"" style=""width: 200px;height: 200px;""></button>","null","red","purple","[""red"",""purple"",""high nameability""]","left-right","[""red"",""purple"",""high nameability""]","5","high nameability","46","left","iti",""
"html-button-response","225","435387","0.0-171.0","CKN_102","102","","","","","","1529","","0","turquoise","mustard","[""turquoise"",""mustard"",""low nameability""]","right-left","[""mustard"",""turquoise""]","5","low nameability","47","right","trigger",""
"html-button-response","226","437003","0.0-172.0-0.0","CKN_102","102","","","","","","1605","<button class=""jspsych-btn""><img src=""stimuli/turquoise.png"" style=""width: 200px;height: 200px;""></button>","1","turquoise","mustard","[""turquoise"",""mustard"",""low nameability""]","right-left","[""mustard"",""turquoise""]","5","low nameability","47","right","response","1"
"html-audio-button-response","227","437212","0.0-172.0-1.0","CKN_102","102","","","","","","null","stimuli/bleep.m4a","null","turquoise","mustard","[""turquoise"",""mustard"",""low nameability""]","right-left","[""mustard"",""turquoise""]","5","low nameability","47","right","audio_feedback","1"
"html-button-response","228","437723","0.0-173.0","CKN_102","102","","","","","","null","<button class=""jspsych-btn""><img src=""stimuli/white_square.png"" style=""width: 200px;height: 200px;""></button>","null","turquoise","mustard","[""turquoise"",""mustard"",""low nameability""]","right-left","[""mustard"",""turquoise""]","5","low nameability","47","right","iti",""
"html-button-response","229","438549","0.0-174.0","CKN_102","102","","","","","","820","","0","mustard","lightred","[""mustard"",""lightred"",""low nameability""]","right-left","[""lightred"",""mustard""]","5","low nameability","48","right","trigger",""
"html-button-response","230","440751","0.0-175.0-0.0","CKN_102","102","","","","","","2193","<button class=""jspsych-btn""><img src=""stimuli/mustard.png"" style=""width: 200px;height: 200px;""></button>","1","mustard","lightred","[""mustard"",""lightred"",""low nameability""]","right-left","[""lightred"",""mustard""]","5","low nameability","48","right","response","1"
"html-audio-button-response","231","440952","0.0-175.0-1.0","CKN_102","102","","","","","","null","stimuli/bleep.m4a","null","mustard","lightred","[""mustard"",""lightred"",""low nameability""]","right-left","[""lightred"",""mustard""]","5","low nameability","48","right","audio_feedback","1"
"html-button-response","232","441466","0.0-176.0","CKN_102","102","","","","","","null","<button class=""jspsych-btn""><img src=""stimuli/white_square.png"" style=""width: 200px;height: 200px;""></button>","null","mustard","lightred","[""mustard"",""lightred"",""low nameability""]","right-left","[""lightred"",""mustard""]","5","low nameability","48","right","iti",""
"html-button-response","233","442089","0.0-177.0","CKN_102","102","","","","","","610","","0","brown","purple","[""brown"",""purple"",""high nameability""]","left-right","[""brown"",""purple"",""high nameability""]","5","high nameability","49","left","trigger",""
"html-button-response","234","443512","0.0-178.0-0.0","CKN_102","102","","","","","","1415","<button class=""jspsych-btn""><img src=""stimuli/brown.png"" style=""width: 200px;height: 200px;""></button>","0","brown","purple","[""brown"",""purple"",""high nameability""]","left-right","[""brown"",""purple"",""high nameability""]","5","high nameability","49","left","response","1"
"html-audio-button-response","235","443711","0.0-178.0-1.0","CKN_102","102","","","","","","null","stimuli/bleep.m4a","null","brown","purple","[""brown"",""purple"",""high nameability""]","left-right","[""brown"",""purple"",""high nameability""]","5","high nameability","49","left","audio_feedback","1"
"html-button-response","236","444224","0.0-179.0","CKN_102","102","","","","","","null","<button class=""jspsych-btn""><img src=""stimuli/white_square.png"" style=""width: 200px;height: 200px;""></button>","null","brown","purple","[""brown"",""purple"",""high nameability""]","left-right","[""brown"",""purple"",""high nameability""]","5","high nameability","49","left","iti",""
"html-button-response","237","444769","0.0-180.0","CKN_102","102","","","","","","532","","0","orange","yellow","[""orange"",""yellow"",""high nameability""]","right-left","[""yellow"",""orange""]","5","high nameability","50","right","trigger",""
"html-button-response","238","446764","0.0-181.0-0.0","CKN_102","102","","","","","","1988","<button class=""jspsych-btn""><img src=""stimuli/orange.png"" style=""width: 200px;height: 200px;""></button>","1","orange","yellow","[""orange"",""yellow"",""high nameability""]","right-left","[""yellow"",""orange""]","5","high nameability","50","right","response","1"
"html-audio-button-response","239","446969","0.0-181.0-1.0","CKN_102","102","","","","","","null","stimuli/bleep.m4a","null","orange","yellow","[""orange"",""yellow"",""high nameability""]","right-left","[""yellow"",""orange""]","5","high nameability","50","right","audio_feedback","1"
"html-button-response","240","447482","0.0-182.0","CKN_102","102","","","","","","null","<button class=""jspsych-btn""><img src=""stimuli/white_square.png"" style=""width: 200px;height: 200px;""></button>","null","orange","yellow","[""orange"",""yellow"",""high nameability""]","right-left","[""yellow"",""orange""]","5","high nameability","50","right","iti",""
"pavlovia","241","447547","0.0-183.0","CKN_102","102","","","","","","","","","","","","","","","","","","",""
"pavlovia","242","447551","0.0-184.0","CKN_102","102","","","","","","","","","","","","","","","","","","",""
"html-audio-button-response","243","453091","0.0-185.0","CKN_102","102","","","","","","5600","stimuli/tada.m4a","0","","","","","","","","","","",""
"html-button-response","244","453818","0.0-186.0","CKN_102","102","","","","","","722","","0","","","","","","","","","","",""
"html-button-response","245","462563","0.0-187.0","CKN_102","102","","","","","","8736","","0","purple","red","[""purple"",""red"",""high nameability""]","left-right","[""purple"",""red"",""high nameability""]","6","high nameability","51","left","trigger",""
"html-button-response","246","465385","0.0-188.0-0.0","CKN_102","102","","","","","","2814","<button class=""jspsych-btn""><img src=""stimuli/purple.png"" style=""width: 200px;height: 200px;""></button>","0","purple","red","[""purple"",""red"",""high nameability""]","left-right","[""purple"",""red"",""high nameability""]","6","high nameability","51","left","response","1"
"html-audio-button-response","247","465595","0.0-188.0-1.0","CKN_102","102","","","","","","null","stimuli/bleep.m4a","null","purple","red","[""purple"",""red"",""high nameability""]","left-right","[""purple"",""red"",""high nameability""]","6","high nameability","51","left","audio_feedback","1"
"html-button-response","248","466107","0.0-189.0","CKN_102","102","","","","","","null","<button class=""jspsych-btn""><img src=""stimuli/white_square.png"" style=""width: 200px;height: 200px;""></button>","null","purple","red","[""purple"",""red"",""high nameability""]","left-right","[""purple"",""red"",""high nameability""]","6","high nameability","51","left","iti",""
"html-button-response","249","471857","0.0-190.0","CKN_102","102","","","","","","5725","","0","brown","red","[""brown"",""red"",""high nameability""]","left-right","[""brown"",""red"",""high nameability""]","6","high nameability","52","left","trigger",""
"html-button-response","250","473086","0.0-191.0-0.0","CKN_102","102","","","","","","1221","<button class=""jspsych-btn""><img src=""stimuli/brown.png"" style=""width: 200px;height: 200px;""></button>","0","brown","red","[""brown"",""red"",""high nameability""]","left-right","[""brown"",""red"",""high nameability""]","6","high nameability","52","left","response","1"
"html-audio-button-response","251","473293","0.0-191.0-1.0","CKN_102","102","","","","","","null","stimuli/bleep.m4a","null","brown","red","[""brown"",""red"",""high nameability""]","left-right","[""brown"",""red"",""high nameability""]","6","high nameability","52","left","audio_feedback","1"
"html-button-response","252","473802","0.0-192.0","CKN_102","102","","","","","","null","<button class=""jspsych-btn""><img src=""stimuli/white_square.png"" style=""width: 200px;height: 200px;""></button>","null","brown","red","[""brown"",""red"",""high nameability""]","left-right","[""brown"",""red"",""high nameability""]","6","high nameability","52","left","iti",""
"html-button-response","253","475538","0.0-193.0","CKN_102","102","","","","","","1730","","0","pink","lightred","[""pink"",""lightred"",""low nameability""]","right-left","[""lightred"",""pink""]","6","low nameability","53","right","trigger",""
"html-button-response","254","478759","0.0-194.0-0.0","CKN_102","102","","","","","","3213","<button class=""jspsych-btn""><img src=""stimuli/pink.png"" style=""width: 200px;height: 200px;""></button>","1","pink","lightred","[""pink"",""lightred"",""low nameability""]","right-left","[""lightred"",""pink""]","6","low nameability","53","right","response","1"
"html-audio-button-response","255","478961","0.0-194.0-1.0","CKN_102","102","","","","","","null","stimuli/bleep.m4a","null","pink","lightred","[""pink"",""lightred"",""low nameability""]","right-left","[""lightred"",""pink""]","6","low nameability","53","right","audio_feedback","1"
"html-button-response","256","479476","0.0-195.0","CKN_102","102","","","","","","null","<button class=""jspsych-btn""><img src=""stimuli/white_square.png"" style=""width: 200px;height: 200px;""></button>","null","pink","lightred","[""pink"",""lightred"",""low nameability""]","right-left","[""lightred"",""pink""]","6","low nameability","53","right","iti",""
"html-button-response","257","480341","0.0-196.0","CKN_102","102","","","","","","853","","0","neonyellow","turquoise","[""neonyellow"",""turquoise"",""low nameability""]","right-left","[""turquoise"",""neonyellow""]","6","low nameability","54","right","trigger",""
"html-button-response","258","485124","0.0-197.0-0.0","CKN_102","102","","","","","","4773","<button class=""jspsych-btn""><img src=""stimuli/neonyellow.png"" style=""width: 200px;height: 200px;""></button>","1","neonyellow","turquoise","[""neonyellow"",""turquoise"",""low nameability""]","right-left","[""turquoise"",""neonyellow""]","6","low nameability","54","right","response","1"
"html-audio-button-response","259","485333","0.0-197.0-1.0","CKN_102","102","","","","","","null","stimuli/bleep.m4a","null","neonyellow","turquoise","[""neonyellow"",""turquoise"",""low nameability""]","right-left","[""turquoise"",""neonyellow""]","6","low nameability","54","right","audio_feedback","1"
"html-button-response","260","485846","0.0-198.0","CKN_102","102","","","","","","null","<button class=""jspsych-btn""><img src=""stimuli/white_square.png"" style=""width: 200px;height: 200px;""></button>","null","neonyellow","turquoise","[""neonyellow"",""turquoise"",""low nameability""]","right-left","[""turquoise"",""neonyellow""]","6","low nameability","54","right","iti",""
"html-button-response","261","495547","0.0-199.0","CKN_102","102","","","","","","9691","","0","darkgreenblue","neonyellow","[""darkgreenblue"",""neonyellow"",""low nameability""]","left-right","[""darkgreenblue"",""neonyellow"",""low nameability""]","6","low nameability","55","left","trigger",""
"html-button-response","262","497655","0.0-200.0-0.0","CKN_102","102","","","","","","2099","<button class=""jspsych-btn""><img src=""stimuli/darkgreenblue.png"" style=""width: 200px;height: 200px;""></button>","0","darkgreenblue","neonyellow","[""darkgreenblue"",""neonyellow"",""low nameability""]","left-right","[""darkgreenblue"",""neonyellow"",""low nameability""]","6","low nameability","55","left","response","1"
"html-audio-button-response","263","497863","0.0-200.0-1.0","CKN_102","102","","","","","","null","stimuli/bleep.m4a","null","darkgreenblue","neonyellow","[""darkgreenblue"",""neonyellow"",""low nameability""]","left-right","[""darkgreenblue"",""neonyellow"",""low nameability""]","6","low nameability","55","left","audio_feedback","1"
"html-button-response","264","498375","0.0-201.0","CKN_102","102","","","","","","null","<button class=""jspsych-btn""><img src=""stimuli/white_square.png"" style=""width: 200px;height: 200px;""></button>","null","darkgreenblue","neonyellow","[""darkgreenblue"",""neonyellow"",""low nameability""]","left-right","[""darkgreenblue"",""neonyellow"",""low nameability""]","6","low nameability","55","left","iti",""
"html-button-response","265","499352","0.0-202.0","CKN_102","102","","","","","","965","","0","neonyellow","darkgreenblue","[""neonyellow"",""darkgreenblue"",""low nameability""]","right-left","[""darkgreenblue"",""neonyellow""]","6","low nameability","56","right","trigger",""
"html-button-response","266","501471","0.0-203.0-0.0","CKN_102","102","","","","","","2111","<button class=""jspsych-btn""><img src=""stimuli/neonyellow.png"" style=""width: 200px;height: 200px;""></button>","1","neonyellow","darkgreenblue","[""neonyellow"",""darkgreenblue"",""low nameability""]","right-left","[""darkgreenblue"",""neonyellow""]","6","low nameability","56","right","response","1"
"html-audio-button-response","267","501678","0.0-203.0-1.0","CKN_102","102","","","","","","null","stimuli/bleep.m4a","null","neonyellow","darkgreenblue","[""neonyellow"",""darkgreenblue"",""low nameability""]","right-left","[""darkgreenblue"",""neonyellow""]","6","low nameability","56","right","audio_feedback","1"
"html-button-response","268","502190","0.0-204.0","CKN_102","102","","","","","","null","<button class=""jspsych-btn""><img src=""stimuli/white_square.png"" style=""width: 200px;height: 200px;""></button>","null","neonyellow","darkgreenblue","[""neonyellow"",""darkgreenblue"",""low nameability""]","right-left","[""darkgreenblue"",""neonyellow""]","6","low nameability","56","right","iti",""
"html-button-response","269","503243","0.0-205.0","CKN_102","102","","","","","","1043","","0","lightred","pink","[""lightred"",""pink"",""low nameability""]","left-right","[""lightred"",""pink"",""low nameability""]","6","low nameability","57","left","trigger",""
"html-button-response","270","504700","0.0-206.0-0.0","CKN_102","102","","","","","","1449","<button class=""jspsych-btn""><img src=""stimuli/lightred.png"" style=""width: 200px;height: 200px;""></button>","0","lightred","pink","[""lightred"",""pink"",""low nameability""]","left-right","[""lightred"",""pink"",""low nameability""]","6","low nameability","57","left","response","1"
"html-audio-button-response","271","504906","0.0-206.0-1.0","CKN_102","102","","","","","","null","stimuli/bleep.m4a","null","lightred","pink","[""lightred"",""pink"",""low nameability""]","left-right","[""lightred"",""pink"",""low nameability""]","6","low nameability","57","left","audio_feedback","1"
"html-button-response","272","505417","0.0-207.0","CKN_102","102","","","","","","null","<button class=""jspsych-btn""><img src=""stimuli/white_square.png"" style=""width: 200px;height: 200px;""></button>","null","lightred","pink","[""lightred"",""pink"",""low nameability""]","left-right","[""lightred"",""pink"",""low nameability""]","6","low nameability","57","left","iti",""
"html-button-response","273","506409","0.0-208.0","CKN_102","102","","","","","","980","","0","turquoise","darkgreenblue","[""turquoise"",""darkgreenblue"",""low nameability""]","left-right","[""turquoise"",""darkgreenblue"",""low nameability""]","6","low nameability","58","left","trigger",""
"html-button-response","274","507735","0.0-209.0-0.0","CKN_102","102","","","","","","1318","<button class=""jspsych-btn""><img src=""stimuli/turquoise.png"" style=""width: 200px;height: 200px;""></button>","0","turquoise","darkgreenblue","[""turquoise"",""darkgreenblue"",""low nameability""]","left-right","[""turquoise"",""darkgreenblue"",""low nameability""]","6","low nameability","58","left","response","1"
"html-audio-button-response","275","507942","0.0-209.0-1.0","CKN_102","102","","","","","","null","stimuli/bleep.m4a","null","turquoise","darkgreenblue","[""turquoise"",""darkgreenblue"",""low nameability""]","left-right","[""turquoise"",""darkgreenblue"",""low nameability""]","6","low nameability","58","left","audio_feedback","1"
"html-button-response","276","508454","0.0-210.0","CKN_102","102","","","","","","null","<button class=""jspsych-btn""><img src=""stimuli/white_square.png"" style=""width: 200px;height: 200px;""></button>","null","turquoise","darkgreenblue","[""turquoise"",""darkgreenblue"",""low nameability""]","left-right","[""turquoise"",""darkgreenblue"",""low nameability""]","6","low nameability","58","left","iti",""
"html-button-response","277","509432","0.0-211.0","CKN_102","102","","","","","","964","","0","mustard","darkgreenblue","[""mustard"",""darkgreenblue"",""low nameability""]","right-left","[""darkgreenblue"",""mustard""]","6","low nameability","59","right","trigger",""
"html-button-response","278","510728","0.0-212.0-0.0","CKN_102","102","","","","","","1288","<button class=""jspsych-btn""><img src=""stimuli/mustard.png"" style=""width: 200px;height: 200px;""></button>","1","mustard","darkgreenblue","[""mustard"",""darkgreenblue"",""low nameability""]","right-left","[""darkgreenblue"",""mustard""]","6","low nameability","59","right","response","1"
"html-audio-button-response","279","510939","0.0-212.0-1.0","CKN_102","102","","","","","","null","stimuli/bleep.m4a","null","mustard","darkgreenblue","[""mustard"",""darkgreenblue"",""low nameability""]","right-left","[""darkgreenblue"",""mustard""]","6","low nameability","59","right","audio_feedback","1"
"html-button-response","280","511456","0.0-213.0","CKN_102","102","","","","","","null","<button class=""jspsych-btn""><img src=""stimuli/white_square.png"" style=""width: 200px;height: 200px;""></button>","null","mustard","darkgreenblue","[""mustard"",""darkgreenblue"",""low nameability""]","right-left","[""darkgreenblue"",""mustard""]","6","low nameability","59","right","iti",""
"html-button-response","281","512871","0.0-214.0","CKN_102","102","","","","","","1402","","0","red","brown","[""red"",""brown"",""high nameability""]","right-left","[""brown"",""red""]","6","high nameability","60","right","trigger",""
"html-button-response","282","517245","0.0-215.0-0.0","CKN_102","102","","","","","","4364","<button class=""jspsych-btn""><img src=""stimuli/red.png"" style=""width: 200px;height: 200px;""></button>","1","red","brown","[""red"",""brown"",""high nameability""]","right-left","[""brown"",""red""]","6","high nameability","60","right","response","1"
"html-audio-button-response","283","517447","0.0-215.0-1.0","CKN_102","102","","","","","","null","stimuli/bleep.m4a","null","red","brown","[""red"",""brown"",""high nameability""]","right-left","[""brown"",""red""]","6","high nameability","60","right","audio_feedback","1"
"html-button-response","284","517958","0.0-216.0","CKN_102","102","","","","","","null","<button class=""jspsych-btn""><img src=""stimuli/white_square.png"" style=""width: 200px;height: 200px;""></button>","null","red","brown","[""red"",""brown"",""high nameability""]","right-left","[""brown"",""red""]","6","high nameability","60","right","iti",""
