"trial_type","trial_index","time_elapsed","internal_node_id","subject_id","seed","success","timeout","failed_images","failed_audio","failed_video","rt","stimulus","response","target","foil","choices","combination_order","choices_in_order","round","condition","trial_counter","target_location","trial_kind","correct"
"pavlovia","0","22","0.0-0.0","CKN_135","135","","","","","","","","","","","","","","","","","","",""
"preload","1","668","0.0-1.0","CKN_135","135","true","false","[]","[]","[]","","","","","","","","","","","","","",""
"fullscreen","2","2461","0.0-2.0","CKN_135","135","true","","","","","","","","","","","","","","","","","",""
"html-button-response","3","169831","0.0-3.0","CKN_135","135","","","","","","167357","","0","","","","","","","","","","",""
"html-button-response","4","173070","0.0-4.0","CKN_135","135","","","","","","3230","","0","star","square","[""square"",""star""]","left-right","[""square"",""star""]","1","practice","1","right","trigger",""
"html-button-response","5","184553","0.0-5.0-0.0","CKN_135","135","","","","","","11473","<button class=""jspsych-btn""><img src=""stimuli/star.png"" style=""width: 200px;height: 200px;""></button>","1","star","square","[""square"",""star""]","left-right","[""square"",""star""]","1","practice","1","right","response","1"
"html-audio-button-response","6","184769","0.0-5.0-1.0","CKN_135","135","","","","","","null","stimuli/bleep.m4a","null","star","square","[""square"",""star""]","left-right","[""square"",""star""]","1","practice","1","right","audio_feedback","1"
"html-button-response","7","185302","0.0-6.0","CKN_135","135","","","","","","null","<button class=""jspsych-btn""><img src=""stimuli/white_square.png"" style=""width: 200px;height: 200px;""></button>","null","star","square","[""square"",""star""]","left-right","[""square"",""star""]","1","practice","1","right","iti",""
"html-button-response","8","189302","0.0-7.0","CKN_135","135","","","","","","3993","","0","triangle","pentagram","[""triangle"",""pentagram""]","left-right","[""triangle"",""pentagram""]","1","practice","1","left","trigger",""
"html-button-response","9","190544","0.0-8.0-0.0","CKN_135","135","","","","","","1236","<button class=""jspsych-btn""><img src=""stimuli/triangle.png"" style=""width: 200px;height: 200px;""></button>","1","triangle","pentagram","[""triangle"",""pentagram""]","left-right","[""triangle"",""pentagram""]","1","practice","1","left","response","0"
"html-audio-button-response","10","191170","0.0-8.0-1.0","CKN_135","135","","","","","","null","stimuli/boing.m4a","null","triangle","pentagram","[""triangle"",""pentagram""]","left-right","[""triangle"",""pentagram""]","1","practice","1","left","audio_feedback","0"
"html-button-response","11","196531","0.0-8.1-0.1","CKN_135","135","","","","","","5350","<button class=""jspsych-btn""><img src=""stimuli/triangle.png"" style=""width: 200px;height: 200px;""></button>","0","triangle","pentagram","[""triangle"",""pentagram""]","left-right","[""triangle"",""pentagram""]","1","practice","1","left","response","1"
"html-audio-button-response","12","196739","0.0-8.1-1.1","CKN_135","135","","","","","","null","stimuli/bleep.m4a","null","triangle","pentagram","[""triangle"",""pentagram""]","left-right","[""triangle"",""pentagram""]","1","practice","1","left","audio_feedback","1"
"html-button-response","13","197259","0.0-9.0","CKN_135","135","","","","","","null","<button class=""jspsych-btn""><img src=""stimuli/white_square.png"" style=""width: 200px;height: 200px;""></button>","null","triangle","pentagram","[""triangle"",""pentagram""]","left-right","[""triangle"",""pentagram""]","1","practice","1","left","iti",""
"html-button-response","14","200023","0.0-10.0","CKN_135","135","","","","","","2755","","0","diamond","rectangle","[""rectangle"",""diamond""]","left-right","[""rectangle"",""diamond""]","1","practice","1","right","trigger",""
"html-button-response","15","201705","0.0-11.0-0.0","CKN_135","135","","","","","","1674","<button class=""jspsych-btn""><img src=""stimuli/diamond.png"" style=""width: 200px;height: 200px;""></button>","0","diamond","rectangle","[""rectangle"",""diamond""]","left-right","[""rectangle"",""diamond""]","1","practice","1","right","response","0"
"html-audio-button-response","16","202350","0.0-11.0-1.0","CKN_135","135","","","","","","null","stimuli/boing.m4a","null","diamond","rectangle","[""rectangle"",""diamond""]","left-right","[""rectangle"",""diamond""]","1","practice","1","right","audio_feedback","0"
"html-button-response","17","202919","0.0-11.1-0.1","CKN_135","135","","","","","","540","<button class=""jspsych-btn""><img src=""stimuli/diamond.png"" style=""width: 200px;height: 200px;""></button>","1","diamond","rectangle","[""rectangle"",""diamond""]","left-right","[""rectangle"",""diamond""]","1","practice","1","right","response","1"
"html-audio-button-response","18","203130","0.0-11.1-1.1","CKN_135","135","","","","","","null","stimuli/bleep.m4a","null","diamond","rectangle","[""rectangle"",""diamond""]","left-right","[""rectangle"",""diamond""]","1","practice","1","right","audio_feedback","1"
"html-button-response","19","203650","0.0-12.0","CKN_135","135","","","","","","null","<button class=""jspsych-btn""><img src=""stimuli/white_square.png"" style=""width: 200px;height: 200px;""></button>","null","diamond","rectangle","[""rectangle"",""diamond""]","left-right","[""rectangle"",""diamond""]","1","practice","1","right","iti",""
"html-button-response","20","209948","0.0-13.0","CKN_135","135","","","","","","6282","","0","pentagram","star","[""pentagram"",""star""]","left-right","[""pentagram"",""star""]","1","practice","1","left","trigger",""
"html-button-response","21","212393","0.0-14.0-0.0","CKN_135","135","","","","","","2437","<button class=""jspsych-btn""><img src=""stimuli/pentagram.png"" style=""width: 200px;height: 200px;""></button>","1","pentagram","star","[""pentagram"",""star""]","left-right","[""pentagram"",""star""]","1","practice","1","left","response","0"
"html-audio-button-response","22","213019","0.0-14.0-1.0","CKN_135","135","","","","","","null","stimuli/boing.m4a","null","pentagram","star","[""pentagram"",""star""]","left-right","[""pentagram"",""star""]","1","practice","1","left","audio_feedback","0"
"html-button-response","23","213466","0.0-14.1-0.1","CKN_135","135","","","","","","430","<button class=""jspsych-btn""><img src=""stimuli/pentagram.png"" style=""width: 200px;height: 200px;""></button>","0","pentagram","star","[""pentagram"",""star""]","left-right","[""pentagram"",""star""]","1","practice","1","left","response","1"
"html-audio-button-response","24","213671","0.0-14.1-1.1","CKN_135","135","","","","","","null","stimuli/bleep.m4a","null","pentagram","star","[""pentagram"",""star""]","left-right","[""pentagram"",""star""]","1","practice","1","left","audio_feedback","1"
"html-button-response","25","214189","0.0-15.0","CKN_135","135","","","","","","null","<button class=""jspsych-btn""><img src=""stimuli/white_square.png"" style=""width: 200px;height: 200px;""></button>","null","pentagram","star","[""pentagram"",""star""]","left-right","[""pentagram"",""star""]","1","practice","1","left","iti",""
"html-button-response","26","219905","0.0-16.0","CKN_135","135","","","","","","5707","","0","","","","","","","","","","",""
"html-button-response","27","221325","0.0-17.0","CKN_135","135","","","","","","1415","","0","mustard","pink","[""mustard"",""pink"",""low nameability""]","right-left","[""pink"",""mustard""]","1","low nameability","1","right","trigger",""
"html-button-response","28","223849","0.0-18.0-0.0","CKN_135","135","","","","","","2515","<button class=""jspsych-btn""><img src=""stimuli/mustard.png"" style=""width: 200px;height: 200px;""></button>","0","mustard","pink","[""mustard"",""pink"",""low nameability""]","right-left","[""pink"",""mustard""]","1","low nameability","1","right","response","0"
"html-audio-button-response","29","224494","0.0-18.0-1.0","CKN_135","135","","","","","","null","stimuli/boing.m4a","null","mustard","pink","[""mustard"",""pink"",""low nameability""]","right-left","[""pink"",""mustard""]","1","low nameability","1","right","audio_feedback","0"
"html-button-response","30","226808","0.0-18.1-0.1","CKN_135","135","","","","","","2291","<button class=""jspsych-btn""><img src=""stimuli/mustard.png"" style=""width: 200px;height: 200px;""></button>","1","mustard","pink","[""mustard"",""pink"",""low nameability""]","right-left","[""pink"",""mustard""]","1","low nameability","1","right","response","1"
"html-audio-button-response","31","227010","0.0-18.1-1.1","CKN_135","135","","","","","","null","stimuli/bleep.m4a","null","mustard","pink","[""mustard"",""pink"",""low nameability""]","right-left","[""pink"",""mustard""]","1","low nameability","1","right","audio_feedback","1"
"html-button-response","32","227539","0.0-19.0","CKN_135","135","","","","","","null","<button class=""jspsych-btn""><img src=""stimuli/white_square.png"" style=""width: 200px;height: 200px;""></button>","null","mustard","pink","[""mustard"",""pink"",""low nameability""]","right-left","[""pink"",""mustard""]","1","low nameability","1","right","iti",""
"html-button-response","33","228886","0.0-20.0","CKN_135","135","","","","","","1324","","0","darkgreenblue","mustard","[""darkgreenblue"",""mustard"",""low nameability""]","right-left","[""mustard"",""darkgreenblue""]","1","low nameability","2","right","trigger",""
"html-button-response","34","236891","0.0-21.0-0.0","CKN_135","135","","","","","","7998","<button class=""jspsych-btn""><img src=""stimuli/darkgreenblue.png"" style=""width: 200px;height: 200px;""></button>","1","darkgreenblue","mustard","[""darkgreenblue"",""mustard"",""low nameability""]","right-left","[""mustard"",""darkgreenblue""]","1","low nameability","2","right","response","1"
"html-audio-button-response","35","237101","0.0-21.0-1.0","CKN_135","135","","","","","","null","stimuli/bleep.m4a","null","darkgreenblue","mustard","[""darkgreenblue"",""mustard"",""low nameability""]","right-left","[""mustard"",""darkgreenblue""]","1","low nameability","2","right","audio_feedback","1"
"html-button-response","36","237628","0.0-22.0","CKN_135","135","","","","","","null","<button class=""jspsych-btn""><img src=""stimuli/white_square.png"" style=""width: 200px;height: 200px;""></button>","null","darkgreenblue","mustard","[""darkgreenblue"",""mustard"",""low nameability""]","right-left","[""mustard"",""darkgreenblue""]","1","low nameability","2","right","iti",""
"html-button-response","37","240273","0.0-23.0","CKN_135","135","","","","","","2634","","0","yellow","purple","[""yellow"",""purple"",""high nameability""]","left-right","[""yellow"",""purple"",""high nameability""]","1","high nameability","3","left","trigger",""
"html-button-response","38","241584","0.0-24.0-0.0","CKN_135","135","","","","","","1306","<button class=""jspsych-btn""><img src=""stimuli/yellow.png"" style=""width: 200px;height: 200px;""></button>","0","yellow","purple","[""yellow"",""purple"",""high nameability""]","left-right","[""yellow"",""purple"",""high nameability""]","1","high nameability","3","left","response","1"
"html-audio-button-response","39","241787","0.0-24.0-1.0","CKN_135","135","","","","","","null","stimuli/bleep.m4a","null","yellow","purple","[""yellow"",""purple"",""high nameability""]","left-right","[""yellow"",""purple"",""high nameability""]","1","high nameability","3","left","audio_feedback","1"
"html-button-response","40","242307","0.0-25.0","CKN_135","135","","","","","","null","<button class=""jspsych-btn""><img src=""stimuli/white_square.png"" style=""width: 200px;height: 200px;""></button>","null","yellow","purple","[""yellow"",""purple"",""high nameability""]","left-right","[""yellow"",""purple"",""high nameability""]","1","high nameability","3","left","iti",""
"html-button-response","41","243584","0.0-26.0","CKN_135","135","","","","","","1265","","0","yellow","blue","[""yellow"",""blue"",""high nameability""]","right-left","[""blue"",""yellow""]","1","high nameability","4","right","trigger",""
"html-button-response","42","244604","0.0-27.0-0.0","CKN_135","135","","","","","","1015","<button class=""jspsych-btn""><img src=""stimuli/yellow.png"" style=""width: 200px;height: 200px;""></button>","1","yellow","blue","[""yellow"",""blue"",""high nameability""]","right-left","[""blue"",""yellow""]","1","high nameability","4","right","response","1"
"html-audio-button-response","43","244811","0.0-27.0-1.0","CKN_135","135","","","","","","null","stimuli/bleep.m4a","null","yellow","blue","[""yellow"",""blue"",""high nameability""]","right-left","[""blue"",""yellow""]","1","high nameability","4","right","audio_feedback","1"
"html-button-response","44","245326","0.0-28.0","CKN_135","135","","","","","","null","<button class=""jspsych-btn""><img src=""stimuli/white_square.png"" style=""width: 200px;height: 200px;""></button>","null","yellow","blue","[""yellow"",""blue"",""high nameability""]","right-left","[""blue"",""yellow""]","1","high nameability","4","right","iti",""
"html-button-response","45","246387","0.0-29.0","CKN_135","135","","","","","","1048","","0","neonyellow","turquoise","[""neonyellow"",""turquoise"",""low nameability""]","right-left","[""turquoise"",""neonyellow""]","1","low nameability","5","right","trigger",""
"html-button-response","46","247337","0.0-30.0-0.0","CKN_135","135","","","","","","945","<button class=""jspsych-btn""><img src=""stimuli/neonyellow.png"" style=""width: 200px;height: 200px;""></button>","1","neonyellow","turquoise","[""neonyellow"",""turquoise"",""low nameability""]","right-left","[""turquoise"",""neonyellow""]","1","low nameability","5","right","response","1"
"html-audio-button-response","47","247539","0.0-30.0-1.0","CKN_135","135","","","","","","null","stimuli/bleep.m4a","null","neonyellow","turquoise","[""neonyellow"",""turquoise"",""low nameability""]","right-left","[""turquoise"",""neonyellow""]","1","low nameability","5","right","audio_feedback","1"
"html-button-response","48","248055","0.0-31.0","CKN_135","135","","","","","","null","<button class=""jspsych-btn""><img src=""stimuli/white_square.png"" style=""width: 200px;height: 200px;""></button>","null","neonyellow","turquoise","[""neonyellow"",""turquoise"",""low nameability""]","right-left","[""turquoise"",""neonyellow""]","1","low nameability","5","right","iti",""
"html-button-response","49","249807","0.0-32.0","CKN_135","135","","","","","","1731","","0","lightred","pink","[""lightred"",""pink"",""low nameability""]","left-right","[""lightred"",""pink"",""low nameability""]","1","low nameability","6","left","trigger",""
"html-button-response","50","251798","0.0-33.0-0.0","CKN_135","135","","","","","","1983","<button class=""jspsych-btn""><img src=""stimuli/lightred.png"" style=""width: 200px;height: 200px;""></button>","0","lightred","pink","[""lightred"",""pink"",""low nameability""]","left-right","[""lightred"",""pink"",""low nameability""]","1","low nameability","6","left","response","1"
"html-audio-button-response","51","252003","0.0-33.0-1.0","CKN_135","135","","","","","","null","stimuli/bleep.m4a","null","lightred","pink","[""lightred"",""pink"",""low nameability""]","left-right","[""lightred"",""pink"",""low nameability""]","1","low nameability","6","left","audio_feedback","1"
"html-button-response","52","252512","0.0-34.0","CKN_135","135","","","","","","null","<button class=""jspsych-btn""><img src=""stimuli/white_square.png"" style=""width: 200px;height: 200px;""></button>","null","lightred","pink","[""lightred"",""pink"",""low nameability""]","left-right","[""lightred"",""pink"",""low nameability""]","1","low nameability","6","left","iti",""
"html-button-response","53","257824","0.0-35.0","CKN_135","135","","","","","","5298","","0","brown","orange","[""brown"",""orange"",""high nameability""]","left-right","[""brown"",""orange"",""high nameability""]","1","high nameability","7","left","trigger",""
"html-button-response","54","259935","0.0-36.0-0.0","CKN_135","135","","","","","","2103","<button class=""jspsych-btn""><img src=""stimuli/brown.png"" style=""width: 200px;height: 200px;""></button>","0","brown","orange","[""brown"",""orange"",""high nameability""]","left-right","[""brown"",""orange"",""high nameability""]","1","high nameability","7","left","response","1"
"html-audio-button-response","55","260138","0.0-36.0-1.0","CKN_135","135","","","","","","null","stimuli/bleep.m4a","null","brown","orange","[""brown"",""orange"",""high nameability""]","left-right","[""brown"",""orange"",""high nameability""]","1","high nameability","7","left","audio_feedback","1"
"html-button-response","56","260655","0.0-37.0","CKN_135","135","","","","","","null","<button class=""jspsych-btn""><img src=""stimuli/white_square.png"" style=""width: 200px;height: 200px;""></button>","null","brown","orange","[""brown"",""orange"",""high nameability""]","left-right","[""brown"",""orange"",""high nameability""]","1","high nameability","7","left","iti",""
"html-button-response","57","265551","0.0-38.0","CKN_135","135","","","","","","4884","","0","lightred","neonyellow","[""lightred"",""neonyellow"",""low nameability""]","left-right","[""lightred"",""neonyellow"",""low nameability""]","1","low nameability","8","left","trigger",""
"html-button-response","58","266650","0.0-39.0-0.0","CKN_135","135","","","","","","1093","<button class=""jspsych-btn""><img src=""stimuli/lightred.png"" style=""width: 200px;height: 200px;""></button>","0","lightred","neonyellow","[""lightred"",""neonyellow"",""low nameability""]","left-right","[""lightred"",""neonyellow"",""low nameability""]","1","low nameability","8","left","response","1"
"html-audio-button-response","59","266862","0.0-39.0-1.0","CKN_135","135","","","","","","null","stimuli/bleep.m4a","null","lightred","neonyellow","[""lightred"",""neonyellow"",""low nameability""]","left-right","[""lightred"",""neonyellow"",""low nameability""]","1","low nameability","8","left","audio_feedback","1"
"html-button-response","60","267381","0.0-40.0","CKN_135","135","","","","","","null","<button class=""jspsych-btn""><img src=""stimuli/white_square.png"" style=""width: 200px;height: 200px;""></button>","null","lightred","neonyellow","[""lightred"",""neonyellow"",""low nameability""]","left-right","[""lightred"",""neonyellow"",""low nameability""]","1","low nameability","8","left","iti",""
"html-button-response","61","271144","0.0-41.0","CKN_135","135","","","","","","3749","","0","mustard","lightred","[""mustard"",""lightred"",""low nameability""]","left-right","[""mustard"",""lightred"",""low nameability""]","1","low nameability","9","left","trigger",""
"html-button-response","62","273934","0.0-42.0-0.0","CKN_135","135","","","","","","2781","<button class=""jspsych-btn""><img src=""stimuli/mustard.png"" style=""width: 200px;height: 200px;""></button>","0","mustard","lightred","[""mustard"",""lightred"",""low nameability""]","left-right","[""mustard"",""lightred"",""low nameability""]","1","low nameability","9","left","response","1"
"html-audio-button-response","63","274149","0.0-42.0-1.0","CKN_135","135","","","","","","null","stimuli/bleep.m4a","null","mustard","lightred","[""mustard"",""lightred"",""low nameability""]","left-right","[""mustard"",""lightred"",""low nameability""]","1","low nameability","9","left","audio_feedback","1"
"html-button-response","64","274667","0.0-43.0","CKN_135","135","","","","","","null","<button class=""jspsych-btn""><img src=""stimuli/white_square.png"" style=""width: 200px;height: 200px;""></button>","null","mustard","lightred","[""mustard"",""lightred"",""low nameability""]","left-right","[""mustard"",""lightred"",""low nameability""]","1","low nameability","9","left","iti",""
"html-button-response","65","276705","0.0-44.0","CKN_135","135","","","","","","2025","","0","red","yellow","[""red"",""yellow"",""high nameability""]","left-right","[""red"",""yellow"",""high nameability""]","1","high nameability","10","left","trigger",""
"html-button-response","66","278906","0.0-45.0-0.0","CKN_135","135","","","","","","2193","<button class=""jspsych-btn""><img src=""stimuli/red.png"" style=""width: 200px;height: 200px;""></button>","0","red","yellow","[""red"",""yellow"",""high nameability""]","left-right","[""red"",""yellow"",""high nameability""]","1","high nameability","10","left","response","1"
"html-audio-button-response","67","279117","0.0-45.0-1.0","CKN_135","135","","","","","","null","stimuli/bleep.m4a","null","red","yellow","[""red"",""yellow"",""high nameability""]","left-right","[""red"",""yellow"",""high nameability""]","1","high nameability","10","left","audio_feedback","1"
"html-button-response","68","279636","0.0-46.0","CKN_135","135","","","","","","null","<button class=""jspsych-btn""><img src=""stimuli/white_square.png"" style=""width: 200px;height: 200px;""></button>","null","red","yellow","[""red"",""yellow"",""high nameability""]","left-right","[""red"",""yellow"",""high nameability""]","1","high nameability","10","left","iti",""
"pavlovia","69","279703","0.0-47.0","CKN_135","135","","","","","","","","","","","","","","","","","","",""
"pavlovia","70","279711","0.0-48.0","CKN_135","135","","","","","","","","","","","","","","","","","","",""
"html-audio-button-response","71","285674","0.0-49.0","CKN_135","135","","","","","","6035","stimuli/tada.m4a","0","","","","","","","","","","",""
"html-button-response","72","286310","0.0-50.0","CKN_135","135","","","","","","630","","0","","","","","","","","","","",""
"html-button-response","73","288151","0.0-51.0","CKN_135","135","","","","","","1836","","0","mustard","turquoise","[""mustard"",""turquoise"",""low nameability""]","left-right","[""mustard"",""turquoise"",""low nameability""]","2","low nameability","11","left","trigger",""
"html-button-response","74","290733","0.0-52.0-0.0","CKN_135","135","","","","","","2576","<button class=""jspsych-btn""><img src=""stimuli/mustard.png"" style=""width: 200px;height: 200px;""></button>","0","mustard","turquoise","[""mustard"",""turquoise"",""low nameability""]","left-right","[""mustard"",""turquoise"",""low nameability""]","2","low nameability","11","left","response","1"
"html-audio-button-response","75","290938","0.0-52.0-1.0","CKN_135","135","","","","","","null","stimuli/bleep.m4a","null","mustard","turquoise","[""mustard"",""turquoise"",""low nameability""]","left-right","[""mustard"",""turquoise"",""low nameability""]","2","low nameability","11","left","audio_feedback","1"
"html-button-response","76","291453","0.0-53.0","CKN_135","135","","","","","","null","<button class=""jspsych-btn""><img src=""stimuli/white_square.png"" style=""width: 200px;height: 200px;""></button>","null","mustard","turquoise","[""mustard"",""turquoise"",""low nameability""]","left-right","[""mustard"",""turquoise"",""low nameability""]","2","low nameability","11","left","iti",""
"html-button-response","77","292332","0.0-54.0","CKN_135","135","","","","","","864","","0","purple","red","[""purple"",""red"",""high nameability""]","left-right","[""purple"",""red"",""high nameability""]","2","high nameability","12","left","trigger",""
"html-button-response","78","292920","0.0-55.0-0.0","CKN_135","135","","","","","","581","<button class=""jspsych-btn""><img src=""stimuli/purple.png"" style=""width: 200px;height: 200px;""></button>","0","purple","red","[""purple"",""red"",""high nameability""]","left-right","[""purple"",""red"",""high nameability""]","2","high nameability","12","left","response","1"
"html-audio-button-response","79","293122","0.0-55.0-1.0","CKN_135","135","","","","","","null","stimuli/bleep.m4a","null","purple","red","[""purple"",""red"",""high nameability""]","left-right","[""purple"",""red"",""high nameability""]","2","high nameability","12","left","audio_feedback","1"
"html-button-response","80","293649","0.0-56.0","CKN_135","135","","","","","","null","<button class=""jspsych-btn""><img src=""stimuli/white_square.png"" style=""width: 200px;height: 200px;""></button>","null","purple","red","[""purple"",""red"",""high nameability""]","left-right","[""purple"",""red"",""high nameability""]","2","high nameability","12","left","iti",""
"html-button-response","81","295353","0.0-57.0","CKN_135","135","","","","","","1696","","0","lightred","turquoise","[""lightred"",""turquoise"",""low nameability""]","right-left","[""turquoise"",""lightred""]","2","low nameability","13","right","trigger",""
"html-button-response","82","296026","0.0-58.0-0.0","CKN_135","135","","","","","","666","<button class=""jspsych-btn""><img src=""stimuli/lightred.png"" style=""width: 200px;height: 200px;""></button>","0","lightred","turquoise","[""lightred"",""turquoise"",""low nameability""]","right-left","[""turquoise"",""lightred""]","2","low nameability","13","right","response","0"
"html-audio-button-response","83","296664","0.0-58.0-1.0","CKN_135","135","","","","","","null","stimuli/boing.m4a","null","lightred","turquoise","[""lightred"",""turquoise"",""low nameability""]","right-left","[""turquoise"",""lightred""]","2","low nameability","13","right","audio_feedback","0"
"html-button-response","84","297951","0.0-58.1-0.1","CKN_135","135","","","","","","1261","<button class=""jspsych-btn""><img src=""stimuli/lightred.png"" style=""width: 200px;height: 200px;""></button>","1","lightred","turquoise","[""lightred"",""turquoise"",""low nameability""]","right-left","[""turquoise"",""lightred""]","2","low nameability","13","right","response","1"
"html-audio-button-response","85","298154","0.0-58.1-1.1","CKN_135","135","","","","","","null","stimuli/bleep.m4a","null","lightred","turquoise","[""lightred"",""turquoise"",""low nameability""]","right-left","[""turquoise"",""lightred""]","2","low nameability","13","right","audio_feedback","1"
"html-button-response","86","298667","0.0-59.0","CKN_135","135","","","","","","null","<button class=""jspsych-btn""><img src=""stimuli/white_square.png"" style=""width: 200px;height: 200px;""></button>","null","lightred","turquoise","[""lightred"",""turquoise"",""low nameability""]","right-left","[""turquoise"",""lightred""]","2","low nameability","13","right","iti",""
"html-button-response","87","298973","0.0-60.0","CKN_135","135","","","","","","292","","0","brown","yellow","[""brown"",""yellow"",""high nameability""]","right-left","[""yellow"",""brown""]","2","high nameability","14","right","trigger",""
"html-button-response","88","299960","0.0-61.0-0.0","CKN_135","135","","","","","","980","<button class=""jspsych-btn""><img src=""stimuli/brown.png"" style=""width: 200px;height: 200px;""></button>","1","brown","yellow","[""brown"",""yellow"",""high nameability""]","right-left","[""yellow"",""brown""]","2","high nameability","14","right","response","1"
"html-audio-button-response","89","300162","0.0-61.0-1.0","CKN_135","135","","","","","","null","stimuli/bleep.m4a","null","brown","yellow","[""brown"",""yellow"",""high nameability""]","right-left","[""yellow"",""brown""]","2","high nameability","14","right","audio_feedback","1"
"html-button-response","90","300687","0.0-62.0","CKN_135","135","","","","","","null","<button class=""jspsych-btn""><img src=""stimuli/white_square.png"" style=""width: 200px;height: 200px;""></button>","null","brown","yellow","[""brown"",""yellow"",""high nameability""]","right-left","[""yellow"",""brown""]","2","high nameability","14","right","iti",""
"html-button-response","91","301606","0.0-63.0","CKN_135","135","","","","","","901","","0","blue","brown","[""blue"",""brown"",""high nameability""]","left-right","[""blue"",""brown"",""high nameability""]","2","high nameability","15","left","trigger",""
"html-button-response","92","305047","0.0-64.0-0.0","CKN_135","135","","","","","","3434","<button class=""jspsych-btn""><img src=""stimuli/blue.png"" style=""width: 200px;height: 200px;""></button>","0","blue","brown","[""blue"",""brown"",""high nameability""]","left-right","[""blue"",""brown"",""high nameability""]","2","high nameability","15","left","response","1"
"html-audio-button-response","93","305250","0.0-64.0-1.0","CKN_135","135","","","","","","null","stimuli/bleep.m4a","null","blue","brown","[""blue"",""brown"",""high nameability""]","left-right","[""blue"",""brown"",""high nameability""]","2","high nameability","15","left","audio_feedback","1"
"html-button-response","94","305763","0.0-65.0","CKN_135","135","","","","","","47","<button class=""jspsych-btn""><img src=""stimuli/white_square.png"" style=""width: 200px;height: 200px;""></button>","0","blue","brown","[""blue"",""brown"",""high nameability""]","left-right","[""blue"",""brown"",""high nameability""]","2","high nameability","15","left","iti",""
"html-button-response","95","307648","0.0-66.0","CKN_135","135","","","","","","1876","","0","brown","blue","[""brown"",""blue"",""high nameability""]","right-left","[""blue"",""brown""]","2","high nameability","16","right","trigger",""
"html-button-response","96","310576","0.0-67.0-0.0","CKN_135","135","","","","","","2921","<button class=""jspsych-btn""><img src=""stimuli/brown.png"" style=""width: 200px;height: 200px;""></button>","1","brown","blue","[""brown"",""blue"",""high nameability""]","right-left","[""blue"",""brown""]","2","high nameability","16","right","response","1"
"html-audio-button-response","97","310779","0.0-67.0-1.0","CKN_135","135","","","","","","null","stimuli/bleep.m4a","null","brown","blue","[""brown"",""blue"",""high nameability""]","right-left","[""blue"",""brown""]","2","high nameability","16","right","audio_feedback","1"
"html-button-response","98","311290","0.0-68.0","CKN_135","135","","","","","","null","<button class=""jspsych-btn""><img src=""stimuli/white_square.png"" style=""width: 200px;height: 200px;""></button>","null","brown","blue","[""brown"",""blue"",""high nameability""]","right-left","[""blue"",""brown""]","2","high nameability","16","right","iti",""
"html-button-response","99","313342","0.0-69.0","CKN_135","135","","","","","","2029","","0","purple","blue","[""purple"",""blue"",""high nameability""]","right-left","[""blue"",""purple""]","2","high nameability","17","right","trigger",""
"html-button-response","100","314874","0.0-70.0-0.0","CKN_135","135","","","","","","1523","<button class=""jspsych-btn""><img src=""stimuli/purple.png"" style=""width: 200px;height: 200px;""></button>","1","purple","blue","[""purple"",""blue"",""high nameability""]","right-left","[""blue"",""purple""]","2","high nameability","17","right","response","1"
"html-audio-button-response","101","315075","0.0-70.0-1.0","CKN_135","135","","","","","","null","stimuli/bleep.m4a","null","purple","blue","[""purple"",""blue"",""high nameability""]","right-left","[""blue"",""purple""]","2","high nameability","17","right","audio_feedback","1"
"html-button-response","102","315599","0.0-71.0","CKN_135","135","","","","","","null","<button class=""jspsych-btn""><img src=""stimuli/white_square.png"" style=""width: 200px;height: 200px;""></button>","null","purple","blue","[""purple"",""blue"",""high nameability""]","right-left","[""blue"",""purple""]","2","high nameability","17","right","iti",""
"html-button-response","103","317232","0.0-72.0","CKN_135","135","","","","","","1618","","0","red","brown","[""red"",""brown"",""high nameability""]","left-right","[""red"",""brown"",""high nameability""]","2","high nameability","18","left","trigger",""
"html-button-response","104","318346","0.0-73.0-0.0","CKN_135","135","","","","","","1106","<button class=""jspsych-btn""><img src=""stimuli/red.png"" style=""width: 200px;height: 200px;""></button>","0","red","brown","[""red"",""brown"",""high nameability""]","left-right","[""red"",""brown"",""high nameability""]","2","high nameability","18","left","response","1"
"html-audio-button-response","105","318545","0.0-73.0-1.0","CKN_135","135","","","","","","null","stimuli/bleep.m4a","null","red","brown","[""red"",""brown"",""high nameability""]","left-right","[""red"",""brown"",""high nameability""]","2","high nameability","18","left","audio_feedback","1"
"html-button-response","106","319060","0.0-74.0","CKN_135","135","","","","","","null","<button class=""jspsych-btn""><img src=""stimuli/white_square.png"" style=""width: 200px;height: 200px;""></button>","null","red","brown","[""red"",""brown"",""high nameability""]","left-right","[""red"",""brown"",""high nameability""]","2","high nameability","18","left","iti",""
"html-button-response","107","320527","0.0-75.0","CKN_135","135","","","","","","1452","","0","blue","orange","[""blue"",""orange"",""high nameability""]","right-left","[""orange"",""blue""]","2","high nameability","19","right","trigger",""
"html-button-response","108","322479","0.0-76.0-0.0","CKN_135","135","","","","","","1946","<button class=""jspsych-btn""><img src=""stimuli/blue.png"" style=""width: 200px;height: 200px;""></button>","1","blue","orange","[""blue"",""orange"",""high nameability""]","right-left","[""orange"",""blue""]","2","high nameability","19","right","response","1"
"html-audio-button-response","109","322681","0.0-76.0-1.0","CKN_135","135","","","","","","null","stimuli/bleep.m4a","null","blue","orange","[""blue"",""orange"",""high nameability""]","right-left","[""orange"",""blue""]","2","high nameability","19","right","audio_feedback","1"
"html-button-response","110","323193","0.0-77.0","CKN_135","135","","","","","","null","<button class=""jspsych-btn""><img src=""stimuli/white_square.png"" style=""width: 200px;height: 200px;""></button>","null","blue","orange","[""blue"",""orange"",""high nameability""]","right-left","[""orange"",""blue""]","2","high nameability","19","right","iti",""
"html-button-response","111","324396","0.0-78.0","CKN_135","135","","","","","","1186","","0","orange","blue","[""orange"",""blue"",""high nameability""]","right-left","[""blue"",""orange""]","2","high nameability","20","right","trigger",""
"html-button-response","112","325912","0.0-79.0-0.0","CKN_135","135","","","","","","1511","<button class=""jspsych-btn""><img src=""stimuli/orange.png"" style=""width: 200px;height: 200px;""></button>","1","orange","blue","[""orange"",""blue"",""high nameability""]","right-left","[""blue"",""orange""]","2","high nameability","20","right","response","1"
"html-audio-button-response","113","326114","0.0-79.0-1.0","CKN_135","135","","","","","","null","stimuli/bleep.m4a","null","orange","blue","[""orange"",""blue"",""high nameability""]","right-left","[""blue"",""orange""]","2","high nameability","20","right","audio_feedback","1"
"html-button-response","114","326630","0.0-80.0","CKN_135","135","","","","","","null","<button class=""jspsych-btn""><img src=""stimuli/white_square.png"" style=""width: 200px;height: 200px;""></button>","null","orange","blue","[""orange"",""blue"",""high nameability""]","right-left","[""blue"",""orange""]","2","high nameability","20","right","iti",""
"pavlovia","115","326708","0.0-81.0","CKN_135","135","","","","","","","","","","","","","","","","","","",""
"pavlovia","116","326715","0.0-82.0","CKN_135","135","","","","","","","","","","","","","","","","","","",""
"html-audio-button-response","117","330321","0.0-83.0","CKN_135","135","","","","","","3688","stimuli/tada.m4a","0","","","","","","","","","","",""
"html-button-response","118","330763","0.0-84.0","CKN_135","135","","","","","","436","","0","","","","","","","","","","",""
"html-button-response","119","331913","0.0-85.0","CKN_135","135","","","","","","1144","","0","purple","orange","[""purple"",""orange"",""high nameability""]","right-left","[""orange"",""purple""]","3","high nameability","21","right","trigger",""
"html-button-response","120","332979","0.0-86.0-0.0","CKN_135","135","","","","","","1057","<button class=""jspsych-btn""><img src=""stimuli/purple.png"" style=""width: 200px;height: 200px;""></button>","1","purple","orange","[""purple"",""orange"",""high nameability""]","right-left","[""orange"",""purple""]","3","high nameability","21","right","response","1"
"html-audio-button-response","121","333178","0.0-86.0-1.0","CKN_135","135","","","","","","null","stimuli/bleep.m4a","null","purple","orange","[""purple"",""orange"",""high nameability""]","right-left","[""orange"",""purple""]","3","high nameability","21","right","audio_feedback","1"
"html-button-response","122","333696","0.0-87.0","CKN_135","135","","","","","","null","<button class=""jspsych-btn""><img src=""stimuli/white_square.png"" style=""width: 200px;height: 200px;""></button>","null","purple","orange","[""purple"",""orange"",""high nameability""]","right-left","[""orange"",""purple""]","3","high nameability","21","right","iti",""
"html-button-response","123","334166","0.0-88.0","CKN_135","135","","","","","","456","","0","orange","purple","[""orange"",""purple"",""high nameability""]","right-left","[""purple"",""orange""]","3","high nameability","22","right","trigger",""
"html-button-response","124","335455","0.0-89.0-0.0","CKN_135","135","","","","","","1277","<button class=""jspsych-btn""><img src=""stimuli/orange.png"" style=""width: 200px;height: 200px;""></button>","1","orange","purple","[""orange"",""purple"",""high nameability""]","right-left","[""purple"",""orange""]","3","high nameability","22","right","response","1"
"html-audio-button-response","125","335665","0.0-89.0-1.0","CKN_135","135","","","","","","null","stimuli/bleep.m4a","null","orange","purple","[""orange"",""purple"",""high nameability""]","right-left","[""purple"",""orange""]","3","high nameability","22","right","audio_feedback","1"
"html-button-response","126","336188","0.0-90.0","CKN_135","135","","","","","","null","<button class=""jspsych-btn""><img src=""stimuli/white_square.png"" style=""width: 200px;height: 200px;""></button>","null","orange","purple","[""orange"",""purple"",""high nameability""]","right-left","[""purple"",""orange""]","3","high nameability","22","right","iti",""
"html-button-response","127","336557","0.0-91.0","CKN_135","135","","","","","","356","","0","turquoise","pink","[""turquoise"",""pink"",""low nameability""]","left-right","[""turquoise"",""pink"",""low nameability""]","3","low nameability","23","left","trigger",""
"html-button-response","128","337716","0.0-92.0-0.0","CKN_135","135","","","","","","1149","<button class=""jspsych-btn""><img src=""stimuli/turquoise.png"" style=""width: 200px;height: 200px;""></button>","0","turquoise","pink","[""turquoise"",""pink"",""low nameability""]","left-right","[""turquoise"",""pink"",""low nameability""]","3","low nameability","23","left","response","1"
"html-audio-button-response","129","337922","0.0-92.0-1.0","CKN_135","135","","","","","","null","stimuli/bleep.m4a","null","turquoise","pink","[""turquoise"",""pink"",""low nameability""]","left-right","[""turquoise"",""pink"",""low nameability""]","3","low nameability","23","left","audio_feedback","1"
"html-button-response","130","338436","0.0-93.0","CKN_135","135","","","","","","null","<button class=""jspsych-btn""><img src=""stimuli/white_square.png"" style=""width: 200px;height: 200px;""></button>","null","turquoise","pink","[""turquoise"",""pink"",""low nameability""]","left-right","[""turquoise"",""pink"",""low nameability""]","3","low nameability","23","left","iti",""
"html-button-response","131","339339","0.0-94.0","CKN_135","135","","","","","","889","","0","pink","turquoise","[""pink"",""turquoise"",""low nameability""]","right-left","[""turquoise"",""pink""]","3","low nameability","24","right","trigger",""
"html-button-response","132","340463","0.0-95.0-0.0","CKN_135","135","","","","","","1119","<button class=""jspsych-btn""><img src=""stimuli/pink.png"" style=""width: 200px;height: 200px;""></button>","1","pink","turquoise","[""pink"",""turquoise"",""low nameability""]","right-left","[""turquoise"",""pink""]","3","low nameability","24","right","response","1"
"html-audio-button-response","133","340666","0.0-95.0-1.0","CKN_135","135","","","","","","null","stimuli/bleep.m4a","null","pink","turquoise","[""pink"",""turquoise"",""low nameability""]","right-left","[""turquoise"",""pink""]","3","low nameability","24","right","audio_feedback","1"
"html-button-response","134","341182","0.0-96.0","CKN_135","135","","","","","","null","<button class=""jspsych-btn""><img src=""stimuli/white_square.png"" style=""width: 200px;height: 200px;""></button>","null","pink","turquoise","[""pink"",""turquoise"",""low nameability""]","right-left","[""turquoise"",""pink""]","3","low nameability","24","right","iti",""
"html-button-response","135","344821","0.0-97.0","CKN_135","135","","","","","","3623","","0","turquoise","mustard","[""turquoise"",""mustard"",""low nameability""]","left-right","[""turquoise"",""mustard"",""low nameability""]","3","low nameability","25","left","trigger",""
"html-button-response","136","352616","0.0-98.0-0.0","CKN_135","135","","","","","","7789","<button class=""jspsych-btn""><img src=""stimuli/turquoise.png"" style=""width: 200px;height: 200px;""></button>","0","turquoise","mustard","[""turquoise"",""mustard"",""low nameability""]","left-right","[""turquoise"",""mustard"",""low nameability""]","3","low nameability","25","left","response","1"
"html-audio-button-response","137","352819","0.0-98.0-1.0","CKN_135","135","","","","","","null","stimuli/bleep.m4a","null","turquoise","mustard","[""turquoise"",""mustard"",""low nameability""]","left-right","[""turquoise"",""mustard"",""low nameability""]","3","low nameability","25","left","audio_feedback","1"
"html-button-response","138","353345","0.0-99.0","CKN_135","135","","","","","","null","<button class=""jspsych-btn""><img src=""stimuli/white_square.png"" style=""width: 200px;height: 200px;""></button>","null","turquoise","mustard","[""turquoise"",""mustard"",""low nameability""]","left-right","[""turquoise"",""mustard"",""low nameability""]","3","low nameability","25","left","iti",""
"html-button-response","139","354758","0.0-100.0","CKN_135","135","","","","","","1402","","0","brown","red","[""brown"",""red"",""high nameability""]","right-left","[""red"",""brown""]","3","high nameability","26","right","trigger",""
"html-button-response","140","356605","0.0-101.0-0.0","CKN_135","135","","","","","","1842","<button class=""jspsych-btn""><img src=""stimuli/brown.png"" style=""width: 200px;height: 200px;""></button>","1","brown","red","[""brown"",""red"",""high nameability""]","right-left","[""red"",""brown""]","3","high nameability","26","right","response","1"
"html-audio-button-response","141","356810","0.0-101.0-1.0","CKN_135","135","","","","","","null","stimuli/bleep.m4a","null","brown","red","[""brown"",""red"",""high nameability""]","right-left","[""red"",""brown""]","3","high nameability","26","right","audio_feedback","1"
"html-button-response","142","357329","0.0-102.0","CKN_135","135","","","","","","null","<button class=""jspsych-btn""><img src=""stimuli/white_square.png"" style=""width: 200px;height: 200px;""></button>","null","brown","red","[""brown"",""red"",""high nameability""]","right-left","[""red"",""brown""]","3","high nameability","26","right","iti",""
"html-button-response","143","358304","0.0-103.0","CKN_135","135","","","","","","961","","0","neonyellow","mustard","[""neonyellow"",""mustard"",""low nameability""]","left-right","[""neonyellow"",""mustard"",""low nameability""]","3","low nameability","27","left","trigger",""
"html-button-response","144","360586","0.0-104.0-0.0","CKN_135","135","","","","","","2276","<button class=""jspsych-btn""><img src=""stimuli/neonyellow.png"" style=""width: 200px;height: 200px;""></button>","0","neonyellow","mustard","[""neonyellow"",""mustard"",""low nameability""]","left-right","[""neonyellow"",""mustard"",""low nameability""]","3","low nameability","27","left","response","1"
"html-audio-button-response","145","360786","0.0-104.0-1.0","CKN_135","135","","","","","","null","stimuli/bleep.m4a","null","neonyellow","mustard","[""neonyellow"",""mustard"",""low nameability""]","left-right","[""neonyellow"",""mustard"",""low nameability""]","3","low nameability","27","left","audio_feedback","1"
"html-button-response","146","361307","0.0-105.0","CKN_135","135","","","","","","null","<button class=""jspsych-btn""><img src=""stimuli/white_square.png"" style=""width: 200px;height: 200px;""></button>","null","neonyellow","mustard","[""neonyellow"",""mustard"",""low nameability""]","left-right","[""neonyellow"",""mustard"",""low nameability""]","3","low nameability","27","left","iti",""
"html-button-response","147","362367","0.0-106.0","CKN_135","135","","","","","","1046","","0","turquoise","darkgreenblue","[""turquoise"",""darkgreenblue"",""low nameability""]","right-left","[""darkgreenblue"",""turquoise""]","3","low nameability","28","right","trigger",""
"html-button-response","148","365316","0.0-107.0-0.0","CKN_135","135","","","","","","2943","<button class=""jspsych-btn""><img src=""stimuli/turquoise.png"" style=""width: 200px;height: 200px;""></button>","1","turquoise","darkgreenblue","[""turquoise"",""darkgreenblue"",""low nameability""]","right-left","[""darkgreenblue"",""turquoise""]","3","low nameability","28","right","response","1"
"html-audio-button-response","149","365520","0.0-107.0-1.0","CKN_135","135","","","","","","null","stimuli/bleep.m4a","null","turquoise","darkgreenblue","[""turquoise"",""darkgreenblue"",""low nameability""]","right-left","[""darkgreenblue"",""turquoise""]","3","low nameability","28","right","audio_feedback","1"
"html-button-response","150","366035","0.0-108.0","CKN_135","135","","","","","","null","<button class=""jspsych-btn""><img src=""stimuli/white_square.png"" style=""width: 200px;height: 200px;""></button>","null","turquoise","darkgreenblue","[""turquoise"",""darkgreenblue"",""low nameability""]","right-left","[""darkgreenblue"",""turquoise""]","3","low nameability","28","right","iti",""
"html-button-response","151","366753","0.0-109.0","CKN_135","135","","","","","","706","","0","red","blue","[""red"",""blue"",""high nameability""]","right-left","[""blue"",""red""]","3","high nameability","29","right","trigger",""
"html-button-response","152","367787","0.0-110.0-0.0","CKN_135","135","","","","","","1028","<button class=""jspsych-btn""><img src=""stimuli/red.png"" style=""width: 200px;height: 200px;""></button>","1","red","blue","[""red"",""blue"",""high nameability""]","right-left","[""blue"",""red""]","3","high nameability","29","right","response","1"
"html-audio-button-response","153","367994","0.0-110.0-1.0","CKN_135","135","","","","","","null","stimuli/bleep.m4a","null","red","blue","[""red"",""blue"",""high nameability""]","right-left","[""blue"",""red""]","3","high nameability","29","right","audio_feedback","1"
"html-button-response","154","368508","0.0-111.0","CKN_135","135","","","","","","null","<button class=""jspsych-btn""><img src=""stimuli/white_square.png"" style=""width: 200px;height: 200px;""></button>","null","red","blue","[""red"",""blue"",""high nameability""]","right-left","[""blue"",""red""]","3","high nameability","29","right","iti",""
"html-button-response","155","371045","0.0-112.0","CKN_135","135","","","","","","2522","","0","pink","lightred","[""pink"",""lightred"",""low nameability""]","left-right","[""pink"",""lightred"",""low nameability""]","3","low nameability","30","left","trigger",""
"html-button-response","156","372417","0.0-113.0-0.0","CKN_135","135","","","","","","1365","<button class=""jspsych-btn""><img src=""stimuli/pink.png"" style=""width: 200px;height: 200px;""></button>","0","pink","lightred","[""pink"",""lightred"",""low nameability""]","left-right","[""pink"",""lightred"",""low nameability""]","3","low nameability","30","left","response","1"
"html-audio-button-response","157","372619","0.0-113.0-1.0","CKN_135","135","","","","","","null","stimuli/bleep.m4a","null","pink","lightred","[""pink"",""lightred"",""low nameability""]","left-right","[""pink"",""lightred"",""low nameability""]","3","low nameability","30","left","audio_feedback","1"
"html-button-response","158","373130","0.0-114.0","CKN_135","135","","","","","","null","<button class=""jspsych-btn""><img src=""stimuli/white_square.png"" style=""width: 200px;height: 200px;""></button>","null","pink","lightred","[""pink"",""lightred"",""low nameability""]","left-right","[""pink"",""lightred"",""low nameability""]","3","low nameability","30","left","iti",""
"pavlovia","159","373178","0.0-115.0","CKN_135","135","","","","","","","","","","","","","","","","","","",""
"pavlovia","160","373198","0.0-116.0","CKN_135","135","","","","","","","","","","","","","","","","","","",""
"html-audio-button-response","161","377720","0.0-117.0","CKN_135","135","","","","","","4587","stimuli/tada.m4a","0","","","","","","","","","","",""
"html-button-response","162","379457","0.0-118.0","CKN_135","135","","","","","","1733","","0","","","","","","","","","","",""
"html-button-response","163","382026","0.0-119.0","CKN_135","135","","","","","","2560","","0","darkgreenblue","neonyellow","[""darkgreenblue"",""neonyellow"",""low nameability""]","right-left","[""neonyellow"",""darkgreenblue""]","4","low nameability","31","right","trigger",""
"html-button-response","164","384156","0.0-120.0-0.0","CKN_135","135","","","","","","2122","<button class=""jspsych-btn""><img src=""stimuli/darkgreenblue.png"" style=""width: 200px;height: 200px;""></button>","1","darkgreenblue","neonyellow","[""darkgreenblue"",""neonyellow"",""low nameability""]","right-left","[""neonyellow"",""darkgreenblue""]","4","low nameability","31","right","response","1"
"html-audio-button-response","165","384387","0.0-120.0-1.0","CKN_135","135","","","","","","null","stimuli/bleep.m4a","null","darkgreenblue","neonyellow","[""darkgreenblue"",""neonyellow"",""low nameability""]","right-left","[""neonyellow"",""darkgreenblue""]","4","low nameability","31","right","audio_feedback","1"
"html-button-response","166","384904","0.0-121.0","CKN_135","135","","","","","","null","<button class=""jspsych-btn""><img src=""stimuli/white_square.png"" style=""width: 200px;height: 200px;""></button>","null","darkgreenblue","neonyellow","[""darkgreenblue"",""neonyellow"",""low nameability""]","right-left","[""neonyellow"",""darkgreenblue""]","4","low nameability","31","right","iti",""
"html-button-response","167","385199","0.0-122.0","CKN_135","135","","","","","","284","","0","mustard","darkgreenblue","[""mustard"",""darkgreenblue"",""low nameability""]","right-left","[""darkgreenblue"",""mustard""]","4","low nameability","32","right","trigger",""
"html-button-response","168","387212","0.0-123.0-0.0","CKN_135","135","","","","","","2008","<button class=""jspsych-btn""><img src=""stimuli/mustard.png"" style=""width: 200px;height: 200px;""></button>","1","mustard","darkgreenblue","[""mustard"",""darkgreenblue"",""low nameability""]","right-left","[""darkgreenblue"",""mustard""]","4","low nameability","32","right","response","1"
"html-audio-button-response","169","387411","0.0-123.0-1.0","CKN_135","135","","","","","","null","stimuli/bleep.m4a","null","mustard","darkgreenblue","[""mustard"",""darkgreenblue"",""low nameability""]","right-left","[""darkgreenblue"",""mustard""]","4","low nameability","32","right","audio_feedback","1"
"html-button-response","170","387924","0.0-124.0","CKN_135","135","","","","","","null","<button class=""jspsych-btn""><img src=""stimuli/white_square.png"" style=""width: 200px;height: 200px;""></button>","null","mustard","darkgreenblue","[""mustard"",""darkgreenblue"",""low nameability""]","right-left","[""darkgreenblue"",""mustard""]","4","low nameability","32","right","iti",""
"html-button-response","171","388615","0.0-125.0","CKN_135","135","","","","","","678","","0","turquoise","lightred","[""turquoise"",""lightred"",""low nameability""]","left-right","[""turquoise"",""lightred"",""low nameability""]","4","low nameability","33","left","trigger",""
"html-button-response","172","389744","0.0-126.0-0.0","CKN_135","135","","","","","","1123","<button class=""jspsych-btn""><img src=""stimuli/turquoise.png"" style=""width: 200px;height: 200px;""></button>","0","turquoise","lightred","[""turquoise"",""lightred"",""low nameability""]","left-right","[""turquoise"",""lightred"",""low nameability""]","4","low nameability","33","left","response","1"
"html-audio-button-response","173","389946","0.0-126.0-1.0","CKN_135","135","","","","","","null","stimuli/bleep.m4a","null","turquoise","lightred","[""turquoise"",""lightred"",""low nameability""]","left-right","[""turquoise"",""lightred"",""low nameability""]","4","low nameability","33","left","audio_feedback","1"
"html-button-response","174","390467","0.0-127.0","CKN_135","135","","","","","","null","<button class=""jspsych-btn""><img src=""stimuli/white_square.png"" style=""width: 200px;height: 200px;""></button>","null","turquoise","lightred","[""turquoise"",""lightred"",""low nameability""]","left-right","[""turquoise"",""lightred"",""low nameability""]","4","low nameability","33","left","iti",""
"html-button-response","175","393632","0.0-128.0","CKN_135","135","","","","","","3152","","0","red","purple","[""red"",""purple"",""high nameability""]","left-right","[""red"",""purple"",""high nameability""]","4","high nameability","34","left","trigger",""
"html-button-response","176","398415","0.0-129.0-0.0","CKN_135","135","","","","","","4778","<button class=""jspsych-btn""><img src=""stimuli/red.png"" style=""width: 200px;height: 200px;""></button>","0","red","purple","[""red"",""purple"",""high nameability""]","left-right","[""red"",""purple"",""high nameability""]","4","high nameability","34","left","response","1"
"html-audio-button-response","177","398618","0.0-129.0-1.0","CKN_135","135","","","","","","null","stimuli/bleep.m4a","null","red","purple","[""red"",""purple"",""high nameability""]","left-right","[""red"",""purple"",""high nameability""]","4","high nameability","34","left","audio_feedback","1"
"html-button-response","178","399134","0.0-130.0","CKN_135","135","","","","","","null","<button class=""jspsych-btn""><img src=""stimuli/white_square.png"" style=""width: 200px;height: 200px;""></button>","null","red","purple","[""red"",""purple"",""high nameability""]","left-right","[""red"",""purple"",""high nameability""]","4","high nameability","34","left","iti",""
"html-button-response","179","402069","0.0-131.0","CKN_135","135","","","","","","2930","","0","brown","purple","[""brown"",""purple"",""high nameability""]","right-left","[""purple"",""brown""]","4","high nameability","35","right","trigger",""
"html-button-response","180","403407","0.0-132.0-0.0","CKN_135","135","","","","","","1326","<button class=""jspsych-btn""><img src=""stimuli/brown.png"" style=""width: 200px;height: 200px;""></button>","1","brown","purple","[""brown"",""purple"",""high nameability""]","right-left","[""purple"",""brown""]","4","high nameability","35","right","response","1"
"html-audio-button-response","181","403618","0.0-132.0-1.0","CKN_135","135","","","","","","null","stimuli/bleep.m4a","null","brown","purple","[""brown"",""purple"",""high nameability""]","right-left","[""purple"",""brown""]","4","high nameability","35","right","audio_feedback","1"
"html-button-response","182","404156","0.0-133.0","CKN_135","135","","","","","","null","<button class=""jspsych-btn""><img src=""stimuli/white_square.png"" style=""width: 200px;height: 200px;""></button>","null","brown","purple","[""brown"",""purple"",""high nameability""]","right-left","[""purple"",""brown""]","4","high nameability","35","right","iti",""
"html-button-response","183","405886","0.0-134.0","CKN_135","135","","","","","","1715","","0","neonyellow","lightred","[""neonyellow"",""lightred"",""low nameability""]","left-right","[""neonyellow"",""lightred"",""low nameability""]","4","low nameability","36","left","trigger",""
"html-button-response","184","409906","0.0-135.0-0.0","CKN_135","135","","","","","","4012","<button class=""jspsych-btn""><img src=""stimuli/neonyellow.png"" style=""width: 200px;height: 200px;""></button>","0","neonyellow","lightred","[""neonyellow"",""lightred"",""low nameability""]","left-right","[""neonyellow"",""lightred"",""low nameability""]","4","low nameability","36","left","response","1"
"html-audio-button-response","185","410115","0.0-135.0-1.0","CKN_135","135","","","","","","null","stimuli/bleep.m4a","null","neonyellow","lightred","[""neonyellow"",""lightred"",""low nameability""]","left-right","[""neonyellow"",""lightred"",""low nameability""]","4","low nameability","36","left","audio_feedback","1"
"html-button-response","186","410647","0.0-136.0","CKN_135","135","","","","","","null","<button class=""jspsych-btn""><img src=""stimuli/white_square.png"" style=""width: 200px;height: 200px;""></button>","null","neonyellow","lightred","[""neonyellow"",""lightred"",""low nameability""]","left-right","[""neonyellow"",""lightred"",""low nameability""]","4","low nameability","36","left","iti",""
"html-button-response","187","411451","0.0-137.0","CKN_135","135","","","","","","797","","0","blue","purple","[""blue"",""purple"",""high nameability""]","right-left","[""purple"",""blue""]","4","high nameability","37","right","trigger",""
"html-button-response","188","415119","0.0-138.0-0.0","CKN_135","135","","","","","","3663","<button class=""jspsych-btn""><img src=""stimuli/blue.png"" style=""width: 200px;height: 200px;""></button>","1","blue","purple","[""blue"",""purple"",""high nameability""]","right-left","[""purple"",""blue""]","4","high nameability","37","right","response","1"
"html-audio-button-response","189","415326","0.0-138.0-1.0","CKN_135","135","","","","","","null","stimuli/bleep.m4a","null","blue","purple","[""blue"",""purple"",""high nameability""]","right-left","[""purple"",""blue""]","4","high nameability","37","right","audio_feedback","1"
"html-button-response","190","415869","0.0-139.0","CKN_135","135","","","","","","null","<button class=""jspsych-btn""><img src=""stimuli/white_square.png"" style=""width: 200px;height: 200px;""></button>","null","blue","purple","[""blue"",""purple"",""high nameability""]","right-left","[""purple"",""blue""]","4","high nameability","37","right","iti",""
"html-button-response","191","419733","0.0-140.0","CKN_135","135","","","","","","3849","","0","red","orange","[""red"",""orange"",""high nameability""]","left-right","[""red"",""orange"",""high nameability""]","4","high nameability","38","left","trigger",""
"html-button-response","192","422181","0.0-141.0-0.0","CKN_135","135","","","","","","2442","<button class=""jspsych-btn""><img src=""stimuli/red.png"" style=""width: 200px;height: 200px;""></button>","0","red","orange","[""red"",""orange"",""high nameability""]","left-right","[""red"",""orange"",""high nameability""]","4","high nameability","38","left","response","1"
"html-audio-button-response","193","422387","0.0-141.0-1.0","CKN_135","135","","","","","","null","stimuli/bleep.m4a","null","red","orange","[""red"",""orange"",""high nameability""]","left-right","[""red"",""orange"",""high nameability""]","4","high nameability","38","left","audio_feedback","1"
"html-button-response","194","422922","0.0-142.0","CKN_135","135","","","","","","null","<button class=""jspsych-btn""><img src=""stimuli/white_square.png"" style=""width: 200px;height: 200px;""></button>","null","red","orange","[""red"",""orange"",""high nameability""]","left-right","[""red"",""orange"",""high nameability""]","4","high nameability","38","left","iti",""
"html-button-response","195","426440","0.0-143.0","CKN_135","135","","","","","","3510","","0","darkgreenblue","pink","[""darkgreenblue"",""pink"",""low nameability""]","left-right","[""darkgreenblue"",""pink"",""low nameability""]","4","low nameability","39","left","trigger",""
"html-button-response","196","430363","0.0-144.0-0.0","CKN_135","135","","","","","","3911","<button class=""jspsych-btn""><img src=""stimuli/darkgreenblue.png"" style=""width: 200px;height: 200px;""></button>","0","darkgreenblue","pink","[""darkgreenblue"",""pink"",""low nameability""]","left-right","[""darkgreenblue"",""pink"",""low nameability""]","4","low nameability","39","left","response","1"
"html-audio-button-response","197","430570","0.0-144.0-1.0","CKN_135","135","","","","","","null","stimuli/bleep.m4a","null","darkgreenblue","pink","[""darkgreenblue"",""pink"",""low nameability""]","left-right","[""darkgreenblue"",""pink"",""low nameability""]","4","low nameability","39","left","audio_feedback","1"
"html-button-response","198","431086","0.0-145.0","CKN_135","135","","","","","","null","<button class=""jspsych-btn""><img src=""stimuli/white_square.png"" style=""width: 200px;height: 200px;""></button>","null","darkgreenblue","pink","[""darkgreenblue"",""pink"",""low nameability""]","left-right","[""darkgreenblue"",""pink"",""low nameability""]","4","low nameability","39","left","iti",""
"html-button-response","199","433407","0.0-146.0","CKN_135","135","","","","","","2314","","0","pink","mustard","[""pink"",""mustard"",""low nameability""]","left-right","[""pink"",""mustard"",""low nameability""]","4","low nameability","40","left","trigger",""
"html-button-response","200","435338","0.0-147.0-0.0","CKN_135","135","","","","","","1925","<button class=""jspsych-btn""><img src=""stimuli/pink.png"" style=""width: 200px;height: 200px;""></button>","0","pink","mustard","[""pink"",""mustard"",""low nameability""]","left-right","[""pink"",""mustard"",""low nameability""]","4","low nameability","40","left","response","1"
"html-audio-button-response","201","435539","0.0-147.0-1.0","CKN_135","135","","","","","","null","stimuli/bleep.m4a","null","pink","mustard","[""pink"",""mustard"",""low nameability""]","left-right","[""pink"",""mustard"",""low nameability""]","4","low nameability","40","left","audio_feedback","1"
"html-button-response","202","436061","0.0-148.0","CKN_135","135","","","","","","null","<button class=""jspsych-btn""><img src=""stimuli/white_square.png"" style=""width: 200px;height: 200px;""></button>","null","pink","mustard","[""pink"",""mustard"",""low nameability""]","left-right","[""pink"",""mustard"",""low nameability""]","4","low nameability","40","left","iti",""
"pavlovia","203","436116","0.0-149.0","CKN_135","135","","","","","","","","","","","","","","","","","","",""
"pavlovia","204","436124","0.0-150.0","CKN_135","135","","","","","","","","","","","","","","","","","","",""
"html-audio-button-response","205","455166","0.0-151.0","CKN_135","135","","","","","","19104","stimuli/tada.m4a","0","","","","","","","","","","",""
"html-button-response","206","456256","0.0-152.0","CKN_135","135","","","","","","1084","","0","","","","","","","","","","",""
"html-button-response","207","457123","0.0-153.0","CKN_135","135","","","","","","862","","0","orange","yellow","[""orange"",""yellow"",""high nameability""]","left-right","[""orange"",""yellow"",""high nameability""]","5","high nameability","41","left","trigger",""
"html-button-response","208","457884","0.0-154.0-0.0","CKN_135","135","","","","","","752","<button class=""jspsych-btn""><img src=""stimuli/orange.png"" style=""width: 200px;height: 200px;""></button>","0","orange","yellow","[""orange"",""yellow"",""high nameability""]","left-right","[""orange"",""yellow"",""high nameability""]","5","high nameability","41","left","response","1"
"html-audio-button-response","209","458094","0.0-154.0-1.0","CKN_135","135","","","","","","null","stimuli/bleep.m4a","null","orange","yellow","[""orange"",""yellow"",""high nameability""]","left-right","[""orange"",""yellow"",""high nameability""]","5","high nameability","41","left","audio_feedback","1"
"html-button-response","210","458626","0.0-155.0","CKN_135","135","","","","","","null","<button class=""jspsych-btn""><img src=""stimuli/white_square.png"" style=""width: 200px;height: 200px;""></button>","null","orange","yellow","[""orange"",""yellow"",""high nameability""]","left-right","[""orange"",""yellow"",""high nameability""]","5","high nameability","41","left","iti",""
"html-button-response","211","459237","0.0-156.0","CKN_135","135","","","","","","597","","0","mustard","neonyellow","[""mustard"",""neonyellow"",""low nameability""]","right-left","[""neonyellow"",""mustard""]","5","low nameability","42","right","trigger",""
"html-button-response","212","460545","0.0-157.0-0.0","CKN_135","135","","","","","","1302","<button class=""jspsych-btn""><img src=""stimuli/mustard.png"" style=""width: 200px;height: 200px;""></button>","1","mustard","neonyellow","[""mustard"",""neonyellow"",""low nameability""]","right-left","[""neonyellow"",""mustard""]","5","low nameability","42","right","response","1"
"html-audio-button-response","213","460746","0.0-157.0-1.0","CKN_135","135","","","","","","null","stimuli/bleep.m4a","null","mustard","neonyellow","[""mustard"",""neonyellow"",""low nameability""]","right-left","[""neonyellow"",""mustard""]","5","low nameability","42","right","audio_feedback","1"
"html-button-response","214","461271","0.0-158.0","CKN_135","135","","","","","","null","<button class=""jspsych-btn""><img src=""stimuli/white_square.png"" style=""width: 200px;height: 200px;""></button>","null","mustard","neonyellow","[""mustard"",""neonyellow"",""low nameability""]","right-left","[""neonyellow"",""mustard""]","5","low nameability","42","right","iti",""
"html-button-response","215","461926","0.0-159.0","CKN_135","135","","","","","","649","","0","orange","red","[""orange"",""red"",""high nameability""]","right-left","[""red"",""orange""]","5","high nameability","43","right","trigger",""
"html-button-response","216","462959","0.0-160.0-0.0","CKN_135","135","","","","","","1026","<button class=""jspsych-btn""><img src=""stimuli/orange.png"" style=""width: 200px;height: 200px;""></button>","1","orange","red","[""orange"",""red"",""high nameability""]","right-left","[""red"",""orange""]","5","high nameability","43","right","response","1"
"html-audio-button-response","217","463162","0.0-160.0-1.0","CKN_135","135","","","","","","null","stimuli/bleep.m4a","null","orange","red","[""orange"",""red"",""high nameability""]","right-left","[""red"",""orange""]","5","high nameability","43","right","audio_feedback","1"
"html-button-response","218","463686","0.0-161.0","CKN_135","135","","","","","","null","<button class=""jspsych-btn""><img src=""stimuli/white_square.png"" style=""width: 200px;height: 200px;""></button>","null","orange","red","[""orange"",""red"",""high nameability""]","right-left","[""red"",""orange""]","5","high nameability","43","right","iti",""
"html-button-response","219","463925","0.0-162.0","CKN_135","135","","","","","","227","","0","darkgreenblue","turquoise","[""darkgreenblue"",""turquoise"",""low nameability""]","left-right","[""darkgreenblue"",""turquoise"",""low nameability""]","5","low nameability","44","left","trigger",""
"html-button-response","220","465689","0.0-163.0-0.0","CKN_135","135","","","","","","1759","<button class=""jspsych-btn""><img src=""stimuli/darkgreenblue.png"" style=""width: 200px;height: 200px;""></button>","0","darkgreenblue","turquoise","[""darkgreenblue"",""turquoise"",""low nameability""]","left-right","[""darkgreenblue"",""turquoise"",""low nameability""]","5","low nameability","44","left","response","1"
"html-audio-button-response","221","465890","0.0-163.0-1.0","CKN_135","135","","","","","","null","stimuli/bleep.m4a","null","darkgreenblue","turquoise","[""darkgreenblue"",""turquoise"",""low nameability""]","left-right","[""darkgreenblue"",""turquoise"",""low nameability""]","5","low nameability","44","left","audio_feedback","1"
"html-button-response","222","466410","0.0-164.0","CKN_135","135","","","","","","null","<button class=""jspsych-btn""><img src=""stimuli/white_square.png"" style=""width: 200px;height: 200px;""></button>","null","darkgreenblue","turquoise","[""darkgreenblue"",""turquoise"",""low nameability""]","left-right","[""darkgreenblue"",""turquoise"",""low nameability""]","5","low nameability","44","left","iti",""
"html-button-response","223","466683","0.0-165.0","CKN_135","135","","","","","","256","","0","neonyellow","pink","[""neonyellow"",""pink"",""low nameability""]","right-left","[""pink"",""neonyellow""]","5","low nameability","45","right","trigger",""
"html-button-response","224","467828","0.0-166.0-0.0","CKN_135","135","","","","","","1137","<button class=""jspsych-btn""><img src=""stimuli/neonyellow.png"" style=""width: 200px;height: 200px;""></button>","1","neonyellow","pink","[""neonyellow"",""pink"",""low nameability""]","right-left","[""pink"",""neonyellow""]","5","low nameability","45","right","response","1"
"html-audio-button-response","225","468033","0.0-166.0-1.0","CKN_135","135","","","","","","null","stimuli/bleep.m4a","null","neonyellow","pink","[""neonyellow"",""pink"",""low nameability""]","right-left","[""pink"",""neonyellow""]","5","low nameability","45","right","audio_feedback","1"
"html-button-response","226","468549","0.0-167.0","CKN_135","135","","","","","","null","<button class=""jspsych-btn""><img src=""stimuli/white_square.png"" style=""width: 200px;height: 200px;""></button>","null","neonyellow","pink","[""neonyellow"",""pink"",""low nameability""]","right-left","[""pink"",""neonyellow""]","5","low nameability","45","right","iti",""
"html-button-response","227","468914","0.0-168.0","CKN_135","135","","","","","","348","","0","turquoise","neonyellow","[""turquoise"",""neonyellow"",""low nameability""]","left-right","[""turquoise"",""neonyellow"",""low nameability""]","5","low nameability","46","left","trigger",""
"html-button-response","228","469909","0.0-169.0-0.0","CKN_135","135","","","","","","989","<button class=""jspsych-btn""><img src=""stimuli/turquoise.png"" style=""width: 200px;height: 200px;""></button>","0","turquoise","neonyellow","[""turquoise"",""neonyellow"",""low nameability""]","left-right","[""turquoise"",""neonyellow"",""low nameability""]","5","low nameability","46","left","response","1"
"html-audio-button-response","229","470114","0.0-169.0-1.0","CKN_135","135","","","","","","null","stimuli/bleep.m4a","null","turquoise","neonyellow","[""turquoise"",""neonyellow"",""low nameability""]","left-right","[""turquoise"",""neonyellow"",""low nameability""]","5","low nameability","46","left","audio_feedback","1"
"html-button-response","230","470631","0.0-170.0","CKN_135","135","","","","","","null","<button class=""jspsych-btn""><img src=""stimuli/white_square.png"" style=""width: 200px;height: 200px;""></button>","null","turquoise","neonyellow","[""turquoise"",""neonyellow"",""low nameability""]","left-right","[""turquoise"",""neonyellow"",""low nameability""]","5","low nameability","46","left","iti",""
"html-button-response","231","471456","0.0-171.0","CKN_135","135","","","","","","813","","0","purple","yellow","[""purple"",""yellow"",""high nameability""]","left-right","[""purple"",""yellow"",""high nameability""]","5","high nameability","47","left","trigger",""
"html-button-response","232","472346","0.0-172.0-0.0","CKN_135","135","","","","","","885","<button class=""jspsych-btn""><img src=""stimuli/purple.png"" style=""width: 200px;height: 200px;""></button>","1","purple","yellow","[""purple"",""yellow"",""high nameability""]","left-right","[""purple"",""yellow"",""high nameability""]","5","high nameability","47","left","response","0"
"html-audio-button-response","233","472973","0.0-172.0-1.0","CKN_135","135","","","","","","null","stimuli/boing.m4a","null","purple","yellow","[""purple"",""yellow"",""high nameability""]","left-right","[""purple"",""yellow"",""high nameability""]","5","high nameability","47","left","audio_feedback","0"
"html-button-response","234","474400","0.0-172.1-0.1","CKN_135","135","","","","","","1408","<button class=""jspsych-btn""><img src=""stimuli/purple.png"" style=""width: 200px;height: 200px;""></button>","0","purple","yellow","[""purple"",""yellow"",""high nameability""]","left-right","[""purple"",""yellow"",""high nameability""]","5","high nameability","47","left","response","1"
"html-audio-button-response","235","474616","0.0-172.1-1.1","CKN_135","135","","","","","","null","stimuli/bleep.m4a","null","purple","yellow","[""purple"",""yellow"",""high nameability""]","left-right","[""purple"",""yellow"",""high nameability""]","5","high nameability","47","left","audio_feedback","1"
"html-button-response","236","475146","0.0-173.0","CKN_135","135","","","","","","null","<button class=""jspsych-btn""><img src=""stimuli/white_square.png"" style=""width: 200px;height: 200px;""></button>","null","purple","yellow","[""purple"",""yellow"",""high nameability""]","left-right","[""purple"",""yellow"",""high nameability""]","5","high nameability","47","left","iti",""
"html-button-response","237","476775","0.0-174.0","CKN_135","135","","","","","","1614","","0","blue","yellow","[""blue"",""yellow"",""high nameability""]","right-left","[""yellow"",""blue""]","5","high nameability","48","right","trigger",""
"html-button-response","238","478035","0.0-175.0-0.0","CKN_135","135","","","","","","1252","<button class=""jspsych-btn""><img src=""stimuli/blue.png"" style=""width: 200px;height: 200px;""></button>","1","blue","yellow","[""blue"",""yellow"",""high nameability""]","right-left","[""yellow"",""blue""]","5","high nameability","48","right","response","1"
"html-audio-button-response","239","478235","0.0-175.0-1.0","CKN_135","135","","","","","","null","stimuli/bleep.m4a","null","blue","yellow","[""blue"",""yellow"",""high nameability""]","right-left","[""yellow"",""blue""]","5","high nameability","48","right","audio_feedback","1"
"html-button-response","240","478753","0.0-176.0","CKN_135","135","","","","","","null","<button class=""jspsych-btn""><img src=""stimuli/white_square.png"" style=""width: 200px;height: 200px;""></button>","null","blue","yellow","[""blue"",""yellow"",""high nameability""]","right-left","[""yellow"",""blue""]","5","high nameability","48","right","iti",""
"html-button-response","241","479009","0.0-177.0","CKN_135","135","","","","","","245","","0","yellow","orange","[""yellow"",""orange"",""high nameability""]","right-left","[""orange"",""yellow""]","5","high nameability","49","right","trigger",""
"html-button-response","242","480052","0.0-178.0-0.0","CKN_135","135","","","","","","1039","<button class=""jspsych-btn""><img src=""stimuli/yellow.png"" style=""width: 200px;height: 200px;""></button>","1","yellow","orange","[""yellow"",""orange"",""high nameability""]","right-left","[""orange"",""yellow""]","5","high nameability","49","right","response","1"
"html-audio-button-response","243","480271","0.0-178.0-1.0","CKN_135","135","","","","","","null","stimuli/bleep.m4a","null","yellow","orange","[""yellow"",""orange"",""high nameability""]","right-left","[""orange"",""yellow""]","5","high nameability","49","right","audio_feedback","1"
"html-button-response","244","480791","0.0-179.0","CKN_135","135","","","","","","null","<button class=""jspsych-btn""><img src=""stimuli/white_square.png"" style=""width: 200px;height: 200px;""></button>","null","yellow","orange","[""yellow"",""orange"",""high nameability""]","right-left","[""orange"",""yellow""]","5","high nameability","49","right","iti",""
"html-button-response","245","480877","0.0-180.0","CKN_135","135","","","","","","72","","0","orange","brown","[""orange"",""brown"",""high nameability""]","right-left","[""brown"",""orange""]","5","high nameability","50","right","trigger",""
"html-button-response","246","482664","0.0-181.0-0.0","CKN_135","135","","","","","","1782","<button class=""jspsych-btn""><img src=""stimuli/orange.png"" style=""width: 200px;height: 200px;""></button>","1","orange","brown","[""orange"",""brown"",""high nameability""]","right-left","[""brown"",""orange""]","5","high nameability","50","right","response","1"
"html-audio-button-response","247","482867","0.0-181.0-1.0","CKN_135","135","","","","","","null","stimuli/bleep.m4a","null","orange","brown","[""orange"",""brown"",""high nameability""]","right-left","[""brown"",""orange""]","5","high nameability","50","right","audio_feedback","1"
"html-button-response","248","483386","0.0-182.0","CKN_135","135","","","","","","null","<button class=""jspsych-btn""><img src=""stimuli/white_square.png"" style=""width: 200px;height: 200px;""></button>","null","orange","brown","[""orange"",""brown"",""high nameability""]","right-left","[""brown"",""orange""]","5","high nameability","50","right","iti",""
"pavlovia","249","483468","0.0-183.0","CKN_135","135","","","","","","","","","","","","","","","","","","",""
"pavlovia","250","483485","0.0-184.0","CKN_135","135","","","","","","","","","","","","","","","","","","",""
"html-audio-button-response","251","487745","0.0-185.0","CKN_135","135","","","","","","4363","stimuli/tada.m4a","0","","","","","","","","","","",""
"html-button-response","252","488252","0.0-186.0","CKN_135","135","","","","","","501","","0","","","","","","","","","","",""
"html-button-response","253","489440","0.0-187.0","CKN_135","135","","","","","","1183","","0","purple","brown","[""purple"",""brown"",""high nameability""]","left-right","[""purple"",""brown"",""high nameability""]","6","high nameability","51","left","trigger",""
"html-button-response","254","492159","0.0-188.0-0.0","CKN_135","135","","","","","","2713","<button class=""jspsych-btn""><img src=""stimuli/purple.png"" style=""width: 200px;height: 200px;""></button>","0","purple","brown","[""purple"",""brown"",""high nameability""]","left-right","[""purple"",""brown"",""high nameability""]","6","high nameability","51","left","response","1"
"html-audio-button-response","255","492361","0.0-188.0-1.0","CKN_135","135","","","","","","null","stimuli/bleep.m4a","null","purple","brown","[""purple"",""brown"",""high nameability""]","left-right","[""purple"",""brown"",""high nameability""]","6","high nameability","51","left","audio_feedback","1"
"html-button-response","256","492881","0.0-189.0","CKN_135","135","","","","","","null","<button class=""jspsych-btn""><img src=""stimuli/white_square.png"" style=""width: 200px;height: 200px;""></button>","null","purple","brown","[""purple"",""brown"",""high nameability""]","left-right","[""purple"",""brown"",""high nameability""]","6","high nameability","51","left","iti",""
"html-button-response","257","493501","0.0-190.0","CKN_135","135","","","","","","606","","0","yellow","red","[""yellow"",""red"",""high nameability""]","left-right","[""yellow"",""red"",""high nameability""]","6","high nameability","52","left","trigger",""
"html-button-response","258","495320","0.0-191.0-0.0","CKN_135","135","","","","","","1812","<button class=""jspsych-btn""><img src=""stimuli/yellow.png"" style=""width: 200px;height: 200px;""></button>","0","yellow","red","[""yellow"",""red"",""high nameability""]","left-right","[""yellow"",""red"",""high nameability""]","6","high nameability","52","left","response","1"
"html-audio-button-response","259","495522","0.0-191.0-1.0","CKN_135","135","","","","","","null","stimuli/bleep.m4a","null","yellow","red","[""yellow"",""red"",""high nameability""]","left-right","[""yellow"",""red"",""high nameability""]","6","high nameability","52","left","audio_feedback","1"
"html-button-response","260","496040","0.0-192.0","CKN_135","135","","","","","","null","<button class=""jspsych-btn""><img src=""stimuli/white_square.png"" style=""width: 200px;height: 200px;""></button>","null","yellow","red","[""yellow"",""red"",""high nameability""]","left-right","[""yellow"",""red"",""high nameability""]","6","high nameability","52","left","iti",""
"html-button-response","261","496636","0.0-193.0","CKN_135","135","","","","","","583","","0","yellow","brown","[""yellow"",""brown"",""high nameability""]","left-right","[""yellow"",""brown"",""high nameability""]","6","high nameability","53","left","trigger",""
"html-button-response","262","497416","0.0-194.0-0.0","CKN_135","135","","","","","","773","<button class=""jspsych-btn""><img src=""stimuli/yellow.png"" style=""width: 200px;height: 200px;""></button>","0","yellow","brown","[""yellow"",""brown"",""high nameability""]","left-right","[""yellow"",""brown"",""high nameability""]","6","high nameability","53","left","response","1"
"html-audio-button-response","263","497617","0.0-194.0-1.0","CKN_135","135","","","","","","null","stimuli/bleep.m4a","null","yellow","brown","[""yellow"",""brown"",""high nameability""]","left-right","[""yellow"",""brown"",""high nameability""]","6","high nameability","53","left","audio_feedback","1"
"html-button-response","264","498133","0.0-195.0","CKN_135","135","","","","","","null","<button class=""jspsych-btn""><img src=""stimuli/white_square.png"" style=""width: 200px;height: 200px;""></button>","null","yellow","brown","[""yellow"",""brown"",""high nameability""]","left-right","[""yellow"",""brown"",""high nameability""]","6","high nameability","53","left","iti",""
"html-button-response","265","499929","0.0-196.0","CKN_135","135","","","","","","1783","","0","lightred","darkgreenblue","[""lightred"",""darkgreenblue"",""low nameability""]","left-right","[""lightred"",""darkgreenblue"",""low nameability""]","6","low nameability","54","left","trigger",""
"html-button-response","266","500838","0.0-197.0-0.0","CKN_135","135","","","","","","903","<button class=""jspsych-btn""><img src=""stimuli/lightred.png"" style=""width: 200px;height: 200px;""></button>","0","lightred","darkgreenblue","[""lightred"",""darkgreenblue"",""low nameability""]","left-right","[""lightred"",""darkgreenblue"",""low nameability""]","6","low nameability","54","left","response","1"
"html-audio-button-response","267","501042","0.0-197.0-1.0","CKN_135","135","","","","","","null","stimuli/bleep.m4a","null","lightred","darkgreenblue","[""lightred"",""darkgreenblue"",""low nameability""]","left-right","[""lightred"",""darkgreenblue"",""low nameability""]","6","low nameability","54","left","audio_feedback","1"
"html-button-response","268","501561","0.0-198.0","CKN_135","135","","","","","","null","<button class=""jspsych-btn""><img src=""stimuli/white_square.png"" style=""width: 200px;height: 200px;""></button>","null","lightred","darkgreenblue","[""lightred"",""darkgreenblue"",""low nameability""]","left-right","[""lightred"",""darkgreenblue"",""low nameability""]","6","low nameability","54","left","iti",""
"html-button-response","269","502413","0.0-199.0","CKN_135","135","","","","","","840","","0","darkgreenblue","lightred","[""darkgreenblue"",""lightred"",""low nameability""]","right-left","[""lightred"",""darkgreenblue""]","6","low nameability","55","right","trigger",""
"html-button-response","270","503290","0.0-200.0-0.0","CKN_135","135","","","","","","872","<button class=""jspsych-btn""><img src=""stimuli/darkgreenblue.png"" style=""width: 200px;height: 200px;""></button>","0","darkgreenblue","lightred","[""darkgreenblue"",""lightred"",""low nameability""]","right-left","[""lightred"",""darkgreenblue""]","6","low nameability","55","right","response","0"
"html-audio-button-response","271","503915","0.0-200.0-1.0","CKN_135","135","","","","","","null","stimuli/boing.m4a","null","darkgreenblue","lightred","[""darkgreenblue"",""lightred"",""low nameability""]","right-left","[""lightred"",""darkgreenblue""]","6","low nameability","55","right","audio_feedback","0"
"html-button-response","272","504677","0.0-200.1-0.1","CKN_135","135","","","","","","743","<button class=""jspsych-btn""><img src=""stimuli/darkgreenblue.png"" style=""width: 200px;height: 200px;""></button>","1","darkgreenblue","lightred","[""darkgreenblue"",""lightred"",""low nameability""]","right-left","[""lightred"",""darkgreenblue""]","6","low nameability","55","right","response","1"
"html-audio-button-response","273","504886","0.0-200.1-1.1","CKN_135","135","","","","","","null","stimuli/bleep.m4a","null","darkgreenblue","lightred","[""darkgreenblue"",""lightred"",""low nameability""]","right-left","[""lightred"",""darkgreenblue""]","6","low nameability","55","right","audio_feedback","1"
"html-button-response","274","505414","0.0-201.0","CKN_135","135","","","","","","null","<button class=""jspsych-btn""><img src=""stimuli/white_square.png"" style=""width: 200px;height: 200px;""></button>","null","darkgreenblue","lightred","[""darkgreenblue"",""lightred"",""low nameability""]","right-left","[""lightred"",""darkgreenblue""]","6","low nameability","55","right","iti",""
"html-button-response","275","507367","0.0-202.0","CKN_135","135","","","","","","1928","","0","blue","red","[""blue"",""red"",""high nameability""]","right-left","[""red"",""blue""]","6","high nameability","56","right","trigger",""
"html-button-response","276","508269","0.0-203.0-0.0","CKN_135","135","","","","","","890","<button class=""jspsych-btn""><img src=""stimuli/blue.png"" style=""width: 200px;height: 200px;""></button>","1","blue","red","[""blue"",""red"",""high nameability""]","right-left","[""red"",""blue""]","6","high nameability","56","right","response","1"
"html-audio-button-response","277","508478","0.0-203.0-1.0","CKN_135","135","","","","","","null","stimuli/bleep.m4a","null","blue","red","[""blue"",""red"",""high nameability""]","right-left","[""red"",""blue""]","6","high nameability","56","right","audio_feedback","1"
"html-button-response","278","509004","0.0-204.0","CKN_135","135","","","","","","null","<button class=""jspsych-btn""><img src=""stimuli/white_square.png"" style=""width: 200px;height: 200px;""></button>","null","blue","red","[""blue"",""red"",""high nameability""]","right-left","[""red"",""blue""]","6","high nameability","56","right","iti",""
"html-button-response","279","510758","0.0-205.0","CKN_135","135","","","","","","1739","","0","pink","neonyellow","[""pink"",""neonyellow"",""low nameability""]","left-right","[""pink"",""neonyellow"",""low nameability""]","6","low nameability","57","left","trigger",""
"html-button-response","280","511751","0.0-206.0-0.0","CKN_135","135","","","","","","987","<button class=""jspsych-btn""><img src=""stimuli/pink.png"" style=""width: 200px;height: 200px;""></button>","1","pink","neonyellow","[""pink"",""neonyellow"",""low nameability""]","left-right","[""pink"",""neonyellow"",""low nameability""]","6","low nameability","57","left","response","0"
"html-audio-button-response","281","512373","0.0-206.0-1.0","CKN_135","135","","","","","","null","stimuli/boing.m4a","null","pink","neonyellow","[""pink"",""neonyellow"",""low nameability""]","left-right","[""pink"",""neonyellow"",""low nameability""]","6","low nameability","57","left","audio_feedback","0"
"html-button-response","282","513467","0.0-206.1-0.1","CKN_135","135","","","","","","1072","<button class=""jspsych-btn""><img src=""stimuli/pink.png"" style=""width: 200px;height: 200px;""></button>","0","pink","neonyellow","[""pink"",""neonyellow"",""low nameability""]","left-right","[""pink"",""neonyellow"",""low nameability""]","6","low nameability","57","left","response","1"
"html-audio-button-response","283","513672","0.0-206.1-1.1","CKN_135","135","","","","","","null","stimuli/bleep.m4a","null","pink","neonyellow","[""pink"",""neonyellow"",""low nameability""]","left-right","[""pink"",""neonyellow"",""low nameability""]","6","low nameability","57","left","audio_feedback","1"
"html-button-response","284","514186","0.0-207.0","CKN_135","135","","","","","","null","<button class=""jspsych-btn""><img src=""stimuli/white_square.png"" style=""width: 200px;height: 200px;""></button>","null","pink","neonyellow","[""pink"",""neonyellow"",""low nameability""]","left-right","[""pink"",""neonyellow"",""low nameability""]","6","low nameability","57","left","iti",""
"html-button-response","285","515243","0.0-208.0","CKN_135","135","","","","","","1043","","0","neonyellow","darkgreenblue","[""neonyellow"",""darkgreenblue"",""low nameability""]","left-right","[""neonyellow"",""darkgreenblue"",""low nameability""]","6","low nameability","58","left","trigger",""
"html-button-response","286","516239","0.0-209.0-0.0","CKN_135","135","","","","","","989","<button class=""jspsych-btn""><img src=""stimuli/neonyellow.png"" style=""width: 200px;height: 200px;""></button>","0","neonyellow","darkgreenblue","[""neonyellow"",""darkgreenblue"",""low nameability""]","left-right","[""neonyellow"",""darkgreenblue"",""low nameability""]","6","low nameability","58","left","response","1"
"html-audio-button-response","287","516442","0.0-209.0-1.0","CKN_135","135","","","","","","null","stimuli/bleep.m4a","null","neonyellow","darkgreenblue","[""neonyellow"",""darkgreenblue"",""low nameability""]","left-right","[""neonyellow"",""darkgreenblue"",""low nameability""]","6","low nameability","58","left","audio_feedback","1"
"html-button-response","288","516956","0.0-210.0","CKN_135","135","","","","","","null","<button class=""jspsych-btn""><img src=""stimuli/white_square.png"" style=""width: 200px;height: 200px;""></button>","null","neonyellow","darkgreenblue","[""neonyellow"",""darkgreenblue"",""low nameability""]","left-right","[""neonyellow"",""darkgreenblue"",""low nameability""]","6","low nameability","58","left","iti",""
"html-button-response","289","517217","0.0-211.0","CKN_135","135","","","","","","245","","0","lightred","mustard","[""lightred"",""mustard"",""low nameability""]","right-left","[""mustard"",""lightred""]","6","low nameability","59","right","trigger",""
"html-button-response","290","517906","0.0-212.0-0.0","CKN_135","135","","","","","","684","<button class=""jspsych-btn""><img src=""stimuli/lightred.png"" style=""width: 200px;height: 200px;""></button>","0","lightred","mustard","[""lightred"",""mustard"",""low nameability""]","right-left","[""mustard"",""lightred""]","6","low nameability","59","right","response","0"
"html-audio-button-response","291","518533","0.0-212.0-1.0","CKN_135","135","","","","","","null","stimuli/boing.m4a","null","lightred","mustard","[""lightred"",""mustard"",""low nameability""]","right-left","[""mustard"",""lightred""]","6","low nameability","59","right","audio_feedback","0"
"html-button-response","292","518880","0.0-212.1-0.1","CKN_135","135","","","","","","326","<button class=""jspsych-btn""><img src=""stimuli/lightred.png"" style=""width: 200px;height: 200px;""></button>","1","lightred","mustard","[""lightred"",""mustard"",""low nameability""]","right-left","[""mustard"",""lightred""]","6","low nameability","59","right","response","1"
"html-audio-button-response","293","519082","0.0-212.1-1.1","CKN_135","135","","","","","","null","stimuli/bleep.m4a","null","lightred","mustard","[""lightred"",""mustard"",""low nameability""]","right-left","[""mustard"",""lightred""]","6","low nameability","59","right","audio_feedback","1"
"html-button-response","294","519593","0.0-213.0","CKN_135","135","","","","","","null","<button class=""jspsych-btn""><img src=""stimuli/white_square.png"" style=""width: 200px;height: 200px;""></button>","null","lightred","mustard","[""lightred"",""mustard"",""low nameability""]","right-left","[""mustard"",""lightred""]","6","low nameability","59","right","iti",""
"html-button-response","295","520606","0.0-214.0","CKN_135","135","","","","","","1005","","0","pink","darkgreenblue","[""pink"",""darkgreenblue"",""low nameability""]","right-left","[""darkgreenblue"",""pink""]","6","low nameability","60","right","trigger",""
"html-button-response","296","523946","0.0-215.0-0.0","CKN_135","135","","","","","","3332","<button class=""jspsych-btn""><img src=""stimuli/pink.png"" style=""width: 200px;height: 200px;""></button>","1","pink","darkgreenblue","[""pink"",""darkgreenblue"",""low nameability""]","right-left","[""darkgreenblue"",""pink""]","6","low nameability","60","right","response","1"
"html-audio-button-response","297","524147","0.0-215.0-1.0","CKN_135","135","","","","","","null","stimuli/bleep.m4a","null","pink","darkgreenblue","[""pink"",""darkgreenblue"",""low nameability""]","right-left","[""darkgreenblue"",""pink""]","6","low nameability","60","right","audio_feedback","1"
"html-button-response","298","524665","0.0-216.0","CKN_135","135","","","","","","null","<button class=""jspsych-btn""><img src=""stimuli/white_square.png"" style=""width: 200px;height: 200px;""></button>","null","pink","darkgreenblue","[""pink"",""darkgreenblue"",""low nameability""]","right-left","[""darkgreenblue"",""pink""]","6","low nameability","60","right","iti",""
